host_time_s,seq,device_time_s,roll,pitch,yaw,gyro_x,gyro_y,gyro_z,accel_x,accel_y,accel_z
2.07239158099992,1,1541.44,-85.2,5.3,-72.9,-0.9,-0.86,0.32,0.48,-1.17,0.05
2.0779504520000955,2,1541.45,-85.8,5.4,-73.8,-2.13,-5.45,-0.23,0.27,-0.92,-0.01
2.0885211230001914,3,1541.46,-86.1,5.4,-74.4,-1.99,-6.04,-0.45,0.2,-0.83,-0.15
2.098344398000336,4,1541.47,-86.3,5.5,-75.0,-1.8,-5.96,-0.67,0.16,-0.77,-0.21
2.10821738300001,5,1541.48,-86.5,5.6,-75.6,-1.32,-5.52,-0.84,0.1,-0.77,-0.17
2.11825855699999,6,1541.49,-86.7,5.8,-76.1,-0.74,-5.13,-0.98,0.04,-0.79,-0.1
2.1284009080000033,7,1541.5,-86.8,5.9,-76.6,-0.33,-4.91,-0.95,-0.03,-0.84,-0.07
2.1381561790003616,8,1541.51,-86.8,5.9,-76.6,-0.33,-4.91,-0.95,-0.03,-0.84,-0.07
2.1484120530003565,9,1541.52,-86.9,6.0,-77.1,-0.26,-4.78,-0.75,-0.08,-0.92,-0.07
2.1579876830001012,10,1541.53,-87.0,6.1,-77.6,-0.68,-4.48,-0.49,-0.12,-1.01,-0.11
2.16815012699999,11,1541.54,-87.1,6.1,-78.0,-1.57,-3.86,-0.16,-0.16,-1.03,-0.12
2.1783439670002736,12,1541.55,-87.3,6.2,-78.3,-2.06,-3.3,0.23,-0.14,-0.99,-0.06
2.1881220630002645,13,1541.56,-87.6,6.1,-78.7,-2.05,-3.0,0.63,-0.1,-0.93,-0.02
2.198263354000119,14,1541.57,-87.8,6.1,-78.9,-1.76,-2.79,0.94,-0.06,-0.89,0.0
2.2081960740001705,15,1541.58,-88.0,6.0,-79.2,-1.5,-2.57,1.09,-0.03,-0.87,-0.01
2.2179709870001716,16,1541.59,-88.2,5.9,-79.5,-1.28,-2.27,1.14,-0.01,-0.87,-0.01
2.228336675000264,17,1541.6,-88.3,5.7,-79.7,-1.13,-2.0,1.05,0.0,-0.88,0.0
2.2381399840000995,18,1541.61,-88.5,5.5,-79.9,-1.01,-1.75,0.94,-0.02,-0.9,0.0
2.248116583999945,19,1541.62,-88.6,5.5,-80.0,-0.92,-1.46,0.81,-0.04,-0.92,0.0
2.258054400000219,20,1541.63,-88.7,5.4,-80.2,-0.92,-1.16,0.7,-0.06,-0.93,0.01
2.2682328760001838,21,1541.64,-88.8,5.3,-80.3,-1.02,-0.85,0.65,-0.08,-0.93,0.01
2.278111342000102,22,1541.65,-88.9,5.3,-80.3,-1.19,-0.54,0.7,-0.09,-0.91,0.02
2.288075372000094,23,1541.66,-89.0,5.2,-80.4,-1.34,-0.27,0.79,-0.09,-0.9,0.04
2.2983268370003316,24,1541.67,-89.2,5.1,-80.4,-1.32,-0.06,0.87,-0.08,-0.89,0.07
2.3081346280000616,25,1541.68,-89.3,5.0,-80.4,-1.14,0.08,0.87,-0.07,-0.9,0.09
2.317987113000072,26,1541.69,-89.4,4.9,-80.4,-0.92,0.24,0.75,-0.05,-0.92,0.11
2.328434574000312,27,1541.7,-89.5,4.9,-80.4,-0.81,0.31,0.58,-0.03,-0.92,0.14
2.33815566200019,28,1541.71,-89.6,4.8,-80.3,-0.88,0.35,0.39,-0.02,-0.92,0.15
2.3480627150001965,29,1541.72,-89.7,4.8,-80.3,-1.12,0.4,0.15,-0.03,-0.91,0.15
2.358309119000296,30,1541.73,-89.8,4.8,-80.2,-1.37,0.58,-0.13,-0.06,-0.89,0.12
2.3683827660001953,31,1541.74,-89.9,4.8,-80.2,-1.46,0.99,-0.45,-0.09,-0.85,0.09
2.3779906409999967,32,1541.75,-90.0,4.9,-80.0,-1.23,1.56,-0.72,-0.13,-0.81,0.08
2.3882345020001594,33,1541.76,-90.1,5.0,-79.8,-0.63,2.2,-0.87,-0.18,-0.76,0.09
2.3981153409999934,34,1541.77,-90.1,5.0,-79.6,0.29,2.82,-0.84,-0.21,-0.73,0.11
2.4080758029999743,35,1541.78,-90.0,5.1,-79.3,1.3,3.2,-0.66,-0.21,-0.75,0.13
2.4180833880000137,36,1541.79,-89.8,5.2,-78.9,1.8,3.32,-0.52,-0.19,-0.83,0.13
2.428133085000354,37,1541.8,-89.6,5.2,-78.6,1.98,3.31,-0.39,-0.16,-0.87,0.14
2.4379846980000366,38,1541.81,-89.3,5.2,-78.3,2.3,3.18,-0.17,-0.1,-0.91,0.13
2.448370339000121,39,1541.82,-89.1,5.2,-78.0,2.34,2.91,0.04,-0.03,-0.97,0.12
2.458059225999932,40,1541.83,-88.8,5.2,-77.7,2.17,2.35,0.3,0.04,-1.02,0.14
2.4680102320003243,41,1541.84,-88.6,5.2,-77.5,1.39,1.44,0.51,0.11,-1.07,0.18
2.478312618000018,42,1541.85,-88.5,5.1,-77.4,0.18,0.3,0.66,0.18,-1.07,0.22
2.4882522749999225,43,1541.86,-88.6,5.0,-77.5,-0.65,-0.44,0.75,0.24,-0.99,0.24
2.497989190000226,44,1541.87,-88.7,5.0,-77.5,-0.88,-0.66,0.61,0.19,-0.92,0.26
2.5084272440003588,45,1541.88,-88.7,4.9,-77.6,-0.26,-0.52,0.46,0.07,-0.82,0.13
2.518092249000347,46,1541.89,-88.6,4.8,-77.6,2.4,0.57,1.0,0.01,-0.7,-0.09
2.5281632220003303,47,1541.9,-88.2,4.7,-77.5,5.83,1.17,2.08,0.16,-0.94,-0.01
2.537997658000222,48,1541.91,-87.5,4.5,-77.4,7.37,0.61,2.97,0.2,-1.24,0.16
2.5484601719999773,49,1541.92,-86.7,4.1,-77.4,7.66,-0.98,4.08,0.17,-1.42,0.21
2.557981824000308,50,1541.93,-86.0,3.7,-77.7,5.72,-2.55,5.12,0.09,-1.66,0.12
2.56812365199994,51,1541.94,-85.7,3.2,-78.0,1.69,-3.19,4.98,0.02,-1.84,-0.04
2.5783084970003074,52,1541.95,-85.7,2.7,-78.3,-0.82,-2.85,3.95,0.01,-1.71,-0.24
2.588162461000138,53,1541.96,-85.8,2.4,-78.6,-0.64,-1.63,2.85,-0.04,-1.52,-0.33
2.598036608000257,54,1541.97,-85.8,2.2,-78.7,0.56,-0.74,1.92,-0.1,-1.41,-0.28
2.6082320310001705,55,1541.98,-85.8,2.1,-78.8,0.41,-0.08,1.0,-0.16,-1.33,-0.33
2.6181485720003366,56,1541.99,-85.8,2.0,-78.7,-0.48,1.16,0.39,-0.18,-1.16,-0.43
2.6282145640002454,57,1542.0,-85.9,1.9,-78.5,-1.15,2.97,0.25,-0.19,-1.0,-0.44
2.6381383770003595,58,1542.01,-86.0,1.9,-78.1,-1.33,4.36,0.33,-0.22,-0.93,-0.33
2.6482275900002605,59,1542.02,-86.1,1.8,-77.6,-1.2,5.36,0.72,-0.26,-0.84,-0.27
2.658006183999987,60,1542.03,-86.2,1.7,-77.1,-1.07,5.77,1.2,-0.2,-0.89,-0.18
2.6682505050002874,61,1542.04,-86.3,1.5,-76.5,-1.69,5.51,1.35,-0.07,-1.01,-0.06
2.678345138000168,62,1542.05,-86.5,1.3,-76.0,-2.42,4.92,1.21,0.06,-1.05,-0.01
2.688141131000066,63,1542.06,-86.8,1.2,-75.6,-2.69,4.36,0.89,0.19,-1.06,0.0
2.6981464860000415,64,1542.07,-87.1,1.1,-75.2,-2.66,3.76,0.51,0.31,-1.02,0.06
2.708192027000223,65,1542.08,-87.3,1.1,-74.8,-2.34,3.02,0.11,0.39,-0.97,0.13
2.717969722000362,66,1542.09,-87.5,1.1,-74.6,-1.77,2.15,-0.27,0.43,-0.92,0.18
2.728419254000073,67,1542.1,-87.6,1.1,-74.4,-0.76,1.28,-0.66,0.41,-0.9,0.16
2.738142634000269,68,1542.11,-87.7,1.2,-74.3,0.24,0.68,-1.04,0.35,-0.91,0.09
2.748144345000128,69,1542.12,-87.6,1.3,-74.3,0.96,0.31,-1.36,0.27,-0.94,0.07
2.758338200000253,70,1542.13,-87.5,1.5,-74.2,1.25,0.0,-1.61,0.18,-0.98,0.06
2.7684125069999936,71,1542.14,-87.3,1.7,-74.2,1.09,-0.2,-1.75,0.1,-0.98,0.04
2.778044066000348,72,1542.15,-87.3,1.9,-74.3,0.54,-0.28,-1.75,0.04,-0.96,0.01
2.788248031999956,73,1542.16,-87.3,2.0,-74.3,-0.22,-0.27,-1.61,0.01,-0.92,0.01
2.7983095889999277,74,1542.17,-87.4,2.2,-74.3,-0.97,-0.23,-1.39,0.0,-0.89,0.01
2.8081741830001192,75,1542.18,-87.5,2.3,-74.3,-1.47,-0.17,-1.22,0.01,-0.86,0.02
2.818185385000106,76,1542.19,-87.7,2.4,-74.3,-1.58,-0.02,-1.14,0.03,-0.86,0.02
2.828228579000097,77,1542.2,-87.8,2.5,-74.3,-1.52,0.15,-1.17,0.06,-0.86,0.03
2.8379792460000317,78,1542.21,-88.0,2.7,-74.3,-1.3,0.23,-1.28,0.08,-0.86,0.06
2.848194371000318,79,1542.22,-88.0,2.8,-74.2,-0.92,0.32,-1.3,0.09,-0.85,0.07
2.8580595140001606,80,1542.23,-88.1,3.0,-74.2,-0.61,0.29,-1.17,0.09,-0.86,0.11
2.868013594000331,81,1542.24,-88.1,3.1,-74.2,-0.35,0.19,-0.95,0.1,-0.88,0.13
2.878030819000287,82,1542.25,-88.1,3.2,-74.2,-0.33,0.13,-0.75,0.1,-0.91,0.14
2.888155271999949,83,1542.26,-88.2,3.2,-74.1,-0.49,0.12,-0.52,0.09,-0.9,0.16
2.8980826590000106,84,1542.27,-88.3,3.3,-74.1,-0.76,0.12,-0.2,0.09,-0.86,0.19
2.9080953940001564,85,1542.28,-88.3,3.3,-74.1,-1.12,0.01,0.15,0.1,-0.82,0.22
2.918057171000328,86,1542.29,-88.5,3.2,-74.1,-1.39,-0.2,0.45,0.12,-0.78,0.24
2.9283157400000164,87,1542.3,-88.6,3.2,-74.2,-1.35,-0.48,0.69,0.14,-0.75,0.26
2.9382963050002218,88,1542.31,-88.7,3.1,-74.2,-0.99,-0.8,0.87,0.17,-0.72,0.26
2.9483878080000068,89,1542.32,-88.8,3.0,-74.3,-0.35,-1.17,0.96,0.2,-0.73,0.25
2.9581042400000115,90,1542.33,-88.8,2.9,-74.5,0.63,-1.56,0.92,0.21,-0.78,0.21
2.967952422000053,91,1542.34,-88.7,2.8,-74.7,1.55,-1.82,0.8,0.21,-0.83,0.18
2.978342222000265,92,1542.35,-88.5,2.8,-74.9,2.25,-2.0,0.7,0.19,-0.88,0.15
2.988232894000248,93,1542.36,-88.3,2.7,-75.1,2.58,-2.06,0.58,0.18,-0.94,0.13
2.998060540000097,94,1542.37,-88.0,2.7,-75.3,2.73,-2.06,0.34,0.16,-1.03,0.09
3.00830073599991,95,1542.38,-87.7,2.7,-75.5,2.78,-1.88,-0.06,0.07,-1.08,0.05
3.018312289000278,96,1542.39,-87.5,2.7,-75.6,2.8,-1.43,-0.43,-0.02,-1.1,0.0
3.0280657309999697,97,1542.4,-87.2,2.8,-75.7,2.55,-0.72,-0.77,-0.12,-1.11,-0.03
3.038173033000021,98,1542.41,-87.0,2.8,-75.8,1.74,0.11,-0.91,-0.2,-1.03,0.05
3.048384995000106,99,1542.42,-86.9,2.9,-75.7,0.83,0.77,-0.62,-0.21,-0.9,0.19
3.0580648939999264,100,1542.43,-86.8,3.0,-75.6,0.2,1.02,-0.03,-0.11,-0.84,0.31
3.0683655830002863,101,1542.44,-86.8,2.9,-75.5,0.48,0.89,0.19,0.03,-1.04,0.3
3.0781482620000133,102,1542.45,-86.7,2.9,-75.4,1.49,0.52,-0.49,0.07,-1.32,0.16
3.088165918999948,103,1542.46,-86.5,3.0,-75.4,2.84,1.0,-1.52,-0.03,-1.45,-0.02
3.0982522670001345,104,1542.47,-86.1,3.2,-75.2,4.17,1.88,-2.71,0.02,-1.72,0.01
3.108175769000354,105,1542.48,-85.7,3.5,-75.0,3.45,2.34,-4.21,0.07,-1.7,0.08
3.1180820449999374,106,1542.49,-85.5,4.0,-74.7,1.02,3.0,-4.42,0.18,-1.29,0.0
3.12817337100023,107,1542.5,-85.4,4.3,-74.3,0.19,3.12,-3.68,0.29,-1.18,0.01
3.138139655000032,108,1542.51,-85.4,4.6,-74.0,0.28,2.62,-2.77,0.26,-1.15,-0.02
3.1481870689999596,109,1542.52,-85.3,4.8,-73.7,0.69,1.94,-1.86,0.24,-1.16,-0.07
3.1580546610002784,110,1542.53,-85.2,5.0,-73.6,0.64,0.91,-1.04,0.27,-1.17,-0.02
3.168146586000148,111,1542.54,-85.2,5.0,-73.6,-0.13,-0.32,-0.42,0.29,-1.18,0.03
3.1780481180003335,112,1542.55,-85.3,5.1,-73.7,-1.49,-1.8,-0.01,0.28,-1.16,0.06
3.188401853999949,113,1542.56,-85.5,5.1,-74.0,-2.59,-3.5,0.11,0.28,-1.1,0.07
3.1981622440002866,114,1542.57,-85.9,5.1,-74.4,-2.97,-5.0,-0.02,0.3,-1.01,-0.01
3.20810216100017,115,1542.58,-86.2,5.2,-74.9,-2.8,-5.86,-0.44,0.3,-0.94,-0.15
3.218103347000124,116,1542.59,-86.5,5.3,-75.5,-2.45,-5.99,-0.92,0.26,-0.85,-0.19
3.2281065160000253,117,1542.6,-86.8,5.4,-76.1,-1.72,-5.87,-1.21,0.19,-0.79,-0.17
3.2380341440002667,118,1542.61,-87.0,5.6,-76.7,-0.78,-5.55,-1.28,0.11,-0.8,-0.17
3.2483680969999114,119,1542.62,-87.0,5.7,-77.2,0.07,-5.01,-1.14,0.03,-0.83,-0.18
3.2580499350001446,120,1542.63,-87.0,5.9,-77.7,0.63,-4.36,-0.8,-0.04,-0.9,-0.15
3.268350407000071,121,1542.64,-87.0,5.9,-78.1,0.56,-3.76,-0.37,-0.13,-0.96,-0.09
3.2780630060001386,122,1542.65,-87.0,6.0,-78.4,0.1,-3.15,0.17,-0.24,-0.99,-0.07
3.288265016999958,123,1542.66,-87.1,5.9,-78.7,-0.42,-2.38,0.67,-0.29,-1.0,-0.07
3.2983638850000716,124,1542.67,-87.2,5.8,-78.9,-0.82,-1.76,1.1,-0.27,-0.97,-0.02
3.308146902000317,125,1542.68,-87.3,5.7,-79.1,-0.94,-1.37,1.45,-0.22,-0.92,0.0
3.3180718359999446,126,1542.69,-87.4,5.6,-79.2,-0.93,-1.04,1.63,-0.17,-0.9,0.0
3.3284030510003504,127,1542.7,-87.5,5.4,-79.3,-0.83,-0.63,1.73,-0.11,-0.86,-0.01
3.338320893999935,128,1542.71,-87.5,5.2,-79.3,-0.62,-0.23,1.75,-0.05,-0.86,-0.01
3.348223448000226,129,1542.72,-87.6,5.1,-79.4,-0.5,0.09,1.66,-0.01,-0.87,0.0
3.3580594590002875,130,1542.73,-87.7,4.8,-79.3,-0.46,0.37,1.55,0.0,-0.88,0.01
3.3683248770003047,131,1542.74,-87.7,4.6,-79.3,-0.55,0.52,1.42,0.01,-0.89,0.03
3.378197244000148,132,1542.75,-87.8,4.5,-79.2,-0.78,0.62,1.29,0.01,-0.91,0.05
3.388244040000245,133,1542.76,-87.8,4.3,-79.2,-0.95,0.66,1.15,0.0,-0.89,0.07
3.3980374810003013,134,1542.77,-87.9,4.2,-79.1,-0.93,0.72,1.08,0.0,-0.88,0.08
3.4083917400002974,135,1542.78,-88.0,4.0,-79.0,-0.8,0.77,1.01,0.0,-0.89,0.09
3.4183406360002664,136,1542.79,-88.0,3.9,-79.0,-0.6,0.77,0.89,-0.01,-0.91,0.1
3.428168686999925,137,1542.8,-88.1,3.8,-78.9,-0.52,0.79,0.68,-0.01,-0.93,0.11
3.438253082000301,138,1542.81,-88.1,3.8,-78.8,-0.64,0.78,0.42,-0.03,-0.95,0.13
3.448446559000331,139,1542.82,-88.2,3.8,-78.7,-0.9,0.81,0.17,-0.05,-0.94,0.13
3.457990934999998,140,1542.83,-88.3,3.7,-78.6,-1.27,1.02,-0.05,-0.07,-0.92,0.11
3.4683137179999903,141,1542.84,-88.4,3.8,-78.5,-1.63,1.3,-0.27,-0.1,-0.89,0.11
3.4783428160003496,142,1542.85,-88.6,3.8,-78.4,-1.73,1.65,-0.46,-0.12,-0.84,0.11
3.4880714620003346,143,1542.86,-88.8,3.8,-78.2,-1.51,1.98,-0.6,-0.15,-0.8,0.12
3.4980825679999725,144,1542.87,-88.9,3.9,-78.0,-1.03,2.35,-0.68,-0.16,-0.76,0.1
3.5081935980001617,145,1542.88,-88.9,4.0,-77.7,-0.27,2.79,-0.64,-0.15,-0.72,0.09
3.518143247000353,146,1542.89,-88.9,4.0,-77.4,0.72,3.06,-0.52,-0.12,-0.73,0.11
3.528223971999978,147,1542.9,-88.7,4.1,-77.1,1.61,3.16,-0.43,-0.08,-0.77,0.12
3.5381636179999987,148,1542.91,-88.5,4.1,-76.8,2.17,3.12,-0.35,-0.04,-0.81,0.13
3.5483162640002774,149,1542.92,-88.2,4.1,-76.5,2.6,2.95,-0.19,-0.02,-0.86,0.14
3.5580968439999197,150,1542.93,-87.9,4.1,-76.2,2.88,2.6,0.01,0.01,-0.93,0.18
3.568112585000108,151,1542.94,-87.6,4.1,-76.0,2.8,1.89,0.2,0.05,-1.02,0.22
3.5781067370003257,152,1542.95,-87.4,4.1,-75.8,2.13,0.97,0.36,0.08,-1.1,0.22
3.588424133999979,153,1542.96,-87.2,4.0,-75.8,1.08,0.23,0.51,0.11,-1.12,0.2
3.5982943829999385,154,1542.97,-87.2,4.0,-75.8,-0.12,-0.12,0.66,0.13,-1.08,0.2
3.6081643990000885,155,1542.98,-87.2,3.9,-75.8,-0.61,-0.22,0.76,0.09,-0.99,0.2
3.618239394000284,156,1542.99,-87.2,3.8,-75.8,0.17,-0.02,1.1,0.0,-0.89,0.02
3.6284234340000694,157,1543.0,-87.1,3.6,-75.8,2.93,0.84,2.11,0.06,-0.9,-0.05
3.6381663830002253,158,1543.01,-86.7,3.3,-75.7,4.82,0.97,3.09,0.26,-1.16,0.07
3.648378641000363,159,1543.02,-86.2,3.0,-75.7,5.5,-0.06,3.9,0.33,-1.32,0.23
3.658318987000257,160,1543.03,-85.6,2.5,-75.8,4.91,-1.68,4.88,0.23,-1.42,0.3
3.668193669000175,161,1543.04,-85.2,2.1,-76.1,2.68,-3.21,5.24,0.1,-1.6,0.23
3.6782233930002803,162,1543.05,-85.1,1.6,-76.5,0.49,-3.84,4.44,0.0,-1.63,0.02
3.688419843000247,163,1543.06,-85.2,1.3,-76.9,-0.35,-3.35,2.98,-0.06,-1.57,-0.07
3.698153718999947,164,1543.07,-85.2,1.1,-77.2,0.0,-2.57,1.48,-0.14,-1.46,-0.17
3.708153904000028,165,1543.08,-85.2,1.0,-77.4,0.78,-1.74,0.43,-0.22,-1.31,-0.21
3.7180567499999597,166,1543.09,-85.1,1.0,-77.5,1.15,-0.73,0.02,-0.21,-1.22,-0.32
3.728351130000192,167,1543.1,-85.0,1.0,-77.5,0.48,0.76,-0.05,-0.18,-1.15,-0.44
3.738051585999983,168,1543.11,-85.0,1.0,-77.4,-0.73,2.53,0.08,-0.17,-1.04,-0.41
3.748201987000357,169,1543.12,-85.1,0.9,-77.0,-1.52,3.81,0.45,-0.15,-0.91,-0.31
3.7581164820003323,170,1543.13,-85.2,0.8,-76.6,-1.53,4.57,1.04,-0.12,-0.86,-0.21
3.7680872240002827,171,1543.14,-85.4,0.6,-76.2,-1.55,4.67,1.34,-0.05,-0.92,-0.16
3.778131076000136,172,1543.15,-85.6,0.5,-75.7,-1.93,4.38,1.27,0.03,-0.99,-0.07
3.788207667000279,173,1543.16,-85.8,0.3,-75.3,-2.31,3.9,0.94,0.1,-1.02,-0.04
3.7980112830000508,174,1543.17,-86.0,0.2,-75.0,-2.24,3.44,0.58,0.16,-1.01,0.0
3.8082332409999253,175,1543.18,-86.2,0.2,-74.6,-1.86,2.76,0.23,0.22,-1.02,0.06
3.8180999260002864,176,1543.19,-86.4,0.2,-74.4,-1.47,2.16,-0.19,0.25,-1.01,0.07
3.8284106589999283,177,1543.2,-86.5,0.2,-74.2,-0.82,1.77,-0.63,0.25,-0.99,0.08
3.8381212460003553,178,1543.21,-86.5,0.3,-74.0,-0.19,1.56,-1.1,0.22,-0.98,0.06
3.8482279340000787,179,1543.22,-86.5,0.4,-73.9,0.28,1.47,-1.56,0.17,-0.97,0.06
3.858070626999961,180,1543.23,-86.5,0.6,-73.7,0.74,1.36,-1.95,0.13,-0.98,0.06
3.8680515810001452,181,1543.24,-86.4,0.8,-73.6,1.04,1.29,-2.25,0.09,-0.99,0.03
3.8777994820002277,182,1543.25,-86.3,1.1,-73.4,1.0,1.35,-2.42,0.04,-0.98,0.01
3.8875206360003176,183,1543.26,-86.2,1.3,-73.3,0.55,1.47,-2.4,0.02,-0.96,0.02
3.898046035000334,184,1543.27,-86.2,1.6,-73.1,-0.14,1.54,-2.24,0.02,-0.92,0.05
3.908213548000276,185,1543.28,-86.3,1.8,-72.9,-0.79,1.53,-1.95,0.03,-0.88,0.07
3.9181767310001305,186,1543.29,-86.4,1.9,-72.8,-1.17,1.6,-1.77,0.05,-0.87,0.06
3.9283051219999834,187,1543.3,-86.5,2.1,-72.6,-1.16,1.69,-1.67,0.06,-0.85,0.07
3.9381222040001376,188,1543.31,-86.5,2.3,-72.4,-1.0,1.75,-1.64,0.06,-0.85,0.07
3.948227680999935,189,1543.32,-86.6,2.5,-72.2,-0.91,1.74,-1.64,0.08,-0.85,0.1
3.9580045590000736,190,1543.33,-86.6,2.7,-72.1,-0.78,1.61,-1.58,0.09,-0.84,0.12
3.968174029000238,191,1543.34,-86.7,2.8,-71.9,-0.72,1.44,-1.47,0.11,-0.85,0.13
3.978316396000082,192,1543.35,-86.8,2.9,-71.8,-0.74,1.21,-1.31,0.14,-0.86,0.15
3.988371699000254,193,1543.36,-86.8,3.1,-71.6,-0.86,1.0,-1.13,0.17,-0.86,0.16
3.9983412470000985,194,1543.37,-86.9,3.2,-71.5,-1.02,0.79,-0.94,0.19,-0.84,0.18
4.008162111000274,195,1543.38,-87.0,3.2,-71.5,-1.21,0.56,-0.64,0.19,-0.81,0.23
4.018007317999945,196,1543.39,-87.2,3.3,-71.4,-1.45,0.26,-0.29,0.2,-0.77,0.26
4.0283033290002095,197,1543.4,-87.3,3.3,-71.4,-1.79,-0.08,0.12,0.21,-0.73,0.3
4.03813233100027,198,1543.41,-87.5,3.2,-71.5,-1.94,-0.54,0.5,0.22,-0.73,0.33
4.04810210200003,199,1543.42,-87.7,3.2,-71.5,-1.86,-0.97,0.78,0.23,-0.73,0.31
4.058095526000216,200,1543.43,-87.9,3.1,-71.7,-1.43,-1.31,0.93,0.23,-0.74,0.25
4.068212014999972,201,1543.44,-88.0,3.0,-71.8,-0.71,-1.51,0.91,0.21,-0.79,0.2
4.077980812000078,202,1543.45,-88.0,2.9,-72.0,0.22,-1.57,0.8,0.18,-0.81,0.16
4.088299215999996,203,1543.46,-88.0,2.9,-72.1,1.09,-1.67,0.66,0.14,-0.84,0.15
4.098349236000104,204,1543.47,-87.8,2.8,-72.3,1.78,-1.72,0.48,0.1,-0.89,0.15
4.108035272000052,205,1543.48,-87.6,2.8,-72.5,2.23,-1.6,0.22,0.08,-0.97,0.09
4.118237782000051,206,1543.49,-87.4,2.8,-72.6,2.68,-1.1,-0.23,0.04,-1.06,0.03
4.128427353000006,207,1543.5,-87.1,2.8,-72.7,2.91,-0.33,-0.73,-0.03,-1.1,0.0
4.138093867999942,208,1543.51,-86.8,2.9,-72.7,2.64,0.55,-1.09,-0.09,-1.1,0.03
4.1480112869999175,209,1543.52,-86.6,3.0,-72.6,1.65,1.26,-1.14,-0.12,-1.0,0.16
4.158139726000172,210,1543.53,-86.5,3.1,-72.4,0.82,1.44,-0.76,-0.07,-0.94,0.29
4.168122579000283,211,1543.54,-86.4,3.2,-72.3,0.68,1.09,-0.74,0.02,-1.21,0.25
4.177967224999975,212,1543.55,-86.3,3.3,-72.2,1.07,1.08,-1.78,-0.04,-1.45,0.05
4.188130231000287,213,1543.56,-86.1,3.5,-72.0,2.47,1.9,-2.81,-0.12,-1.54,-0.08
4.198334675000297,214,1543.57,-85.8,3.8,-71.7,3.35,3.05,-3.95,-0.06,-1.72,0.0
4.20805234799991,215,1543.58,-85.5,4.2,-71.4,1.97,3.62,-4.53,-0.01,-1.44,0.04
4.2183046150003065,216,1543.59,-85.4,4.6,-70.9,0.43,4.06,-3.82,0.18,-1.19,-0.01
4.228352924000319,217,1543.6,-85.4,4.8,-70.5,-0.34,3.91,-2.64,0.36,-1.15,0.04
4.237985017000028,218,1543.61,-85.3,5.0,-70.1,0.47,2.75,-1.7,0.39,-1.17,0.06
4.248372421000113,219,1543.62,-85.2,5.1,-69.9,1.52,1.4,-1.03,0.41,-1.27,0.01
4.258061304999956,220,1543.63,-85.0,5.2,-69.9,1.75,-0.18,-0.66,0.43,-1.36,0.06
4.268258310999954,221,1543.64,-84.9,5.3,-70.0,0.54,-1.64,-0.6,0.42,-1.41,0.08
4.278344000000288,222,1543.65,-85.0,5.4,-70.2,-1.33,-3.23,-0.65,0.38,-1.33,0.07
4.28822136000008,223,1543.66,-85.2,5.5,-70.6,-2.7,-4.59,-0.7,0.31,-1.16,0.03
4.297985646000143,224,1543.67,-85.6,5.6,-71.1,-3.38,-5.73,-0.79,0.26,-0.98,-0.04
4.3084186360001695,225,1543.68,-86.0,5.7,-71.7,-3.37,-6.14,-0.88,0.21,-0.84,-0.17
4.318314821000058,226,1543.69,-86.4,5.8,-72.3,-2.91,-5.96,-0.94,0.16,-0.73,-0.19
4.328118209999957,227,1543.7,-86.7,6.0,-72.9,-1.91,-5.71,-0.95,0.12,-0.69,-0.13
4.338135014000272,228,1543.71,-86.9,6.1,-73.5,-0.61,-5.45,-0.93,0.07,-0.72,-0.1
4.348383029000161,229,1543.72,-86.9,6.2,-74.0,0.57,-5.1,-0.82,0.01,-0.77,-0.11
4.35805441399998,230,1543.73,-86.9,6.3,-74.5,1.23,-4.54,-0.57,-0.05,-0.88,-0.12
4.368391074000101,231,1543.74,-86.8,6.4,-74.9,1.16,-4.06,-0.24,-0.13,-0.98,-0.08
4.378355021000061,232,1543.75,-86.8,6.4,-75.3,0.48,-3.6,0.16,-0.19,-1.03,-0.06
4.388058856000043,233,1543.76,-86.8,6.4,-75.6,-0.51,-2.84,0.71,-0.21,-1.01,-0.09
4.398303214999942,234,1543.77,-86.9,6.3,-75.9,-1.27,-2.31,1.11,-0.18,-0.97,-0.05
4.408243538000079,235,1543.78,-87.1,6.2,-76.1,-1.65,-1.99,1.4,-0.15,-0.9,-0.02
4.417968557000222,236,1543.79,-87.3,6.0,-76.3,-1.54,-1.65,1.53,-0.12,-0.86,-0.03
4.4281384710002385,237,1543.8,-87.4,5.9,-76.4,-1.16,-1.17,1.55,-0.08,-0.85,-0.04
4.438336943000195,238,1543.81,-87.5,5.7,-76.5,-0.86,-0.76,1.42,-0.04,-0.87,-0.02
4.448348374000034,239,1543.82,-87.6,5.6,-76.6,-0.73,-0.45,1.16,-0.02,-0.89,0.0
4.458045682999909,240,1543.83,-87.7,5.5,-76.6,-0.77,-0.21,0.9,0.0,-0.91,0.0
4.46841825599995,241,1543.84,-87.8,5.3,-76.6,-0.83,-0.03,0.74,0.0,-0.9,0.01
4.47837579499992,242,1543.85,-87.9,5.2,-76.6,-0.81,0.14,0.72,0.0,-0.88,0.03
4.488058930000079,243,1543.86,-88.0,5.1,-76.6,-0.76,0.34,0.82,0.0,-0.87,0.05
4.498099127999922,244,1543.87,-88.0,4.9,-76.6,-0.62,0.45,0.96,0.01,-0.88,0.07
4.508159805000105,245,1543.88,-88.0,4.8,-76.5,-0.46,0.45,0.99,0.01,-0.91,0.1
4.5179745880000155,246,1543.89,-88.1,4.7,-76.5,-0.3,0.39,0.9,0.01,-0.93,0.13
4.528405889000169,247,1543.9,-88.1,4.6,-76.5,-0.21,0.3,0.73,0.0,-0.94,0.15
4.538131319000058,248,1543.91,-88.1,4.6,-76.4,-0.26,0.23,0.54,0.0,-0.93,0.16
4.548083778000091,249,1543.92,-88.2,4.5,-76.4,-0.45,0.25,0.32,-0.01,-0.92,0.16
4.558320224999989,250,1543.93,-88.2,4.5,-76.4,-0.76,0.33,0.14,-0.03,-0.9,0.16
4.568435562000104,251,1543.94,-88.3,4.5,-76.3,-1.09,0.51,-0.07,-0.05,-0.88,0.16
4.577962941000351,252,1543.95,-88.4,4.5,-76.3,-1.29,0.75,-0.28,-0.08,-0.83,0.15
4.588260348999938,253,1543.96,-88.5,4.6,-76.2,-1.1,1.1,-0.41,-0.11,-0.79,0.13
4.598119675000362,254,1543.97,-88.6,4.6,-76.0,-0.57,1.5,-0.52,-0.12,-0.76,0.12
4.60800904000007,255,1543.98,-88.6,4.7,-75.9,0.26,1.86,-0.52,-0.13,-0.73,0.12
4.61829202600029,256,1543.99,-88.5,4.7,-75.7,1.2,2.08,-0.48,-0.12,-0.74,0.11
4.628426763000334,257,1544.0,-88.3,4.7,-75.4,1.81,2.19,-0.44,-0.1,-0.76,0.15
4.637992058000236,258,1544.01,-88.1,4.8,-75.2,2.28,1.99,-0.33,-0.08,-0.78,0.18
4.648364525000034,259,1544.02,-87.8,4.8,-75.0,2.58,1.82,-0.19,-0.05,-0.82,0.14
4.658102018000136,260,1544.03,-87.6,4.8,-74.9,2.89,1.66,0.06,0.0,-0.86,0.12
4.668032770000082,261,1544.04,-87.2,4.8,-74.7,3.1,1.24,0.31,0.06,-0.95,0.16
4.678368131000298,262,1544.05,-86.9,4.7,-74.6,2.7,0.42,0.38,0.12,-1.05,0.19
4.688222423000298,263,1544.06,-86.7,4.7,-74.6,1.56,-0.45,0.32,0.14,-1.08,0.18
4.697978246000275,264,1544.07,-86.6,4.7,-74.7,0.31,-1.03,0.28,0.17,-1.05,0.2
4.708175877000031,265,1544.08,-86.6,4.6,-74.8,-0.43,-1.21,0.22,0.14,-0.97,0.2
4.718317904000287,266,1544.09,-86.7,4.6,-75.0,-0.07,-1.05,0.26,0.05,-0.88,0.05
4.728112195999984,267,1544.1,-86.6,4.6,-75.0,2.24,0.08,0.96,0.01,-0.82,-0.13
4.738063122000312,268,1544.11,-86.2,4.4,-75.0,4.69,0.82,1.9,0.18,-1.05,-0.02
4.748217409000063,269,1544.12,-85.7,4.2,-74.9,5.57,0.58,2.66,0.22,-1.23,0.23
4.758044612000049,270,1544.13,-85.1,3.9,-75.0,5.97,-1.07,3.83,0.1,-1.31,0.34
4.768120999000075,271,1544.14,-84.5,3.4,-75.2,5.47,-2.52,5.07,-0.02,-1.54,0.17
4.77829022800006,272,1544.15,-84.1,2.9,-75.5,2.9,-2.93,5.16,-0.06,-1.83,-0.03
4.788229394000155,273,1544.16,-84.0,2.5,-75.8,0.14,-2.41,3.98,-0.03,-1.89,-0.12
4.79802567500019,274,1544.17,-84.1,2.2,-76.1,-1.29,-1.71,2.48,-0.1,-1.7,-0.15
4.808238702999915,275,1544.18,-84.2,2.0,-76.2,-1.2,-0.87,1.44,-0.18,-1.46,-0.25
4.818248393999966,276,1544.19,-84.3,1.9,-76.3,-0.64,0.29,0.98,-0.18,-1.26,-0.31
4.828033613000116,277,1544.2,-84.4,1.8,-76.2,-0.63,1.4,0.88,-0.14,-1.16,-0.3
4.83816845399997,278,1544.21,-84.4,1.7,-76.0,-1.04,2.45,0.95,-0.1,-1.09,-0.33
4.848415176000344,279,1544.22,-84.6,1.6,-75.7,-1.58,3.58,1.08,-0.09,-1.01,-0.33
4.857996537999952,280,1544.23,-84.7,1.4,-75.3,-2.01,4.31,1.3,-0.09,-0.95,-0.28
4.868388342000344,281,1544.24,-84.9,1.2,-74.9,-2.38,4.85,1.52,-0.07,-0.91,-0.21
4.878089168000315,282,1544.25,-85.2,1.0,-74.4,-2.74,4.71,1.6,-0.01,-0.9,-0.07
4.887909511000089,283,1544.26,-85.5,0.8,-74.0,-3.07,4.25,1.46,0.03,-0.91,-0.01
4.898238123000283,284,1544.27,-85.9,0.7,-73.6,-3.06,3.93,1.1,0.09,-0.92,0.0
4.908210765000149,285,1544.28,-86.1,0.6,-73.2,-2.55,3.59,0.61,0.15,-0.95,0.05
4.91803813200022,286,1544.29,-86.4,0.5,-72.9,-1.99,3.09,0.04,0.22,-0.97,0.1
4.928406578000249,287,1544.3,-86.5,0.5,-72.6,-1.59,2.5,-0.38,0.26,-0.98,0.11
4.938183621000007,288,1544.31,-86.7,0.6,-72.4,-1.24,1.93,-0.65,0.29,-0.99,0.11
4.948083019000023,289,1544.32,-86.8,0.7,-72.2,-1.19,1.36,-0.92,0.3,-1.03,0.1
4.958273310000095,290,1544.33,-86.9,0.8,-72.1,-1.23,0.9,-1.25,0.28,-1.03,0.1
4.968418294999992,291,1544.34,-87.0,0.9,-72.0,-1.17,0.49,-1.56,0.23,-0.99,0.09
4.978089930000351,292,1544.35,-87.1,1.1,-72.0,-0.98,0.16,-1.81,0.19,-0.94,0.08
4.988222931000109,293,1544.36,-87.2,1.3,-72.0,-0.82,-0.07,-1.97,0.15,-0.9,0.07
4.9983313190000445,294,1544.37,-87.3,1.5,-72.0,-0.84,-0.28,-1.99,0.12,-0.88,0.07
5.008100015000309,295,1544.38,-87.4,1.7,-72.0,-1.04,-0.43,-1.87,0.11,-0.87,0.07
5.018072296000355,296,1544.39,-87.5,1.9,-72.0,-1.38,-0.52,-1.67,0.1,-0.89,0.1
5.028415954000138,297,1544.4,-87.6,2.1,-72.1,-1.68,-0.65,-1.47,0.1,-0.93,0.1
5.037968656999965,298,1544.41,-87.8,2.2,-72.1,-1.93,-0.62,-1.31,0.1,-0.93,0.11
5.048194558999967,299,1544.42,-88.0,2.4,-72.2,-2.05,-0.68,-1.16,0.1,-0.93,0.13
5.058103185000164,300,1544.43,-88.2,2.5,-72.3,-2.15,-0.77,-1.01,0.09,-0.92,0.13
5.068390627000099,301,1544.44,-88.4,2.6,-72.4,-2.13,-0.94,-0.89,0.09,-0.9,0.15
5.078021997000178,302,1544.45,-88.6,2.6,-72.5,-1.98,-1.16,-0.78,0.1,-0.88,0.16
5.088242692000222,303,1544.46,-88.8,2.7,-72.6,-1.67,-1.34,-0.67,0.1,-0.87,0.16
5.09807032100025,304,1544.47,-89.0,2.8,-72.7,-1.34,-1.43,-0.58,0.1,-0.86,0.14
5.108213447000253,305,1544.48,-89.1,2.8,-72.9,-1.15,-1.44,-0.49,0.11,-0.85,0.15
5.118066807000105,306,1544.49,-89.2,2.9,-73.0,-1.13,-1.45,-0.33,0.12,-0.82,0.16
5.128273365000041,307,1544.5,-89.4,2.9,-73.2,-1.34,-1.56,-0.06,0.14,-0.78,0.21
5.138027218999923,308,1544.51,-89.5,2.9,-73.3,-1.6,-1.86,0.31,0.18,-0.73,0.25
5.148388174000047,309,1544.52,-89.7,2.8,-73.5,-1.69,-2.28,0.7,0.22,-0.7,0.29
5.158061443999941,310,1544.53,-89.9,2.8,-73.8,-1.46,-2.81,1.03,0.25,-0.68,0.29
5.167934989000059,311,1544.54,-90.0,2.6,-74.1,-0.87,-3.23,1.15,0.26,-0.72,0.24
5.178166233999946,312,1544.55,-90.1,2.5,-74.5,0.14,-3.54,1.02,0.23,-0.76,0.21
5.188159119999909,313,1544.56,-90.0,2.4,-74.8,1.25,-3.65,0.75,0.17,-0.8,0.15
5.198113041999932,314,1544.57,-89.8,2.4,-75.2,2.31,-3.61,0.47,0.13,-0.86,0.12
5.208363490000011,315,1544.58,-89.6,2.4,-75.5,3.03,-3.43,0.19,0.09,-0.91,0.08
5.218026579000252,316,1544.59,-89.2,2.4,-75.9,3.38,-3.14,-0.06,0.03,-0.95,0.05
5.228055028000199,317,1544.6,-88.9,2.4,-76.1,3.56,-2.63,-0.27,-0.03,-1.01,0.01
5.238066527000228,318,1544.61,-88.5,2.4,-76.4,3.56,-1.94,-0.49,-0.11,-1.06,-0.03
5.248391707000337,319,1544.62,-88.2,2.4,-76.5,3.35,-0.83,-0.74,-0.18,-1.09,-0.07
5.258037085000069,320,1544.63,-87.9,2.5,-76.5,2.55,0.46,-0.85,-0.23,-1.05,-0.01
5.268230899000173,321,1544.64,-87.7,2.6,-76.4,1.51,1.47,-0.62,-0.2,-0.96,0.16
5.278313384000285,322,1544.65,-87.6,2.6,-76.2,0.89,1.73,-0.18,-0.09,-0.97,0.27
5.288079306000327,323,1544.66,-87.5,2.6,-76.1,1.38,1.45,-0.32,0.01,-1.24,0.21
5.29813636200015,324,1544.67,-87.2,2.7,-75.9,2.4,1.53,-1.2,-0.07,-1.4,0.0
5.30821429200023,325,1544.68,-86.9,2.8,-75.7,3.76,2.49,-2.1,-0.09,-1.57,-0.09
5.317976455999997,326,1544.69,-86.5,3.1,-75.4,3.58,3.47,-3.46,0.01,-1.74,0.03
5.328157662000194,327,1544.7,-86.3,3.5,-75.0,1.69,3.83,-4.16,0.1,-1.37,0.07
5.338162949999969,328,1544.71,-86.1,3.8,-74.6,0.69,4.03,-3.42,0.28,-1.12,0.03
5.348171336000178,329,1544.72,-86.0,4.1,-74.2,0.83,3.69,-2.65,0.39,-1.15,0.05
5.358239982000214,330,1544.73,-85.9,4.3,-73.8,1.47,2.71,-2.04,0.41,-1.19,0.04
5.368390956999974,331,1544.74,-85.7,4.5,-73.6,1.83,1.51,-1.58,0.43,-1.27,0.0
5.378290229999948,332,1544.75,-85.5,4.6,-73.5,1.38,0.16,-1.33,0.45,-1.31,0.0
5.3884126100001595,333,1544.76,-85.5,4.7,-73.6,0.23,-1.11,-1.2,0.42,-1.32,0.06
5.3983275909999975,334,1544.77,-85.5,4.9,-73.8,-1.2,-2.73,-1.25,0.35,-1.27,0.09
5.408158776000164,335,1544.78,-85.7,5.0,-74.1,-2.32,-4.21,-1.35,0.26,-1.12,0.04
5.418254541000351,336,1544.79,-86.1,5.2,-74.6,-2.72,-5.28,-1.43,0.21,-0.97,-0.06
5.428215005000311,337,1544.8,-86.4,5.4,-75.1,-2.45,-5.54,-1.55,0.17,-0.86,-0.2
5.43816545000027,338,1544.81,-86.6,5.6,-75.7,-2.0,-5.11,-1.66,0.11,-0.81,-0.23
5.448363127999983,339,1544.82,-86.9,5.8,-76.1,-1.32,-4.6,-1.61,0.06,-0.79,-0.19
5.458306193000226,340,1544.83,-87.0,6.0,-76.6,-0.44,-4.26,-1.42,0.02,-0.81,-0.14
5.468205412000316,341,1544.84,-87.0,6.1,-77.0,0.09,-3.99,-1.03,-0.03,-0.85,-0.14
5.47805366700004,342,1544.85,-87.1,6.2,-77.3,0.02,-3.58,-0.52,-0.09,-0.91,-0.15
5.488375812999948,343,1544.86,-87.1,6.2,-77.7,-0.62,-3.11,-0.02,-0.16,-0.95,-0.13
5.498149549000118,344,1544.87,-87.3,6.2,-78.0,-1.52,-2.39,0.52,-0.23,-0.94,-0.13
5.508097224000267,345,1544.88,-87.5,6.2,-78.2,-1.91,-1.62,0.97,-0.25,-0.9,-0.11
5.51806317799992,346,1544.89,-87.7,6.0,-78.3,-1.66,-1.02,1.3,-0.24,-0.88,-0.09
5.528394038999977,347,1544.9,-87.8,5.9,-78.4,-1.12,-0.48,1.47,-0.2,-0.87,-0.08
5.537961080000059,348,1544.91,-87.9,5.8,-78.4,-0.52,0.01,1.56,-0.17,-0.85,-0.09
5.5484428200002185,349,1544.92,-87.9,5.6,-78.4,-0.24,0.6,1.57,-0.13,-0.86,-0.08
5.558071401000234,350,1544.93,-87.9,5.4,-78.3,-0.34,1.04,1.59,-0.08,-0.88,-0.04
5.568090923999989,351,1544.94,-88.0,5.3,-78.2,-0.69,1.26,1.51,-0.04,-0.91,0.0
5.578176012000313,352,1544.95,-88.1,5.1,-78.0,-1.1,1.36,1.35,-0.01,-0.93,0.02
5.588247277999926,353,1544.96,-88.2,4.9,-77.9,-1.28,1.45,1.16,0.0,-0.92,0.04
5.598118914000224,354,1544.97,-88.3,4.8,-77.8,-1.16,1.51,1.0,0.02,-0.9,0.08
5.60834505899993,355,1544.98,-88.3,4.6,-77.6,-0.92,1.5,0.84,0.04,-0.89,0.11
5.618341718000011,356,1544.99,-88.3,4.5,-77.5,-0.54,1.43,0.68,0.05,-0.9,0.13
5.628393896000034,357,1545.0,-88.3,4.5,-77.3,-0.03,1.33,0.48,0.06,-0.92,0.13
5.637967260000096,358,1545.01,-88.2,4.4,-77.2,0.37,1.23,0.24,0.06,-0.95,0.14
5.648433345000285,359,1545.02,-88.1,4.4,-77.1,0.5,1.09,0.03,0.05,-0.96,0.16
5.658080001000144,360,1545.03,-88.0,4.4,-77.0,0.28,0.97,-0.13,0.03,-0.95,0.15
5.6679603709999355,361,1545.04,-88.0,4.4,-76.9,-0.01,0.96,-0.23,0.01,-0.95,0.15
5.677978944000188,362,1545.05,-88.0,4.5,-76.8,-0.34,1.02,-0.34,0.0,-0.93,0.15
5.688198976999956,363,1545.06,-88.1,4.5,-76.6,-0.75,1.2,-0.47,-0.02,-0.9,0.13
5.698235678999936,364,1545.07,-88.2,4.5,-76.5,-1.01,1.44,-0.58,-0.05,-0.86,0.14
5.7082412849999855,365,1545.08,-88.3,4.6,-76.3,-1.04,1.71,-0.67,-0.1,-0.82,0.14
5.718036883999957,366,1545.09,-88.3,4.7,-76.2,-0.72,1.99,-0.65,-0.13,-0.78,0.14
5.728332650000084,367,1545.1,-88.4,4.7,-75.9,-0.15,2.22,-0.56,-0.13,-0.75,0.12
5.738134016000004,368,1545.11,-88.3,4.8,-75.7,0.69,2.42,-0.48,-0.1,-0.77,0.11
5.7483045070002845,369,1545.12,-88.2,4.8,-75.5,1.4,2.51,-0.45,-0.06,-0.81,0.11
5.757968947000336,370,1545.13,-88.0,4.8,-75.2,1.79,2.45,-0.49,-0.03,-0.84,0.13
5.7683874070003185,371,1545.14,-87.8,4.9,-75.0,2.11,2.29,-0.4,0.0,-0.85,0.13
5.778350862000025,372,1545.15,-87.5,4.9,-74.7,2.24,2.06,-0.22,0.04,-0.88,0.14
5.788026438000088,373,1545.16,-87.3,4.9,-74.6,2.22,1.65,-0.01,0.1,-0.94,0.19
5.798089644000356,374,1545.17,-87.1,4.9,-74.4,1.93,0.93,0.15,0.14,-1.0,0.2
5.8081944020000265,375,1545.18,-86.9,4.9,-74.4,1.16,0.13,0.29,0.17,-1.03,0.18
5.817977083000187,376,1545.19,-86.8,4.8,-74.4,0.15,-0.42,0.44,0.18,-1.02,0.18
5.828422559000046,377,1545.2,-86.9,4.8,-74.5,-0.22,-0.49,0.6,0.17,-0.95,0.16
5.83814054100003,378,1545.21,-86.9,4.7,-74.5,0.44,-0.13,0.89,0.12,-0.9,-0.02
5.848082100000283,379,1545.22,-86.7,4.6,-74.5,2.59,1.08,1.72,0.18,-0.93,-0.08
5.858292747000178,380,1545.23,-86.3,4.4,-74.3,4.1,1.44,2.49,0.33,-1.17,0.07
5.868403644999944,381,1545.24,-85.9,4.1,-74.2,4.91,0.4,3.18,0.35,-1.32,0.34
5.877967854999952,382,1545.25,-85.4,3.7,-74.4,4.67,-1.83,4.23,0.18,-1.43,0.33
5.8882515919999605,383,1545.26,-85.0,3.3,-74.7,2.96,-3.0,4.84,-0.02,-1.62,0.07
5.897894125000221,384,1545.27,-84.8,2.8,-75.0,1.22,-2.93,4.55,-0.13,-1.65,-0.13
5.907517183999971,385,1545.28,-84.8,2.4,-75.3,0.2,-2.07,3.63,-0.16,-1.64,-0.16
5.917671369000345,386,1545.29,-84.8,2.1,-75.5,0.01,-1.3,2.54,-0.21,-1.54,-0.18
5.92811799600031,387,1545.3,-84.8,1.9,-75.6,0.13,-0.58,1.8,-0.24,-1.39,-0.21
5.938271726000039,388,1545.31,-84.8,1.8,-75.6,-0.36,0.06,1.48,-0.17,-1.31,-0.25
5.948063215000275,389,1545.32,-84.9,1.6,-75.6,-1.39,0.91,1.27,-0.08,-1.22,-0.31
5.958067802000187,390,1545.33,-85.1,1.5,-75.4,-2.5,1.99,1.08,-0.01,-1.08,-0.35
5.96835041300028,391,1545.34,-85.4,1.4,-75.2,-3.13,2.95,1.04,-0.02,-0.91,-0.33
5.977980575999936,392,1545.35,-85.7,1.2,-74.9,-2.89,3.93,1.11,-0.03,-0.81,-0.32
5.988236871000026,393,1545.36,-85.9,1.1,-74.4,-2.52,4.32,1.21,-0.02,-0.77,-0.16
5.998329713000203,394,1545.37,-86.1,0.9,-74.0,-2.06,3.95,1.21,-0.01,-0.8,-0.03
6.007977212000242,395,1545.38,-86.4,0.8,-73.7,-1.73,3.45,1.0,0.01,-0.88,0.0
6.018239969000206,396,1545.39,-86.6,0.7,-73.4,-1.36,3.04,0.65,0.05,-0.94,0.01
6.028391812000336,397,1545.4,-86.7,0.7,-73.1,-1.07,2.73,0.39,0.11,-0.98,0.02
6.037925732000076,398,1545.41,-86.8,0.7,-72.8,-1.13,2.38,0.22,0.18,-1.01,0.05
6.048451853000188,399,1545.42,-86.9,0.6,-72.6,-1.59,2.04,0.11,0.24,-1.03,0.06
6.058096943000237,400,1545.43,-87.1,0.6,-72.4,-2.04,1.7,-0.02,0.28,-1.04,0.08
6.068240913999944,401,1545.44,-87.3,0.6,-72.3,-2.1,1.23,-0.25,0.29,-1.01,0.1
6.078279597000346,402,1545.45,-87.5,0.7,-72.2,-1.66,0.79,-0.54,0.28,-0.97,0.09
6.088227215000188,403,1545.46,-87.6,0.7,-72.1,-0.89,0.4,-0.8,0.25,-0.93,0.08
6.0979939250000825,404,1545.47,-87.7,0.8,-72.1,-0.24,0.08,-1.0,0.22,-0.92,0.06
6.108396623000317,405,1545.48,-87.7,0.9,-72.1,0.01,-0.17,-1.1,0.19,-0.92,0.06
6.118207729999995,406,1545.49,-87.7,1.0,-72.1,-0.05,-0.41,-1.09,0.16,-0.93,0.06
6.127972937000322,407,1545.5,-87.7,1.2,-72.2,-0.31,-0.63,-1.08,0.13,-0.94,0.06
6.138154983000277,408,1545.51,-87.8,1.3,-72.2,-0.58,-0.8,-1.12,0.09,-0.94,0.07
6.14840528600007,409,1545.52,-87.8,1.5,-72.3,-0.62,-0.87,-1.19,0.07,-0.92,0.07
6.15799214100025,410,1545.53,-87.8,1.6,-72.4,-0.45,-0.88,-1.26,0.04,-0.9,0.08
6.168396883000241,411,1545.54,-87.8,1.8,-72.5,-0.29,-0.88,-1.29,0.03,-0.89,0.1
6.1783456510002,412,1545.55,-87.8,1.9,-72.6,-0.23,-0.87,-1.27,0.03,-0.89,0.12
6.188067444000353,413,1545.56,-87.8,2.0,-72.6,-0.26,-0.84,-1.15,0.05,-0.89,0.12
6.198050147000231,414,1545.57,-87.7,2.1,-72.7,-0.37,-0.74,-0.97,0.07,-0.88,0.13
6.208241944000292,415,1545.58,-87.8,2.2,-72.8,-0.49,-0.62,-0.74,0.09,-0.89,0.13
6.218015075000039,416,1545.59,-87.9,2.3,-72.8,-0.71,-0.46,-0.51,0.1,-0.89,0.15
6.2281571250000525,417,1545.6,-87.9,2.3,-72.9,-0.97,-0.36,-0.26,0.11,-0.86,0.17
6.23811998400015,418,1545.61,-88.1,2.3,-72.9,-1.32,-0.36,0.04,0.12,-0.82,0.19
6.247971495000002,419,1545.62,-88.2,2.3,-73.0,-1.68,-0.49,0.4,0.12,-0.76,0.22
6.258023756000057,420,1545.63,-88.4,2.3,-73.0,-1.8,-0.79,0.74,0.14,-0.72,0.25
6.268370197999957,421,1545.64,-88.6,2.2,-73.1,-1.53,-1.15,0.94,0.17,-0.7,0.25
6.278328050000255,422,1545.65,-88.7,2.1,-73.3,-1.01,-1.44,0.97,0.19,-0.72,0.23
6.288011862000076,423,1545.66,-88.8,2.0,-73.4,-0.26,-1.69,0.81,0.18,-0.74,0.19
6.298217163000118,424,1545.67,-88.7,1.9,-73.6,0.79,-1.74,0.54,0.16,-0.76,0.15
6.308112703000006,425,1545.68,-88.6,1.9,-73.8,1.75,-1.74,0.36,0.14,-0.79,0.16
6.317959408000206,426,1545.69,-88.4,1.9,-73.9,2.38,-1.72,0.25,0.12,-0.85,0.14
6.328386446999957,427,1545.7,-88.2,1.9,-74.1,2.59,-1.63,0.11,0.1,-0.9,0.11
6.338149891000285,428,1545.71,-87.9,1.9,-74.3,2.67,-1.4,-0.03,0.04,-0.95,0.05
6.347989601000336,429,1545.72,-87.6,1.9,-74.4,2.77,-0.84,-0.15,-0.01,-0.99,0.0
6.358319444000244,430,1545.73,-87.4,1.9,-74.4,2.84,-0.16,-0.25,-0.07,-1.04,0.0
6.368353870000192,431,1545.74,-87.1,1.9,-74.4,2.62,0.61,-0.31,-0.11,-1.04,0.06
6.377996767000241,432,1545.75,-86.8,1.9,-74.3,2.15,1.2,-0.17,-0.11,-1.0,0.18
6.388371283000197,433,1545.76,-86.7,1.9,-74.2,1.63,1.43,0.11,-0.04,-1.0,0.29
6.398033284000121,434,1545.77,-86.5,1.9,-74.0,1.47,1.1,0.13,0.05,-1.18,0.31
6.40799955500006,435,1545.78,-86.3,1.9,-74.0,2.07,0.66,-0.63,0.02,-1.42,0.19
6.418063127000096,436,1545.79,-86.0,2.0,-73.9,3.18,1.25,-1.83,-0.07,-1.59,0.01
6.428291633000299,437,1545.8,-85.7,2.2,-73.7,4.12,2.1,-3.44,-0.03,-1.85,0.01
6.438058791000003,438,1545.81,-85.3,2.6,-73.4,3.36,2.78,-5.12,0.0,-1.74,-0.01
6.448324673000116,439,1545.82,-85.1,3.1,-73.0,1.43,3.72,-5.56,0.1,-1.43,-0.12
6.458106726000096,440,1545.83,-85.0,3.6,-72.6,0.58,4.21,-4.94,0.21,-1.25,-0.03
6.468046412000149,441,1545.84,-84.9,4.0,-72.1,0.44,3.65,-3.86,0.25,-1.17,0.03
6.477985254000032,442,1545.85,-84.8,4.3,-71.8,0.17,2.74,-2.75,0.36,-1.15,-0.02
6.488253964000251,443,1545.86,-84.9,4.5,-71.5,-0.47,1.6,-1.72,0.47,-1.11,0.0
6.498012495000239,444,1545.87,-84.9,4.6,-71.5,-0.98,-0.02,-0.91,0.47,-1.12,0.11
6.508093459000065,445,1545.88,-85.1,4.7,-71.6,-1.87,-1.86,-0.47,0.4,-1.12,0.09
6.518035453000266,446,1545.89,-85.3,4.7,-71.8,-2.49,-3.64,-0.3,0.33,-1.06,0.05
6.52837100700026,447,1545.9,-85.6,4.8,-72.3,-2.67,-5.07,-0.33,0.29,-0.98,-0.03
6.538054097999975,448,1545.91,-85.9,4.9,-72.8,-2.67,-5.79,-0.61,0.25,-0.93,-0.14
6.548243759000343,449,1545.92,-86.2,5.0,-73.4,-2.56,-5.86,-0.98,0.2,-0.84,-0.15
6.557996154000193,450,1545.93,-86.5,5.1,-74.0,-2.03,-5.75,-1.22,0.15,-0.8,-0.12
6.5681196000000455,451,1545.94,-86.7,5.3,-74.6,-1.11,-5.55,-1.34,0.1,-0.8,-0.11
6.578183723000166,452,1545.95,-86.8,5.5,-75.1,-0.1,-5.22,-1.27,0.03,-0.82,-0.13
6.588244938000116,453,1545.96,-86.9,5.6,-75.6,0.52,-4.8,-0.97,-0.03,-0.87,-0.12
6.598021533000065,454,1545.97,-86.9,5.7,-76.0,0.47,-4.38,-0.58,-0.12,-0.95,-0.1
6.608242102000077,455,1545.98,-86.9,5.8,-76.4,-0.08,-3.72,-0.1,-0.21,-0.97,-0.1
6.618318615000135,456,1545.99,-86.9,5.8,-76.8,-0.52,-2.96,0.38,-0.26,-0.97,-0.09
6.628050146000078,457,1546.0,-87.0,5.7,-77.0,-0.84,-2.23,0.81,-0.25,-0.95,-0.06
6.638151258000107,458,1546.01,-87.2,5.6,-77.2,-1.0,-1.66,1.13,-0.2,-0.91,-0.03
6.648227741000028,459,1546.02,-87.3,5.5,-77.4,-1.05,-1.23,1.37,-0.14,-0.88,-0.02
6.658023476999915,460,1546.03,-87.4,5.4,-77.5,-0.88,-0.84,1.49,-0.1,-0.89,-0.02
6.668370573000175,461,1546.04,-87.5,5.2,-77.6,-0.8,-0.45,1.47,-0.05,-0.89,-0.02
6.678210359000332,462,1546.05,-87.6,5.1,-77.6,-0.83,-0.17,1.4,-0.01,-0.9,0.0
6.688163908000206,463,1546.06,-87.7,4.9,-77.6,-0.97,0.02,1.29,0.0,-0.91,0.01
6.698208787000112,464,1546.07,-87.8,4.7,-77.6,-1.1,0.1,1.17,0.01,-0.91,0.03
6.708122595000077,465,1546.08,-87.9,4.6,-77.6,-1.2,0.08,1.04,0.02,-0.91,0.04
6.71805256100015,466,1546.09,-88.0,4.5,-77.6,-1.26,0.12,0.94,0.03,-0.9,0.04
6.72804874700023,467,1546.1,-88.1,4.4,-77.6,-1.23,0.21,0.88,0.03,-0.89,0.04
6.738066468999932,468,1546.11,-88.2,4.3,-77.6,-1.0,0.3,0.83,0.04,-0.91,0.06
6.748104140000123,469,1546.12,-88.3,4.2,-77.5,-0.8,0.35,0.69,0.03,-0.94,0.09
6.758076149000317,470,1546.13,-88.3,4.1,-77.5,-0.76,0.34,0.51,0.02,-0.97,0.12
6.768408632000046,471,1546.14,-88.4,4.0,-77.5,-0.98,0.27,0.32,0.0,-0.97,0.13
6.777966229999947,472,1546.15,-88.5,4.0,-77.4,-1.26,0.23,0.19,-0.01,-0.95,0.13
6.7882005629999185,473,1546.16,-88.6,4.0,-77.4,-1.67,0.3,0.09,-0.02,-0.92,0.11
6.798326664000342,474,1546.17,-88.8,4.0,-77.4,-1.98,0.46,-0.06,-0.04,-0.89,0.12
6.807945605999976,475,1546.18,-89.0,4.0,-77.3,-2.08,0.64,-0.22,-0.06,-0.85,0.11
6.81785066700013,476,1546.19,-89.2,4.0,-77.2,-1.89,0.92,-0.37,-0.09,-0.79,0.11
6.827535223000268,477,1546.2,-89.4,4.1,-77.1,-1.38,1.22,-0.49,-0.11,-0.75,0.1
6.8378357710003,478,1546.21,-89.5,4.1,-77.0,-0.45,1.62,-0.56,-0.12,-0.73,0.09
6.84814905300027,479,1546.22,-89.4,4.2,-76.8,0.67,2.0,-0.54,-0.11,-0.73,0.09
6.858035781000126,480,1546.23,-89.3,4.2,-76.6,1.56,2.09,-0.51,-0.09,-0.79,0.13
6.868384328000047,481,1546.24,-89.1,4.3,-76.4,2.03,2.03,-0.52,-0.06,-0.86,0.15
6.878100860000359,482,1546.25,-88.9,4.3,-76.2,2.16,1.88,-0.45,-0.05,-0.9,0.13
6.888231828000244,483,1546.26,-88.6,4.4,-76.0,2.16,1.75,-0.25,-0.02,-0.93,0.12
6.898166030000084,484,1546.27,-88.4,4.4,-75.8,2.08,1.51,0.03,0.01,-0.97,0.13
6.907973631000004,485,1546.28,-88.2,4.3,-75.7,1.91,1.01,0.26,0.08,-1.03,0.15
6.918295873000261,486,1546.29,-88.0,4.3,-75.6,1.25,0.47,0.34,0.12,-1.06,0.16
6.928204495000045,487,1546.3,-87.9,4.3,-75.6,0.29,-0.02,0.32,0.16,-1.04,0.2
6.937929897000231,488,1546.31,-87.9,4.3,-75.6,-0.29,-0.25,0.19,0.15,-0.98,0.22
6.948214810000081,489,1546.32,-87.9,4.2,-75.7,-0.07,-0.3,0.03,0.09,-0.93,0.15
6.958064980000017,490,1546.33,-87.9,4.2,-75.7,1.72,0.31,0.56,0.01,-0.81,-0.07
6.968071765000332,491,1546.34,-87.6,4.1,-75.6,4.46,1.01,1.66,0.15,-1.0,-0.01
6.9781112240002585,492,1546.35,-87.0,3.9,-75.5,5.49,0.73,2.63,0.29,-1.23,0.1
6.988251171000229,493,1546.36,-86.5,3.6,-75.5,5.76,-0.5,3.97,0.29,-1.35,0.22
6.998029657000188,494,1546.37,-85.9,3.1,-75.7,4.48,-2.25,5.31,0.28,-1.59,0.23
7.008161752999968,495,1546.38,-85.7,2.6,-76.0,0.85,-3.38,5.25,0.14,-1.83,0.07
7.018261943000198,496,1546.39,-85.8,2.2,-76.4,-1.98,-3.46,3.98,0.0,-1.71,-0.17
7.028009481000026,497,1546.4,-86.1,1.9,-76.7,-2.49,-2.38,2.48,-0.17,-1.48,-0.29
7.038051138000355,498,1546.41,-86.3,1.7,-76.9,-0.5,-1.19,1.32,-0.27,-1.28,-0.31
7.048290188999999,499,1546.42,-86.2,1.6,-77.0,1.23,-0.16,0.51,-0.32,-1.22,-0.35
7.0579712740000105,500,1546.43,-86.1,1.6,-76.9,1.45,1.11,0.12,-0.34,-1.14,-0.37
7.0681958630002555,501,1546.44,-85.9,1.6,-76.7,0.6,2.64,0.3,-0.27,-1.08,-0.42
7.078281366000283,502,1546.45,-85.9,1.5,-76.4,-0.66,4.05,0.74,-0.18,-1.03,-0.35
7.08820471800027,503,1546.46,-86.1,1.4,-75.9,-2.14,4.92,1.26,-0.11,-0.95,-0.24
7.098021804999917,504,1546.47,-86.3,1.2,-75.4,-2.97,5.42,1.6,-0.07,-0.91,-0.24
7.108171014000163,505,1546.48,-86.6,1.0,-74.9,-3.23,5.63,1.82,0.0,-0.87,-0.16
7.118325324000125,506,1546.49,-87.0,0.7,-74.3,-3.39,5.36,1.87,0.08,-0.87,-0.05
7.128263600000082,507,1546.5,-87.3,0.5,-73.9,-3.51,4.77,1.71,0.14,-0.88,0.0
7.138118509999913,508,1546.51,-87.6,0.4,-73.4,-3.07,4.1,1.4,0.2,-0.9,0.04
7.148225461000038,509,1546.52,-87.9,0.2,-73.1,-2.25,3.33,1.0,0.26,-0.94,0.07
7.158259960000123,510,1546.53,-88.1,0.1,-72.8,-1.56,2.68,0.52,0.3,-0.98,0.07
7.168421627000043,511,1546.54,-88.2,0.1,-72.5,-1.24,2.09,0.07,0.32,-0.98,0.08
7.178287877999992,512,1546.55,-88.3,0.1,-72.3,-1.04,1.55,-0.27,0.31,-0.99,0.09
7.188353820999964,513,1546.56,-88.4,0.2,-72.2,-0.87,1.11,-0.63,0.27,-0.99,0.06
7.198333930999979,514,1546.57,-88.5,0.2,-72.1,-0.56,0.88,-0.97,0.21,-0.97,0.02
7.2080771959999765,515,1546.58,-88.5,0.4,-72.0,-0.14,0.77,-1.21,0.16,-0.95,0.0
7.218231473000287,516,1546.59,-88.5,0.5,-72.0,-0.01,0.64,-1.29,0.12,-0.93,0.0
7.22822896300022,517,1546.6,-88.6,0.7,-71.9,-0.3,0.45,-1.21,0.1,-0.92,0.01
7.238114815000245,518,1546.61,-88.6,0.9,-71.9,-0.83,0.24,-1.04,0.09,-0.9,0.02
7.248345684000014,519,1546.62,-88.7,1.0,-71.9,-1.25,-0.05,-0.81,0.1,-0.86,0.05
7.258390211000005,520,1546.63,-88.8,1.1,-71.9,-1.17,-0.21,-0.73,0.11,-0.87,0.05
7.268358712999998,521,1546.64,-88.9,1.2,-71.9,-0.82,-0.28,-0.72,0.11,-0.87,0.05
7.278043011000136,522,1546.65,-89.0,1.3,-71.9,-0.34,-0.39,-0.78,0.12,-0.88,0.08
7.28822547000027,523,1546.66,-89.0,1.4,-72.0,0.09,-0.54,-0.86,0.12,-0.9,0.1
7.298125718999927,524,1546.67,-88.9,1.5,-72.0,0.41,-0.79,-0.9,0.12,-0.91,0.12
7.308070067000244,525,1546.68,-88.9,1.6,-72.1,0.66,-0.97,-0.87,0.12,-0.91,0.12
7.318188812000244,526,1546.69,-88.8,1.6,-72.2,0.81,-1.04,-0.76,0.11,-0.91,0.11
7.328272645000197,527,1546.7,-88.7,1.7,-72.3,0.79,-0.98,-0.62,0.1,-0.91,0.12
7.338036880000345,528,1546.71,-88.7,1.8,-72.4,0.66,-0.9,-0.45,0.09,-0.9,0.13
7.348188282000137,529,1546.72,-88.6,1.8,-72.5,0.34,-0.78,-0.26,0.09,-0.88,0.16
7.358130315999915,530,1546.73,-88.6,1.8,-72.6,-0.1,-0.8,0.0,0.1,-0.83,0.21
7.3680724690002535,531,1546.74,-88.7,1.8,-72.7,-0.62,-0.9,0.36,0.12,-0.78,0.24
7.378177803000199,532,1546.75,-88.7,1.8,-72.8,-0.96,-1.12,0.78,0.17,-0.74,0.27
7.388284304000081,533,1546.76,-88.8,1.7,-72.9,-0.96,-1.52,1.17,0.2,-0.74,0.29
7.398232706000272,534,1546.77,-88.9,1.5,-73.1,-0.7,-1.9,1.32,0.23,-0.75,0.27
7.408449187000315,535,1546.78,-89.0,1.4,-73.3,-0.07,-2.3,1.26,0.23,-0.8,0.24
7.418291191000208,536,1546.79,-88.9,1.3,-73.5,0.75,-2.52,1.02,0.2,-0.85,0.19
7.428287059000013,537,1546.8,-88.8,1.2,-73.8,1.56,-2.63,0.73,0.16,-0.88,0.17
7.437969507000162,538,1546.81,-88.6,1.2,-74.1,2.21,-2.69,0.47,0.1,-0.91,0.15
7.448382750000292,539,1546.82,-88.4,1.1,-74.3,2.43,-2.63,0.36,0.07,-0.9,0.13
7.458135947000301,540,1546.83,-88.1,1.1,-74.6,2.43,-2.47,0.3,0.05,-0.95,0.09
7.468299005000063,541,1546.84,-87.9,1.1,-74.8,2.35,-2.08,0.12,0.0,-1.0,0.04
7.478351056000065,542,1546.85,-87.7,1.1,-75.0,2.36,-1.44,-0.13,-0.06,-1.04,0.0
7.488288265999927,543,1546.86,-87.5,1.1,-75.1,2.23,-0.61,-0.44,-0.11,-1.07,0.0
7.498121806000199,544,1546.87,-87.3,1.1,-75.1,1.73,0.15,-0.68,-0.13,-1.05,0.1
7.508246504999988,545,1546.88,-87.1,1.2,-75.1,1.13,0.54,-0.66,-0.09,-0.98,0.25
7.518292152999948,546,1546.89,-87.0,1.3,-75.0,0.86,0.37,-0.54,-0.01,-1.04,0.3
7.5281406250001055,547,1546.9,-86.9,1.3,-75.0,1.31,0.0,-1.02,0.01,-1.3,0.17
7.538063168999997,548,1546.91,-86.7,1.5,-75.0,2.31,0.31,-2.0,-0.1,-1.43,-0.01
7.548330413000258,549,1546.92,-86.4,1.7,-74.9,3.82,1.16,-3.23,-0.11,-1.69,-0.06
7.558078425000076,550,1546.93,-86.0,2.1,-74.7,3.75,2.05,-5.0,-0.09,-1.78,-0.02
7.568091654999989,551,1546.94,-85.7,2.6,-74.4,1.98,3.09,-5.56,-0.01,-1.46,-0.14
7.578164914000354,552,1546.95,-85.6,3.2,-74.0,0.54,4.33,-5.16,0.14,-1.33,-0.19
7.587607651000326,553,1546.96,-85.5,3.6,-73.5,-0.07,4.81,-4.26,0.19,-1.19,-0.09
7.597911300000305,554,1546.97,-85.5,3.9,-73.0,0.08,4.13,-2.91,0.24,-1.15,-0.01
7.608245556999918,555,1546.98,-85.5,4.1,-72.6,-0.34,2.93,-1.78,0.37,-1.16,-0.01
7.617960847000177,556,1546.99,-85.5,4.2,-72.4,-1.16,1.37,-0.98,0.45,-1.12,0.07
7.628095180999935,557,1547.0,-85.7,4.3,-72.4,-1.97,-0.67,-0.36,0.42,-1.06,0.12
7.6381285830002525,558,1547.01,-85.9,4.3,-72.6,-2.53,-2.73,-0.01,0.38,-1.02,0.12
7.648173600000064,559,1547.02,-86.2,4.3,-72.9,-2.62,-4.69,-0.04,0.35,-0.99,0.06
7.6581520310001,560,1547.03,-86.5,4.4,-73.5,-2.34,-6.05,-0.44,0.33,-0.95,-0.07
7.668257353000172,561,1547.04,-86.8,4.5,-74.1,-1.82,-6.6,-0.98,0.28,-0.87,-0.15
7.678036181000152,562,1547.05,-87.0,4.7,-74.8,-1.1,-6.45,-1.36,0.22,-0.82,-0.17
7.68842097300012,563,1547.06,-87.1,4.8,-75.4,-0.28,-5.97,-1.63,0.17,-0.85,-0.16
7.698150532999989,564,1547.07,-87.1,5.0,-76.0,0.54,-5.39,-1.77,0.1,-0.89,-0.15
7.7081994990003295,565,1547.08,-87.1,5.2,-76.5,1.09,-4.83,-1.61,0.01,-0.93,-0.13
7.717973993000214,566,1547.09,-87.0,5.4,-76.9,0.81,-4.35,-1.12,-0.09,-0.99,-0.11
7.728257383000255,567,1547.1,-87.0,5.5,-77.3,-0.1,-3.86,-0.47,-0.2,-1.01,-0.12
7.7381829430000835,568,1547.11,-87.1,5.5,-77.7,-0.98,-3.18,0.15,-0.27,-1.0,-0.09
7.747968204000244,569,1547.12,-87.3,5.5,-77.9,-1.46,-2.48,0.67,-0.29,-0.95,-0.08
7.758328684999924,570,1547.13,-87.4,5.4,-78.2,-1.48,-1.79,1.1,-0.26,-0.87,-0.06
7.768447844000093,571,1547.14,-87.6,5.3,-78.3,-1.04,-1.2,1.49,-0.21,-0.81,-0.03
7.777938151999933,572,1547.15,-87.7,5.1,-78.4,-0.27,-0.7,1.8,-0.15,-0.81,-0.03
7.788282287000129,573,1547.16,-87.7,4.9,-78.5,0.25,-0.22,1.96,-0.1,-0.85,-0.04
7.798364367999966,574,1547.17,-87.6,4.7,-78.5,0.32,0.19,1.93,-0.05,-0.92,-0.04
7.807966382000359,575,1547.18,-87.6,4.6,-78.4,-0.12,0.52,1.78,-0.01,-0.97,-0.01
7.818036934000247,576,1547.19,-87.7,4.3,-78.4,-0.71,0.65,1.57,0.01,-0.98,0.01
7.828434202000153,577,1547.2,-87.8,4.2,-78.3,-1.13,0.69,1.34,0.03,-0.97,0.03
7.838034655000229,578,1547.21,-87.9,4.0,-78.3,-1.24,0.76,1.14,0.03,-0.93,0.02
7.848371043000043,579,1547.22,-88.0,3.9,-78.2,-1.11,0.89,0.96,0.03,-0.91,0.01
7.858100918000218,580,1547.23,-88.1,3.8,-78.1,-0.85,1.01,0.79,0.03,-0.9,0.03
7.868119783000111,581,1547.24,-88.2,3.7,-78.0,-0.55,1.05,0.58,0.02,-0.91,0.05
7.8781736780001665,582,1547.25,-88.2,3.6,-77.9,-0.32,1.05,0.33,0.02,-0.92,0.06
7.888195512000038,583,1547.26,-88.2,3.6,-77.8,-0.29,1.05,0.1,0.01,-0.92,0.08
7.898007881000012,584,1547.27,-88.2,3.5,-77.7,-0.37,1.07,-0.06,0.0,-0.91,0.1
7.908333197000047,585,1547.28,-88.2,3.6,-77.6,-0.5,1.07,-0.19,0.0,-0.91,0.12
7.917984350000097,586,1547.29,-88.2,3.6,-77.4,-0.81,1.09,-0.36,-0.01,-0.89,0.12
7.927594274000057,587,1547.3,-88.3,3.6,-77.3,-1.16,1.22,-0.55,-0.02,-0.86,0.12
7.937784570000076,588,1547.31,-88.5,3.7,-77.2,-1.28,1.42,-0.68,-0.05,-0.8,0.11
7.948333616000127,589,1547.32,-88.6,3.8,-77.0,-1.03,1.7,-0.75,-0.08,-0.76,0.1
7.958012275000328,590,1547.33,-88.6,3.8,-76.8,-0.47,2.04,-0.76,-0.09,-0.73,0.08
7.96824019099995,591,1547.34,-88.6,3.9,-76.6,0.36,2.35,-0.72,-0.09,-0.71,0.07
7.978351277000002,592,1547.35,-88.5,4.0,-76.4,1.33,2.55,-0.7,-0.06,-0.75,0.1
7.988089530000252,593,1547.36,-88.3,4.0,-76.1,2.11,2.5,-0.69,-0.03,-0.8,0.13
7.998080225000194,594,1547.37,-88.1,4.1,-75.9,2.47,2.29,-0.72,0.0,-0.86,0.14
8.008210995000354,595,1547.38,-87.8,4.2,-75.6,2.47,2.11,-0.69,0.01,-0.89,0.14
8.018165295000017,596,1547.39,-87.5,4.2,-75.4,2.39,1.96,-0.51,0.03,-0.93,0.15
8.028073229000256,597,1547.4,-87.3,4.2,-75.3,2.26,1.64,-0.26,0.07,-0.98,0.2
8.038096126000255,598,1547.41,-87.1,4.2,-75.1,1.86,0.94,0.05,0.12,-1.03,0.22
8.048194244000115,599,1547.42,-86.9,4.2,-75.1,1.33,0.18,0.35,0.15,-1.06,0.23
8.057999732000098,600,1547.43,-86.8,4.2,-75.1,0.45,-0.41,0.58,0.18,-1.06,0.23
8.068243589000303,601,1547.44,-86.8,4.1,-75.2,-0.24,-0.65,0.69,0.17,-1.01,0.23
8.078255521000301,602,1547.45,-86.9,4.0,-75.2,-0.29,-0.67,0.65,0.1,-0.96,0.23
8.088075818000107,603,1547.46,-86.9,4.0,-75.3,0.33,-0.34,0.69,0.0,-0.89,0.1
8.098299606000182,604,1547.47,-86.7,3.8,-75.3,2.46,0.63,1.29,-0.03,-0.83,-0.01
8.108225587000106,605,1547.48,-86.3,3.7,-75.2,4.98,1.29,2.29,0.16,-1.04,0.08
8.117972606999956,606,1547.49,-85.8,3.4,-75.1,5.75,0.73,3.1,0.3,-1.26,0.28
8.128343796000081,607,1547.5,-85.2,3.0,-75.1,5.5,-1.1,4.19,0.27,-1.34,0.37
8.138089770000079,608,1547.51,-84.7,2.6,-75.4,4.28,-3.0,5.51,0.15,-1.44,0.32
8.14800294700035,609,1547.52,-84.4,2.0,-75.8,1.89,-4.6,6.09,0.1,-1.64,0.19
8.158265505000145,610,1547.53,-84.4,1.5,-76.4,-0.56,-5.17,5.27,0.09,-1.7,-0.04
8.168409735000296,611,1547.54,-84.6,1.1,-76.9,-1.92,-4.44,3.58,0.02,-1.58,-0.17
8.177980078000019,612,1547.55,-84.8,0.9,-77.3,-1.86,-3.56,1.91,-0.12,-1.34,-0.17
8.188245392000226,613,1547.56,-84.9,0.8,-77.7,-0.29,-2.64,0.81,-0.23,-1.15,-0.24
8.198329515000296,614,1547.57,-84.8,0.8,-77.9,1.39,-1.33,0.12,-0.24,-1.12,-0.37
8.207984232999934,615,1547.58,-84.7,0.8,-77.9,1.37,0.31,-0.29,-0.24,-1.11,-0.5
8.218264846000238,616,1547.59,-84.6,0.8,-77.8,0.52,2.44,-0.28,-0.23,-1.05,-0.55
8.228326065000147,617,1547.6,-84.6,0.8,-77.4,-0.54,4.21,0.23,-0.23,-0.97,-0.4
8.238036688000193,618,1547.61,-84.7,0.7,-76.9,-1.77,4.96,0.91,-0.2,-0.96,-0.26
8.248394379000274,619,1547.62,-84.9,0.5,-76.4,-3.01,5.16,1.45,-0.14,-0.94,-0.16
8.258069058000274,620,1547.63,-85.3,0.3,-76.0,-3.59,4.79,1.78,-0.05,-0.91,-0.08
8.268215650999991,621,1547.64,-85.6,0.1,-75.5,-3.52,4.33,1.86,0.02,-0.9,-0.06
8.277969336000297,622,1547.65,-86.0,0.0,-75.1,-2.97,3.96,1.65,0.1,-0.94,0.0
8.288253173000157,623,1547.66,-86.2,-0.2,-74.8,-2.23,3.44,1.19,0.19,-0.99,0.05
8.298049059000277,624,1547.67,-86.4,-0.3,-74.5,-1.47,2.91,0.65,0.26,-1.0,0.09
8.307888389000254,625,1547.68,-86.5,-0.4,-74.2,-0.81,2.49,0.17,0.3,-1.0,0.11
8.318338854000103,626,1547.69,-86.6,-0.4,-74.0,-0.43,2.08,-0.28,0.3,-1.02,0.1
8.32827596900006,627,1547.7,-86.6,-0.3,-73.8,-0.18,1.81,-0.72,0.26,-1.01,0.09
8.337986399000329,628,1547.71,-86.6,-0.2,-73.6,0.16,1.53,-1.08,0.22,-1.01,0.1
8.348425257000144,629,1547.72,-86.6,-0.1,-73.4,0.47,1.28,-1.4,0.18,-1.01,0.1
8.357974574000309,630,1547.73,-86.5,0.0,-73.3,0.63,1.03,-1.62,0.14,-1.0,0.09
8.368133009000303,631,1547.74,-86.4,0.1,-73.2,0.38,0.86,-1.66,0.1,-0.99,0.09
8.378316695000194,632,1547.75,-86.4,0.3,-73.1,-0.21,0.67,-1.57,0.08,-0.97,0.09
8.388204011000198,633,1547.76,-86.5,0.5,-73.1,-0.98,0.51,-1.43,0.07,-0.95,0.09
8.398026927000046,634,1547.77,-86.6,0.7,-73.0,-1.65,0.4,-1.31,0.05,-0.91,0.09
8.408223904000351,635,1547.78,-86.7,0.8,-73.0,-1.97,0.31,-1.21,0.05,-0.88,0.09
8.418287126999985,636,1547.79,-86.9,1.0,-72.9,-1.93,0.25,-1.16,0.06,-0.86,0.09
8.428126696000163,637,1547.8,-87.0,1.1,-72.9,-1.63,0.09,-1.16,0.08,-0.86,0.1
8.438064637000025,638,1547.81,-87.2,1.2,-72.9,-1.23,-0.13,-1.2,0.09,-0.86,0.1
8.448378940000111,639,1547.82,-87.3,1.4,-72.9,-0.91,-0.33,-1.22,0.11,-0.86,0.11
8.458062028000313,640,1547.83,-87.4,1.5,-73.0,-0.73,-0.54,-1.16,0.13,-0.86,0.12
8.468216857000243,641,1547.84,-87.5,1.6,-73.0,-0.84,-0.67,-0.98,0.14,-0.86,0.15
8.478339886999947,642,1547.85,-87.6,1.7,-73.1,-1.09,-0.82,-0.71,0.15,-0.83,0.19
8.488043927000035,643,1547.86,-87.7,1.7,-73.2,-1.44,-0.96,-0.33,0.16,-0.8,0.24
8.498290952999923,644,1547.87,-87.9,1.7,-73.3,-1.88,-1.16,0.08,0.16,-0.77,0.26
8.50820203000012,645,1547.88,-88.1,1.7,-73.4,-2.24,-1.36,0.49,0.17,-0.75,0.26
8.518056318000163,646,1547.89,-88.3,1.6,-73.6,-2.3,-1.61,0.85,0.18,-0.73,0.25
8.528173411000353,647,1547.9,-88.5,1.6,-73.8,-1.92,-1.89,1.04,0.18,-0.74,0.24
8.538066095999966,648,1547.91,-88.7,1.5,-74.0,-1.13,-2.2,1.04,0.18,-0.76,0.21
8.54805271000032,649,1547.92,-88.7,1.4,-74.2,-0.03,-2.46,0.91,0.16,-0.8,0.19
8.558318296999914,650,1547.93,-88.7,1.3,-74.5,1.07,-2.53,0.68,0.13,-0.84,0.16
8.568380712000362,651,1547.94,-88.5,1.2,-74.7,1.92,-2.51,0.46,0.1,-0.88,0.16
8.57804278399999,652,1547.95,-88.3,1.2,-75.0,2.25,-2.44,0.29,0.08,-0.9,0.14
8.588228275000347,653,1547.96,-88.1,1.2,-75.2,2.36,-2.23,0.15,0.05,-0.96,0.1
8.598290055000234,654,1547.97,-87.8,1.2,-75.4,2.5,-1.79,-0.16,-0.01,-1.04,0.03
8.608053669000128,655,1547.98,-87.6,1.2,-75.5,2.72,-1.04,-0.54,-0.07,-1.07,0.0
8.618309982000028,656,1547.99,-87.3,1.3,-75.6,2.56,-0.12,-0.87,-0.12,-1.07,0.01
8.628263306000008,657,1548.0,-87.1,1.4,-75.5,1.86,0.72,-0.99,-0.13,-1.01,0.13
8.638049775000127,658,1548.01,-86.9,1.5,-75.4,1.09,1.12,-0.69,-0.08,-0.9,0.27
8.648183823000181,659,1548.02,-86.8,1.5,-75.3,1.07,0.87,-0.36,0.03,-1.05,0.28
8.658319115000268,660,1548.03,-86.7,1.6,-75.3,1.73,0.43,-1.01,0.06,-1.37,0.15
8.668405526000242,661,1548.04,-86.5,1.7,-75.2,2.71,0.85,-2.08,-0.06,-1.47,-0.04
8.678015275000234,662,1548.05,-86.1,2.0,-75.0,3.77,1.89,-3.32,-0.06,-1.72,-0.01
8.688196246000189,663,1548.06,-85.8,2.3,-74.8,2.82,2.42,-4.46,-0.03,-1.64,0.06
8.698328298999968,664,1548.07,-85.6,2.7,-74.5,0.86,2.94,-4.58,0.1,-1.35,-0.06
8.708155978999912,665,1548.08,-85.6,3.2,-74.1,-0.09,3.35,-3.95,0.24,-1.21,-0.08
8.718284847000177,666,1548.09,-85.6,3.5,-73.8,0.05,3.01,-3.09,0.3,-1.16,0.0
8.728358481000214,667,1548.1,-85.5,3.7,-73.5,0.46,2.0,-2.25,0.36,-1.14,0.02
8.737856919000023,668,1548.11,-85.5,3.9,-73.4,0.54,0.6,-1.44,0.44,-1.14,0.02
8.74830263900003,669,1548.12,-85.4,4.0,-73.4,0.11,-0.9,-0.88,0.49,-1.19,0.05
8.758073685999989,670,1548.13,-85.5,4.1,-73.6,-0.78,-2.56,-0.62,0.49,-1.22,0.11
8.768065101000047,671,1548.14,-85.6,4.2,-73.9,-1.79,-4.23,-0.76,0.42,-1.19,0.04
8.778329336000297,672,1548.15,-85.9,4.3,-74.4,-2.34,-5.32,-1.0,0.31,-1.05,-0.06
8.788216979000026,673,1548.16,-86.2,4.5,-74.9,-2.29,-5.81,-1.16,0.2,-0.9,-0.15
8.798213378000128,674,1548.17,-86.4,4.6,-75.5,-1.76,-5.74,-1.27,0.11,-0.82,-0.22
8.808213633999912,675,1548.18,-86.6,4.8,-76.1,-1.09,-5.29,-1.31,0.04,-0.8,-0.19
8.818201620000309,676,1548.19,-86.7,4.9,-76.6,-0.19,-5.0,-1.29,0.0,-0.83,-0.12
8.828118407000147,677,1548.2,-86.7,5.1,-77.0,0.55,-4.73,-1.16,-0.05,-0.87,-0.11
8.838037334000092,678,1548.21,-86.7,5.2,-77.5,0.67,-4.21,-0.8,-0.1,-0.92,-0.15
8.848198140000022,679,1548.22,-86.7,5.3,-77.9,0.3,-3.61,-0.32,-0.14,-0.97,-0.13
8.858084515999963,680,1548.23,-86.7,5.3,-78.2,-0.28,-2.94,0.23,-0.18,-0.98,-0.12
8.868142731000262,681,1548.24,-86.8,5.3,-78.5,-0.67,-2.18,0.74,-0.19,-0.98,-0.09
8.87828784200019,682,1548.25,-86.9,5.2,-78.6,-0.8,-1.55,1.11,-0.18,-0.94,-0.07
8.88813053900003,683,1548.26,-87.0,5.1,-78.8,-0.72,-1.05,1.37,-0.14,-0.91,-0.04
8.89801823200014,684,1548.27,-87.1,4.9,-78.9,-0.63,-0.78,1.5,-0.09,-0.89,-0.01
8.90810301900001,685,1548.28,-87.1,4.8,-78.9,-0.45,-0.54,1.53,-0.05,-0.89,-0.01
8.918034706000071,686,1548.29,-87.2,4.6,-79.0,-0.27,-0.3,1.44,-0.03,-0.91,-0.01
8.927947622999909,687,1548.3,-87.2,4.5,-79.0,-0.34,0.01,1.27,-0.02,-0.93,-0.01
8.938074054000026,688,1548.31,-87.2,4.4,-79.0,-0.49,0.3,1.07,-0.02,-0.94,0.0
8.948170092000055,689,1548.32,-87.3,4.2,-79.0,-0.74,0.55,0.88,-0.03,-0.94,0.01
8.958269505000317,690,1548.33,-87.4,4.1,-78.9,-1.01,0.75,0.79,-0.03,-0.91,0.02
8.968238992000352,691,1548.34,-87.5,3.9,-78.8,-1.19,0.89,0.77,-0.03,-0.89,0.03
8.978272394000214,692,1548.35,-87.6,3.8,-78.7,-1.28,0.98,0.81,-0.03,-0.87,0.04
8.988421160000144,693,1548.36,-87.8,3.6,-78.6,-1.23,1.11,0.87,-0.03,-0.86,0.04
8.998130663000211,694,1548.37,-87.9,3.5,-78.5,-1.08,1.25,0.88,-0.02,-0.87,0.05
9.008156293999946,695,1548.38,-87.9,3.3,-78.4,-0.87,1.33,0.79,-0.01,-0.89,0.08
9.018284625999968,696,1548.39,-88.0,3.2,-78.3,-0.74,1.33,0.66,-0.01,-0.9,0.1
9.028396653000073,697,1548.4,-88.0,3.2,-78.1,-0.71,1.28,0.47,-0.01,-0.92,0.13
9.038084051000169,698,1548.41,-88.1,3.1,-78.0,-0.78,1.25,0.25,-0.01,-0.94,0.15
9.048205136999968,699,1548.42,-88.2,3.1,-77.9,-1.01,1.27,0.0,-0.01,-0.95,0.15
9.05805276000001,700,1548.43,-88.3,3.1,-77.7,-1.28,1.39,-0.26,-0.02,-0.94,0.14
9.068419138000081,701,1548.44,-88.4,3.2,-77.6,-1.58,1.64,-0.47,-0.02,-0.9,0.12
9.078066407000279,702,1548.45,-88.6,3.2,-77.4,-1.73,1.86,-0.69,-0.04,-0.86,0.13
9.088188205000279,703,1548.46,-88.7,3.3,-77.2,-1.51,2.1,-0.83,-0.05,-0.8,0.13
9.098111745000097,704,1548.47,-88.9,3.4,-77.0,-0.81,2.31,-0.83,-0.05,-0.75,0.12
9.10817091700028,705,1548.48,-88.9,3.5,-76.7,0.14,2.52,-0.76,-0.05,-0.74,0.12
9.118068058000063,706,1548.49,-88.8,3.5,-76.5,1.09,2.6,-0.65,-0.03,-0.77,0.15
9.128183142000125,707,1548.5,-88.6,3.6,-76.2,1.6,2.48,-0.6,-0.03,-0.82,0.17
9.13804740400019,708,1548.51,-88.4,3.6,-76.0,1.78,2.25,-0.58,-0.03,-0.86,0.17
9.148433820000264,709,1548.52,-88.2,3.7,-75.8,1.87,2.08,-0.47,-0.02,-0.88,0.14
9.158086042999912,710,1548.53,-88.0,3.7,-75.6,1.99,1.88,-0.3,0.01,-0.91,0.16
9.168063781,711,1548.54,-87.8,3.7,-75.4,2.07,1.47,-0.07,0.05,-0.95,0.18
9.178241976000209,712,1548.55,-87.6,3.7,-75.3,1.85,0.85,0.11,0.1,-0.99,0.19
9.188243247000173,713,1548.56,-87.4,3.7,-75.2,1.3,0.19,0.3,0.16,-1.02,0.19
9.198003665000215,714,1548.57,-87.4,3.7,-75.2,0.54,-0.34,0.43,0.21,-1.02,0.21
9.20833992200005,715,1548.58,-87.3,3.6,-75.3,0.18,-0.67,0.51,0.19,-0.98,0.26
9.218276478999996,716,1548.59,-87.3,3.6,-75.4,0.8,-0.78,0.78,0.13,-0.91,0.11
9.22817156200017,717,1548.6,-87.1,3.5,-75.4,2.93,-0.09,1.72,0.12,-0.91,-0.01
9.238169696000114,718,1548.61,-86.7,3.2,-75.4,4.94,0.13,2.81,0.27,-1.14,0.05
9.248252358000173,719,1548.62,-86.2,2.9,-75.5,5.35,-0.63,3.82,0.33,-1.31,0.22
9.258035806999942,720,1548.63,-85.7,2.4,-75.7,4.73,-2.39,5.17,0.29,-1.4,0.37
9.268298094000329,721,1548.64,-85.3,1.9,-76.0,2.6,-4.1,5.93,0.11,-1.57,0.32
9.27832962399998,722,1548.65,-85.2,1.4,-76.6,-0.14,-5.1,5.21,-0.06,-1.61,0.13
9.288277859000118,723,1548.66,-85.3,1.0,-77.1,-1.27,-4.79,3.74,-0.21,-1.49,-0.11
9.29803825199997,724,1548.67,-85.4,0.7,-77.5,-0.14,-3.37,2.06,-0.3,-1.4,-0.26
9.308141331000115,725,1548.68,-85.3,0.6,-77.8,2.06,-1.77,0.47,-0.38,-1.34,-0.28
9.31827909399999,726,1548.69,-85.0,0.6,-77.9,3.24,-0.49,-0.18,-0.37,-1.25,-0.31
9.32822151900018,727,1548.7,-84.7,0.6,-77.9,2.2,0.8,-0.2,-0.3,-1.3,-0.41
9.338071699000011,728,1548.71,-84.6,0.6,-77.7,-0.13,2.43,0.05,-0.16,-1.27,-0.47
9.348291860000245,729,1548.72,-84.8,0.6,-77.4,-2.27,3.89,0.46,-0.04,-1.15,-0.39
9.35816788000011,730,1548.73,-85.1,0.5,-76.9,-3.29,4.87,0.95,0.0,-1.02,-0.34
9.368357611000192,731,1548.74,-85.4,0.3,-76.4,-3.55,5.62,1.3,0.02,-0.91,-0.28
9.37827506900021,732,1548.75,-85.7,0.1,-75.8,-3.41,5.7,1.58,0.05,-0.83,-0.13
9.388377295000282,733,1548.76,-86.1,0.0,-75.3,-3.36,5.05,1.7,0.07,-0.82,-0.02
9.398283178999918,734,1548.77,-86.4,-0.2,-74.9,-3.1,4.16,1.57,0.1,-0.83,0.02
9.408150394000131,735,1548.78,-86.7,-0.4,-74.5,-2.4,3.26,1.23,0.13,-0.86,0.04
9.418201559999943,736,1548.79,-86.9,-0.5,-74.2,-1.4,2.67,0.75,0.18,-0.91,0.04
9.428347270000359,737,1548.8,-87.0,-0.5,-74.0,-0.83,2.2,0.25,0.23,-0.97,0.05
9.438222413999938,738,1548.81,-87.1,-0.5,-73.8,-0.62,1.81,-0.11,0.28,-1.0,0.08
9.448126811000293,739,1548.82,-87.1,-0.5,-73.6,-0.68,1.32,-0.37,0.31,-1.04,0.11
9.458101181000075,740,1548.83,-87.2,-0.5,-73.5,-0.96,0.84,-0.63,0.3,-1.04,0.09
9.468373966999934,741,1548.84,-87.3,-0.4,-73.5,-1.07,0.47,-0.89,0.26,-1.01,0.07
9.478066004000084,742,1548.85,-87.4,-0.3,-73.4,-0.85,0.23,-1.09,0.23,-0.97,0.07
9.488226745000247,743,1548.86,-87.5,-0.2,-73.4,-0.63,-0.02,-1.25,0.2,-0.94,0.06
9.498298785000316,744,1548.87,-87.5,-0.1,-73.4,-0.52,-0.26,-1.3,0.16,-0.92,0.05
9.508073627000158,745,1548.88,-87.6,0.0,-73.5,-0.63,-0.45,-1.29,0.13,-0.9,0.05
9.518229132000215,746,1548.89,-87.7,0.1,-73.5,-0.78,-0.58,-1.27,0.11,-0.89,0.05
9.528210428999955,747,1548.9,-87.7,0.3,-73.6,-0.93,-0.62,-1.23,0.08,-0.87,0.06
9.538020454000161,748,1548.91,-87.8,0.5,-73.6,-0.82,-0.66,-1.23,0.06,-0.87,0.07
9.548310356000002,749,1548.92,-87.8,0.6,-73.7,-0.66,-0.61,-1.19,0.03,-0.87,0.08
9.558084023999982,750,1548.93,-87.9,0.8,-73.7,-0.42,-0.58,-1.19,0.03,-0.88,0.1
9.568297268000151,751,1548.94,-87.8,0.9,-73.8,-0.39,-0.54,-1.2,0.03,-0.9,0.1
9.578268403000038,752,1548.95,-87.8,1.0,-73.8,-0.52,-0.49,-1.17,0.03,-0.91,0.11
9.588279607000004,753,1548.96,-87.9,1.2,-73.9,-0.69,-0.44,-1.05,0.04,-0.9,0.12
9.598271216000285,754,1548.97,-87.9,1.3,-73.9,-0.8,-0.39,-0.9,0.06,-0.9,0.12
9.608071568000014,755,1548.98,-88.0,1.4,-73.9,-0.87,-0.27,-0.73,0.07,-0.88,0.12
9.618270940999992,756,1548.99,-88.1,1.4,-74.0,-0.92,-0.13,-0.51,0.08,-0.84,0.14
9.628317522000089,757,1549.0,-88.2,1.5,-74.0,-1.08,-0.01,-0.17,0.1,-0.79,0.17
9.638079976999961,758,1549.01,-88.3,1.5,-74.0,-1.25,-0.09,0.16,0.12,-0.76,0.22
9.648426639000263,759,1549.02,-88.4,1.4,-74.0,-1.27,-0.35,0.49,0.14,-0.73,0.26
9.658085897000092,760,1549.03,-88.5,1.4,-74.0,-1.0,-0.69,0.78,0.16,-0.72,0.26
9.668294236000293,761,1549.04,-88.6,1.3,-74.1,-0.55,-0.97,0.89,0.18,-0.75,0.23
9.678015458000118,762,1549.05,-88.6,1.2,-74.2,0.03,-1.16,0.84,0.19,-0.78,0.2
9.68823545000032,763,1549.06,-88.6,1.1,-74.4,0.71,-1.31,0.68,0.17,-0.81,0.18
9.698269249000077,764,1549.07,-88.5,1.1,-74.5,1.45,-1.51,0.56,0.15,-0.83,0.18
9.708330937000028,765,1549.08,-88.3,1.0,-74.7,2.15,-1.67,0.43,0.14,-0.86,0.16
9.71817578900027,766,1549.09,-88.1,1.0,-74.9,2.69,-1.7,0.26,0.12,-0.91,0.12
9.728286958000353,767,1549.1,-87.8,1.0,-75.0,3.29,-1.52,-0.03,0.1,-0.99,0.06
9.738080957999955,768,1549.11,-87.4,1.0,-75.1,3.8,-1.03,-0.41,0.02,-1.04,0.02
9.748260268000195,769,1549.12,-87.0,1.1,-75.2,4.19,-0.4,-0.69,-0.05,-1.09,0.01
9.757994076000159,770,1549.13,-86.6,1.1,-75.2,3.92,0.39,-0.89,-0.12,-1.12,0.05
9.768353283000124,771,1549.14,-86.3,1.2,-75.1,2.86,1.11,-0.81,-0.16,-1.06,0.17
9.778162050999981,772,1549.15,-86.1,1.3,-75.0,1.58,1.45,-0.41,-0.11,-0.99,0.32
9.788157439000315,773,1549.16,-86.0,1.3,-74.8,0.64,1.24,-0.18,-0.01,-1.17,0.31
9.798282868000115,774,1549.17,-85.9,1.3,-74.7,0.32,1.12,-0.73,0.0,-1.36,0.09
9.808120288000282,775,1549.18,-85.8,1.4,-74.6,0.91,1.87,-1.64,-0.04,-1.48,-0.1
9.817939895000109,776,1549.19,-85.7,1.6,-74.3,1.89,2.68,-3.0,0.01,-1.74,-0.03
9.828225721000308,777,1549.2,-85.6,2.0,-74.0,1.55,2.85,-4.41,0.02,-1.59,0.05
9.838186883000162,778,1549.21,-85.4,2.4,-73.7,0.84,2.99,-4.58,0.16,-1.3,-0.03
9.848001013000157,779,1549.22,-85.4,2.8,-73.3,0.2,3.11,-3.99,0.29,-1.18,-0.06
9.858153935000246,780,1549.23,-85.3,3.1,-73.0,0.3,2.63,-3.18,0.34,-1.16,-0.04
9.868373837000036,781,1549.24,-85.3,3.4,-72.8,0.41,1.92,-2.39,0.39,-1.15,-0.07
9.87822259199993,782,1549.25,-85.2,3.6,-72.6,0.31,0.74,-1.73,0.45,-1.18,0.01
9.888077778000024,783,1549.26,-85.2,3.7,-72.6,-0.32,-0.71,-1.34,0.42,-1.2,0.03
9.898088348000329,784,1549.27,-85.3,3.9,-72.8,-1.19,-2.26,-1.04,0.36,-1.14,0.04
9.908015889000126,785,1549.28,-85.5,4.0,-73.1,-1.89,-3.81,-0.88,0.3,-1.09,0.04
9.917981770000097,786,1549.29,-85.8,4.1,-73.5,-2.29,-5.19,-0.86,0.26,-0.99,0.0
9.928146869000102,787,1549.3,-86.0,4.2,-74.1,-2.29,-5.93,-1.0,0.22,-0.91,-0.14
9.937674191000042,788,1549.31,-86.3,4.4,-74.7,-2.06,-5.95,-1.15,0.18,-0.84,-0.17
9.947756066000238,789,1549.32,-86.5,4.5,-75.3,-1.36,-5.79,-1.22,0.13,-0.81,-0.13
9.95758084299996,790,1549.33,-86.7,4.7,-75.8,-0.58,-5.58,-1.2,0.08,-0.83,-0.12
9.968458319000092,791,1549.34,-86.7,4.8,-76.4,0.06,-5.22,-1.04,0.02,-0.86,-0.13
9.977982167999926,792,1549.35,-86.7,5.0,-76.8,0.23,-4.79,-0.75,-0.02,-0.91,-0.12
9.98823214999993,793,1549.36,-86.8,5.0,-77.3,0.08,-4.39,-0.4,-0.09,-0.97,-0.08
9.99829175800005,794,1549.37,-86.8,5.1,-77.7,-0.48,-4.01,-0.05,-0.16,-1.0,-0.07
