host_time_s,seq,device_time_s,roll,pitch,yaw,gyro_x,gyro_y,gyro_z,accel_x,accel_y,accel_z
2.0662829019997844,1,1620.42,86.5,-2.0,96.6,-2.38,-1.13,-2.53,-0.04,1.16,0.24
2.0723323619999974,2,1620.43,85.9,-2.7,97.0,-2.67,-2.76,-4.58,-0.16,1.41,0.11
2.0823358080001526,3,1620.44,85.7,-3.1,97.3,-0.52,-3.03,-4.42,-0.25,1.5,-0.1
2.0922715299998345,4,1620.45,85.7,-3.5,97.7,-0.06,-2.59,-3.83,-0.26,1.5,-0.29
2.1022386029999325,5,1620.46,85.6,-3.8,97.9,-0.46,-1.73,-3.11,-0.27,1.44,-0.36
2.1123415359998035,6,1620.47,85.6,-4.1,98.0,-0.52,-0.63,-2.29,-0.32,1.36,-0.36
2.1223265570001786,7,1620.48,85.5,-4.3,98.0,-0.2,0.63,-1.77,-0.3,1.27,-0.42
2.132377583000107,8,1620.49,85.5,-4.5,97.9,0.64,2.18,-1.31,-0.25,1.18,-0.44
2.1423071620001792,9,1620.5,85.7,-4.6,97.6,1.11,3.56,-1.09,-0.22,1.05,-0.39
2.152336890999777,10,1620.51,85.8,-4.7,97.2,1.31,4.38,-1.1,-0.2,0.95,-0.3
2.1622998640000333,11,1620.52,86.0,-4.9,96.8,1.4,4.84,-1.23,-0.21,0.87,-0.24
2.1723015259999556,12,1620.53,86.2,-5.1,96.3,1.28,5.23,-1.34,-0.17,0.85,-0.15
2.1822149290001107,13,1620.54,86.3,-5.2,95.8,1.22,5.17,-1.31,-0.12,0.88,-0.04
2.19232666400012,14,1620.55,86.5,-5.4,95.3,1.13,4.83,-1.28,-0.08,0.91,0.01
2.2022287989998404,15,1620.56,86.7,-5.5,94.8,0.68,4.36,-1.09,-0.02,0.98,0.06
2.2122180810001737,16,1620.57,86.8,-5.6,94.4,0.41,3.85,-0.81,0.04,1.04,0.08
2.222282140000061,17,1620.58,86.9,-5.7,94.0,0.34,3.39,-0.43,0.13,1.06,0.11
2.2323737799997616,18,1620.59,86.9,-5.7,93.7,0.34,2.69,0.05,0.21,1.08,0.14
2.242303713000183,19,1620.6,87.0,-5.7,93.5,0.38,2.07,0.45,0.25,1.07,0.13
2.252378733000114,20,1620.61,87.0,-5.6,93.3,0.38,1.58,0.76,0.24,1.01,0.12
2.262253003999831,21,1620.62,87.1,-5.6,93.2,0.25,1.12,0.99,0.21,0.96,0.13
2.2722919090001596,22,1620.63,87.1,-5.5,93.1,0.09,0.64,1.14,0.16,0.92,0.13
2.282338557999992,23,1620.64,87.1,-5.3,93.0,-0.03,0.17,1.26,0.11,0.9,0.13
2.2923265539998283,24,1620.65,87.1,-5.2,93.0,-0.05,-0.28,1.32,0.07,0.87,0.11
2.302204105999863,25,1620.66,87.1,-5.1,93.1,0.06,-0.62,1.29,0.04,0.86,0.09
2.312214948000019,26,1620.67,87.1,-4.9,93.2,0.29,-0.88,1.17,0.02,0.87,0.08
2.3222933130000456,27,1620.68,87.1,-4.8,93.3,0.57,-1.05,1.08,0.01,0.88,0.08
2.3323682149998604,28,1620.69,87.2,-4.7,93.4,0.91,-1.04,0.94,0.02,0.89,0.07
2.342234453999936,29,1620.7,87.3,-4.6,93.5,1.01,-1.15,0.83,0.01,0.87,0.09
2.3523605209998095,30,1620.71,87.4,-4.5,93.6,1.08,-1.14,0.75,0.0,0.87,0.09
2.3621757999999318,31,1620.72,87.5,-4.4,93.7,1.03,-1.09,0.64,0.0,0.86,0.11
2.372318203999839,32,1620.73,87.6,-4.3,93.8,0.84,-1.1,0.46,0.0,0.85,0.14
2.3823310570001013,33,1620.74,87.6,-4.3,93.9,0.6,-1.1,0.25,0.0,0.85,0.15
2.3923327229999813,34,1620.75,87.7,-4.3,94.0,0.54,-1.04,0.05,0.0,0.86,0.17
2.4021251509998365,35,1620.76,87.7,-4.3,94.1,0.69,-1.03,-0.08,0.0,0.86,0.19
2.4123554960001456,36,1620.77,87.8,-4.3,94.2,0.99,-1.03,-0.21,0.0,0.84,0.21
2.4222965849999127,37,1620.78,87.9,-4.3,94.3,1.23,-1.07,-0.36,0.01,0.81,0.24
2.432312171999911,38,1620.79,88.0,-4.4,94.4,1.41,-1.2,-0.56,0.04,0.78,0.25
2.442244354000195,39,1620.8,88.2,-4.4,94.6,1.44,-1.37,-0.78,0.07,0.76,0.26
2.4523814660001335,40,1620.81,88.3,-4.5,94.7,1.26,-1.63,-0.99,0.1,0.76,0.24
2.4622324329998264,41,1620.82,88.4,-4.6,94.9,0.81,-1.93,-1.1,0.11,0.78,0.22
2.4723066130000007,42,1620.83,88.4,-4.7,95.1,0.17,-2.18,-1.1,0.1,0.83,0.18
2.4823305609997988,43,1620.84,88.4,-4.8,95.4,-0.5,-2.23,-1.01,0.09,0.86,0.14
2.49221324500013,44,1620.85,88.3,-4.9,95.6,-1.05,-2.16,-0.96,0.07,0.89,0.12
2.502230167000107,45,1620.86,88.1,-5.0,95.8,-1.35,-2.05,-0.86,0.04,0.93,0.09
2.512377106999793,46,1620.87,88.0,-5.1,96.0,-1.44,-1.89,-0.63,-0.01,0.98,0.06
2.522226971999771,47,1620.88,87.8,-5.1,96.2,-1.48,-1.63,-0.36,-0.1,0.99,-0.01
2.5323587719999523,48,1620.89,87.7,-5.1,96.3,-1.38,-1.03,-0.12,-0.17,0.99,-0.06
2.5422054509999725,49,1620.9,87.5,-5.1,96.4,-1.12,-0.17,-0.02,-0.22,0.98,-0.04
2.552376329999788,50,1620.91,87.4,-5.1,96.3,-0.78,0.81,-0.05,-0.23,0.92,0.11
2.562219740999808,51,1620.92,87.4,-5.1,96.2,-0.6,1.1,-0.29,-0.16,0.87,0.29
2.5723262920000707,52,1620.93,87.3,-5.2,96.1,-0.82,0.67,-0.58,-0.03,0.9,0.39
2.582356728999912,53,1620.94,87.2,-5.2,96.1,-1.92,-0.51,-0.43,0.07,1.17,0.36
2.5922086750001654,54,1620.95,86.9,-5.2,96.3,-3.46,-1.91,0.67,0.01,1.46,0.18
2.602222243000142,55,1620.96,86.5,-5.0,96.4,-5.03,-1.84,2.21,-0.05,1.62,0.0
2.6123654140001236,56,1620.97,85.9,-4.7,96.6,-5.62,-1.1,3.56,0.0,1.71,0.0
2.622247692000201,57,1620.98,85.4,-4.3,96.6,-4.32,-0.52,4.41,0.08,1.61,0.0
2.632370010000159,58,1620.99,85.1,-3.8,96.6,-2.99,-0.16,4.57,0.13,1.48,-0.08
2.645189627000036,59,1621.0,84.8,-3.4,96.6,-2.2,0.15,4.21,0.07,1.38,-0.09
2.656309520999912,60,1621.01,84.6,-3.0,96.5,-2.18,0.22,3.37,0.03,1.3,-0.06
2.6663374519998797,61,1621.02,84.4,-2.7,96.5,-1.83,0.0,2.4,0.06,1.3,0.0
2.6763545049998356,62,1621.03,84.3,-2.5,96.5,-0.26,-0.86,1.56,0.07,1.27,0.03
2.686296828000195,63,1621.04,84.4,-2.4,96.6,1.51,-1.68,1.08,0.06,1.16,0.0
2.6963912790001814,64,1621.05,84.6,-2.3,96.8,2.46,-2.47,0.81,0.01,1.01,0.0
2.7062795530000585,65,1621.06,84.8,-2.2,97.1,2.57,-3.22,0.58,0.02,0.89,-0.03
2.7163118089997624,66,1621.07,85.1,-2.1,97.4,2.33,-3.61,0.49,0.06,0.84,-0.11
2.7263560259998485,67,1621.08,85.3,-2.0,97.8,1.85,-3.93,0.74,0.08,0.87,-0.11
2.736371973000132,68,1621.09,85.4,-1.9,98.2,1.61,-4.12,1.21,0.08,0.87,-0.15
2.746270344000095,69,1621.1,85.6,-1.7,98.6,1.5,-3.93,1.21,0.02,0.8,-0.17
2.7562969730001896,70,1621.11,85.7,-1.6,99.0,1.04,-3.56,0.99,-0.04,0.85,-0.14
2.766367781000099,71,1621.12,85.8,-1.5,99.3,0.96,-3.17,0.69,-0.11,0.91,-0.1
2.776246583000102,72,1621.13,85.9,-1.4,99.6,1.17,-2.64,0.41,-0.19,0.93,-0.09
2.7863886860000093,73,1621.14,86.0,-1.4,99.8,1.42,-2.0,0.17,-0.24,0.93,-0.07
2.796318243999849,74,1621.15,86.1,-1.3,100.0,1.49,-1.52,-0.03,-0.28,0.91,-0.04
2.8060044310000194,75,1621.16,86.3,-1.3,100.1,1.13,-1.1,-0.32,-0.29,0.87,-0.03
2.8163817859999654,76,1621.17,86.4,-1.4,100.2,0.55,-0.66,-0.64,-0.27,0.86,-0.02
2.826318877000176,77,1621.18,86.4,-1.5,100.3,-0.02,-0.37,-0.92,-0.23,0.88,0.0
2.836201914999947,78,1621.19,86.4,-1.6,100.3,-0.31,0.0,-1.05,-0.19,0.93,-0.02
2.846321257999989,79,1621.2,86.3,-1.7,100.3,-0.27,0.36,-1.04,-0.15,0.97,-0.02
2.8562702979997994,80,1621.21,86.3,-1.8,100.2,0.03,0.72,-0.93,-0.12,0.98,-0.02
2.866273016999912,81,1621.22,86.4,-1.9,100.1,0.44,1.11,-0.83,-0.09,0.96,0.0
2.876280095999846,82,1621.23,86.4,-2.0,100.0,0.7,1.34,-0.82,-0.08,0.94,0.03
2.886232975999974,83,1621.24,86.5,-2.1,99.9,0.86,1.45,-0.86,-0.07,0.92,0.06
2.8963214770001287,84,1621.25,86.6,-2.3,99.7,0.85,1.48,-0.89,-0.08,0.91,0.08
2.9062030199997935,85,1621.26,86.7,-2.4,99.6,0.71,1.5,-0.89,-0.08,0.91,0.08
2.916308337999908,86,1621.27,86.7,-2.5,99.4,0.54,1.58,-0.84,-0.09,0.92,0.1
2.9262017739997646,87,1621.28,86.7,-2.6,99.3,0.49,1.66,-0.71,-0.09,0.94,0.12
2.9363265709998814,88,1621.29,86.8,-2.7,99.1,0.67,1.7,-0.48,-0.08,0.95,0.14
2.9463446199997634,89,1621.3,86.8,-2.8,98.9,0.86,1.7,-0.27,-0.08,0.94,0.16
2.956208822999997,90,1621.31,86.9,-2.8,98.8,0.99,1.68,-0.09,-0.08,0.93,0.19
2.9662239899998895,91,1621.32,87.0,-2.8,98.6,1.05,1.61,0.11,-0.07,0.95,0.21
2.9763429599997835,92,1621.33,87.2,-2.8,98.5,1.33,1.46,0.37,-0.08,0.93,0.22
2.986304700999881,93,1621.34,87.3,-2.7,98.3,1.62,1.51,0.74,-0.1,0.9,0.19
2.996257515999787,94,1621.35,87.5,-2.7,98.1,1.89,1.68,1.04,-0.13,0.83,0.16
3.006191080000008,95,1621.36,87.7,-2.5,98.0,1.84,1.95,1.28,-0.15,0.77,0.15
3.016350818999854,96,1621.37,87.9,-2.4,97.7,1.25,2.22,1.36,-0.17,0.7,0.16
3.026299834999918,97,1621.38,87.9,-2.3,97.5,-0.13,2.48,1.22,-0.18,0.66,0.17
3.0363497469998038,98,1621.39,87.8,-2.2,97.2,-1.73,2.55,0.95,-0.15,0.7,0.19
3.0462285250000605,99,1621.4,87.6,-2.1,97.0,-2.72,2.51,0.69,-0.1,0.82,0.17
3.0562453880002067,100,1621.41,87.4,-2.1,96.7,-2.74,2.36,0.49,-0.08,0.89,0.18
3.066298717999871,101,1621.42,87.1,-2.1,96.5,-2.08,2.08,0.32,-0.04,0.93,0.21
3.076292088000173,102,1621.43,87.0,-2.0,96.3,-1.39,1.69,0.12,0.0,0.94,0.22
3.086252582999805,103,1621.44,86.8,-2.0,96.2,-1.13,1.11,-0.1,0.08,0.95,0.27
3.096315883999978,104,1621.45,86.7,-2.1,96.1,-1.26,0.23,-0.29,0.13,0.97,0.31
3.1062191709997933,105,1621.46,86.6,-2.1,96.2,-1.46,-0.7,-0.54,0.17,0.98,0.35
3.116290729999946,106,1621.47,86.4,-2.2,96.3,-1.2,-1.59,-0.51,0.17,1.04,0.37
3.126302140000007,107,1621.48,86.3,-2.2,96.5,-0.58,-2.28,-0.23,0.1,1.06,0.37
3.1363500309998926,108,1621.49,86.3,-2.2,96.7,-0.22,-2.63,0.1,-0.02,1.02,0.31
3.1462149479998516,109,1621.5,86.3,-2.1,97.0,-0.35,-2.52,0.15,-0.18,0.96,0.16
3.1562719200001084,110,1621.51,86.2,-2.1,97.2,-1.78,-1.67,-0.5,-0.19,0.91,0.13
3.1662675749998925,111,1621.52,85.8,-2.3,97.3,-4.02,-0.86,-1.71,-0.08,1.07,0.17
3.176254606999919,112,1621.53,85.3,-2.5,97.4,-4.98,-0.89,-3.12,-0.03,1.28,0.29
3.186341814000116,113,1621.54,84.8,-2.9,97.6,-4.73,-1.75,-4.67,-0.05,1.38,0.24
3.1962047669999265,114,1621.55,84.4,-3.4,97.9,-2.67,-2.35,-5.31,-0.15,1.62,0.06
3.2061839459997827,115,1621.56,84.3,-3.9,98.2,1.25,-2.5,-4.28,-0.22,1.71,-0.12
3.2163529780000317,116,1621.57,84.5,-4.2,98.4,2.18,-2.26,-3.05,-0.23,1.42,-0.3
3.22625688800008,117,1621.58,84.7,-4.4,98.6,0.86,-1.53,-2.08,-0.33,1.22,-0.38
3.236198734000027,118,1621.59,84.7,-4.6,98.8,-0.52,-0.24,-1.41,-0.4,1.14,-0.43
3.2463161820001005,119,1621.6,84.6,-4.7,98.7,-0.78,1.4,-1.04,-0.37,1.1,-0.49
3.2562389009999606,120,1621.61,84.6,-4.8,98.5,-0.2,3.5,-0.93,-0.29,1.11,-0.52
3.266265360000034,121,1621.62,84.6,-5.0,98.0,0.8,5.31,-1.04,-0.21,1.04,-0.41
3.2763007489998017,122,1621.63,84.8,-5.1,97.4,1.69,6.16,-1.4,-0.16,0.95,-0.26
3.286295167999924,123,1621.64,85.1,-5.4,96.8,2.17,6.19,-1.76,-0.15,0.88,-0.13
3.296302459999879,124,1621.65,85.4,-5.6,96.2,2.23,5.88,-1.94,-0.12,0.87,-0.04
3.3060265869999057,125,1621.66,85.6,-5.8,95.7,1.63,5.24,-1.97,-0.08,0.89,0.02
3.316332121999949,126,1621.67,85.8,-6.0,95.2,0.81,4.54,-1.71,-0.02,0.98,0.08
3.3263236070001767,127,1621.68,85.9,-6.2,94.8,0.07,3.91,-1.23,0.02,1.1,0.08
3.3362266919998547,128,1621.69,85.9,-6.3,94.4,0.05,3.49,-0.58,0.09,1.16,0.08
3.3463409519999914,129,1621.7,86.0,-6.3,94.1,0.52,3.08,0.07,0.18,1.13,0.1
3.3562357169998904,130,1621.71,86.1,-6.3,93.8,0.62,2.67,0.66,0.25,1.13,0.13
3.366168658999868,131,1621.72,86.2,-6.2,93.6,0.71,2.07,1.08,0.26,1.09,0.14
3.3763482240001395,132,1621.73,86.3,-6.1,93.4,0.65,1.45,1.37,0.25,1.04,0.13
3.386278450000191,133,1621.74,86.4,-6.0,93.3,0.58,0.93,1.5,0.2,0.98,0.13
3.396336911000162,134,1621.75,86.4,-5.8,93.2,0.58,0.34,1.56,0.14,0.94,0.15
3.406132410999817,135,1621.76,86.5,-5.7,93.2,0.76,-0.14,1.47,0.07,0.91,0.1
3.416355740000199,136,1621.77,86.6,-5.5,93.2,1.07,-0.46,1.45,0.02,0.88,0.09
3.426288766000198,137,1621.78,86.7,-5.4,93.3,1.16,-0.82,1.45,0.0,0.86,0.1
3.436313677999806,138,1621.79,86.8,-5.2,93.4,1.12,-1.07,1.42,-0.02,0.85,0.09
3.4463294960000894,139,1621.8,86.8,-5.0,93.5,0.92,-1.16,1.37,-0.04,0.84,0.09
3.4562063779999335,140,1621.81,86.9,-4.9,93.6,0.74,-1.2,1.32,-0.04,0.85,0.09
3.466342405999967,141,1621.82,86.9,-4.7,93.7,0.71,-1.16,1.33,-0.04,0.86,0.1
3.476281426999776,142,1621.83,86.9,-4.6,93.8,0.77,-1.13,1.33,-0.03,0.86,0.12
3.4862428339997678,143,1621.84,87.0,-4.4,93.9,0.69,-1.08,1.25,-0.03,0.85,0.15
3.496324430000186,144,1621.85,87.0,-4.3,94.0,0.55,-1.03,1.07,-0.03,0.85,0.17
3.5062337039998965,145,1621.86,87.1,-4.2,94.1,0.54,-0.95,0.83,-0.02,0.86,0.18
3.5162981439998475,146,1621.87,87.1,-4.1,94.2,0.77,-0.85,0.61,0.0,0.88,0.2
3.526314778000142,147,1621.88,87.2,-4.1,94.3,1.16,-0.8,0.41,0.0,0.88,0.22
3.5363012319999143,148,1621.89,87.4,-4.0,94.4,1.53,-0.81,0.2,0.02,0.85,0.24
3.5462258150000707,149,1621.9,87.5,-4.0,94.4,1.71,-0.97,-0.03,0.04,0.81,0.26
3.5562201180000557,150,1621.91,87.7,-4.0,94.6,1.7,-1.22,-0.3,0.07,0.77,0.27
3.5662989249999555,151,1621.92,87.8,-4.1,94.7,1.55,-1.52,-0.52,0.1,0.75,0.26
3.5763224219999756,152,1621.93,88.0,-4.1,94.9,1.17,-1.81,-0.67,0.13,0.74,0.24
3.586368547999882,153,1621.94,88.0,-4.2,95.1,0.62,-2.11,-0.69,0.15,0.77,0.22
3.596351046000109,154,1621.95,88.1,-4.2,95.3,0.04,-2.51,-0.52,0.13,0.81,0.19
3.6061106520000976,155,1621.96,88.0,-4.3,95.6,-0.49,-2.74,-0.33,0.1,0.83,0.15
3.616396132999853,156,1621.97,87.9,-4.3,95.9,-0.97,-2.78,-0.16,0.04,0.87,0.1
3.626304214999891,157,1621.98,87.8,-4.3,96.1,-1.22,-2.61,0.02,-0.01,0.94,0.02
3.636367458999757,158,1621.99,87.7,-4.2,96.4,-1.36,-2.04,0.26,-0.05,1.01,-0.08
3.6462466899997708,159,1622.0,87.5,-4.2,96.5,-1.31,-1.09,0.51,-0.09,1.06,-0.13
3.656299979999858,160,1622.01,87.4,-4.1,96.6,-1.05,-0.1,0.69,-0.15,1.08,-0.09
3.6663204930000575,161,1622.02,87.3,-4.0,96.5,-0.65,0.82,0.82,-0.22,1.05,0.05
3.6763410949997706,162,1622.03,87.3,-4.0,96.4,-0.4,1.11,0.75,-0.23,0.94,0.23
3.6863005449999946,163,1622.04,87.2,-3.9,96.3,-0.52,0.93,0.4,-0.17,0.86,0.34
3.6960208969999258,164,1622.05,87.2,-3.9,96.2,-1.11,0.46,0.12,-0.03,0.93,0.36
3.705574654999964,165,1622.06,87.0,-3.9,96.2,-2.33,-0.27,0.35,0.04,1.23,0.23
3.7163356739997653,166,1622.07,86.7,-3.8,96.3,-3.81,-0.67,1.42,-0.04,1.44,0.08
3.726337322999825,167,1622.08,86.2,-3.6,96.3,-4.87,-0.03,2.44,-0.09,1.48,-0.04
3.736309551999966,168,1622.09,85.8,-3.3,96.2,-5.05,0.9,3.18,-0.01,1.54,-0.06
3.746333947000039,169,1622.1,85.3,-2.9,96.1,-4.57,1.65,3.73,0.09,1.47,-0.04
3.756236829000045,170,1622.11,84.9,-2.6,95.8,-3.7,1.99,3.76,0.14,1.3,0.0
3.7662460599999577,171,1622.12,84.6,-2.2,95.6,-3.0,1.68,3.3,0.11,1.28,0.0
3.776339719000134,172,1622.13,84.4,-1.9,95.5,-2.1,1.39,2.68,0.03,1.27,-0.06
3.78635664300009,173,1622.14,84.2,-1.7,95.3,-1.09,0.98,1.86,0.07,1.24,-0.05
3.7961803859998327,174,1622.15,84.2,-1.6,95.2,0.05,0.15,1.16,0.05,1.26,-0.04
3.806237755999973,175,1622.16,84.2,-1.5,95.3,1.3,-0.8,0.86,0.04,1.14,-0.02
3.816371201000038,176,1622.17,84.4,-1.4,95.4,1.91,-1.87,0.55,0.02,0.95,0.0
3.8261973349999607,177,1622.18,84.6,-1.3,95.6,1.4,-2.98,0.38,0.08,0.9,-0.04
3.836353992000113,178,1622.19,84.7,-1.2,96.0,0.94,-3.5,0.67,0.13,0.97,-0.1
3.846357535000152,179,1622.2,84.8,-1.1,96.3,0.72,-3.8,1.15,0.17,0.97,-0.15
3.8561322049999944,180,1622.21,84.8,-1.0,96.7,0.78,-3.76,1.49,0.15,0.94,-0.18
3.866287564999766,181,1622.22,84.9,-0.8,97.0,0.91,-3.51,1.44,0.06,0.94,-0.18
3.8763607810001304,182,1622.23,85.0,-0.6,97.4,0.98,-3.11,1.24,-0.04,0.95,-0.12
3.8862641750001785,183,1622.24,85.1,-0.5,97.6,0.99,-2.86,0.9,-0.15,0.94,-0.06
3.8963310320000346,184,1622.25,85.2,-0.4,97.9,1.22,-2.55,0.5,-0.24,0.92,-0.04
3.906289015999846,185,1622.26,85.3,-0.3,98.1,1.4,-2.03,0.13,-0.3,0.9,-0.02
3.916260305999913,186,1622.27,85.5,-0.3,98.3,1.35,-1.53,-0.21,-0.33,0.87,-0.01
3.926093633000164,187,1622.28,85.6,-0.4,98.4,0.92,-0.9,-0.58,-0.31,0.85,-0.03
3.9363680430001295,188,1622.29,85.7,-0.4,98.5,0.26,-0.37,-0.88,-0.25,0.88,0.0
3.9463184340002044,189,1622.3,85.6,-0.5,98.5,-0.35,-0.08,-1.12,-0.18,0.89,0.03
3.95614694599999,190,1622.31,85.6,-0.7,98.5,-0.75,0.07,-1.37,-0.11,0.93,0.02
3.966331721000188,191,1622.32,85.5,-0.8,98.5,-0.64,0.28,-1.56,-0.06,0.97,0.01
3.9763695960000405,192,1622.33,85.5,-1.0,98.5,-0.03,0.43,-1.65,-0.02,1.0,0.02
3.986286324000048,193,1622.34,85.6,-1.2,98.5,0.67,0.52,-1.61,-0.02,0.99,0.03
3.9963845799998126,194,1622.35,85.7,-1.3,98.4,1.4,0.51,-1.47,-0.03,0.96,0.07
4.006265543000154,195,1622.36,85.9,-1.5,98.4,1.84,0.44,-1.32,-0.06,0.93,0.07
4.0163122680000924,196,1622.37,86.1,-1.7,98.4,1.91,0.38,-1.14,-0.08,0.9,0.07
4.026327963999847,197,1622.38,86.2,-1.8,98.3,1.67,0.42,-0.94,-0.09,0.89,0.08
4.036349019999761,198,1622.39,86.4,-1.9,98.3,1.29,0.5,-0.77,-0.1,0.88,0.08
4.046258211999884,199,1622.4,86.5,-2.1,98.2,1.0,0.68,-0.58,-0.1,0.9,0.1
4.05630980099977,200,1622.41,86.5,-2.2,98.2,0.95,0.88,-0.38,-0.1,0.92,0.13
4.066357461999814,201,1622.42,86.6,-2.2,98.1,1.1,1.03,-0.16,-0.09,0.93,0.16
4.076218390000122,202,1622.43,86.7,-2.2,98.0,1.28,1.09,0.0,-0.09,0.92,0.19
4.086376004000158,203,1622.44,86.9,-2.2,97.8,1.4,1.08,0.17,-0.08,0.91,0.21
4.096375949000048,204,1622.45,87.0,-2.2,97.7,1.61,1.1,0.4,-0.09,0.88,0.21
4.106171827999788,205,1622.46,87.2,-2.1,97.6,1.82,1.22,0.6,-0.11,0.82,0.19
4.116371144999903,206,1622.47,87.4,-2.1,97.5,1.79,1.38,0.77,-0.14,0.76,0.19
4.12629475499989,207,1622.48,87.6,-2.0,97.3,1.46,1.59,0.91,-0.17,0.73,0.18
4.136208626000098,208,1622.49,87.7,-1.9,97.1,0.58,1.96,0.88,-0.19,0.69,0.16
4.1463618230000066,209,1622.5,87.7,-1.8,96.9,-0.61,2.11,0.85,-0.17,0.73,0.19
4.156297115000143,210,1622.51,87.6,-1.7,96.7,-1.83,2.25,0.73,-0.14,0.79,0.2
4.166221289000077,211,1622.52,87.3,-1.7,96.5,-2.66,2.24,0.71,-0.12,0.86,0.21
4.176360356999794,212,1622.53,87.1,-1.6,96.3,-2.76,2.02,0.63,-0.11,0.9,0.21
4.186395538999932,213,1622.54,86.8,-1.6,96.1,-2.35,1.86,0.5,-0.07,0.92,0.19
4.19630866999978,214,1622.55,86.6,-1.6,95.9,-2.05,1.72,0.23,-0.02,0.92,0.22
4.206164602000172,215,1622.56,86.4,-1.6,95.7,-2.08,1.26,-0.16,0.05,0.96,0.26
4.216361101000075,216,1622.57,86.2,-1.6,95.6,-2.24,0.57,-0.54,0.1,1.0,0.3
4.226286621999861,217,1622.58,86.0,-1.7,95.6,-2.08,-0.24,-0.83,0.14,1.03,0.34
4.236132214999998,218,1622.59,85.8,-1.8,95.7,-1.4,-1.02,-0.83,0.14,1.11,0.37
4.246158024000124,219,1622.6,85.7,-1.8,95.9,-0.45,-1.62,-0.55,0.06,1.11,0.35
4.256251577000057,220,1622.61,85.7,-1.8,96.0,0.23,-2.03,-0.36,-0.05,1.07,0.18
4.266163881000011,221,1622.62,85.7,-1.9,96.2,-0.36,-1.32,-0.64,-0.09,0.98,0.08
4.276287087000128,222,1622.63,85.5,-2.0,96.3,-2.09,-0.65,-1.44,-0.02,1.06,0.16
4.286347405000015,223,1622.64,85.2,-2.2,96.4,-3.02,-0.87,-2.44,-0.01,1.18,0.31
4.296220925999933,224,1622.65,84.9,-2.5,96.6,-3.69,-1.72,-3.73,-0.02,1.23,0.28
4.306274901000052,225,1622.66,84.5,-2.9,96.8,-2.84,-2.34,-4.4,-0.11,1.44,0.11
4.316363653999815,226,1622.67,84.3,-3.3,97.1,-0.07,-2.67,-3.88,-0.19,1.56,-0.03
4.326150354999754,227,1622.68,84.4,-3.6,97.4,0.75,-2.54,-3.1,-0.21,1.4,-0.18
4.336378885000158,228,1622.69,84.4,-3.9,97.7,0.18,-2.08,-2.49,-0.23,1.33,-0.3
4.346267176999845,229,1622.7,84.4,-4.1,97.8,-0.24,-1.11,-1.79,-0.29,1.31,-0.41
4.356143845000133,230,1622.71,84.4,-4.2,97.9,-0.05,0.3,-1.13,-0.31,1.26,-0.44
4.3662910070002,231,1622.72,84.4,-4.3,97.8,0.46,1.88,-0.84,-0.3,1.14,-0.48
4.376363866999782,232,1622.73,84.5,-4.4,97.5,0.81,3.58,-0.92,-0.26,1.04,-0.42
4.38618181999982,233,1622.74,84.6,-4.6,97.1,1.17,4.82,-1.08,-0.23,0.98,-0.34
4.3963645499998165,234,1622.75,84.8,-4.8,96.6,1.44,5.62,-1.25,-0.21,0.91,-0.26
4.406271683999876,235,1622.76,85.0,-4.9,96.0,1.41,5.91,-1.38,-0.17,0.87,-0.14
4.416135099999792,236,1622.77,85.2,-5.1,95.4,1.09,5.83,-1.45,-0.13,0.89,-0.05
4.426237473000128,237,1622.78,85.4,-5.3,94.9,0.74,5.48,-1.38,-0.08,0.96,0.0
4.436394550999921,238,1622.79,85.5,-5.5,94.4,0.52,4.96,-1.35,-0.03,0.99,0.03
4.446201731000201,239,1622.8,85.6,-5.6,93.9,0.52,4.6,-1.05,0.04,1.09,0.05
4.456244602999959,240,1622.81,85.7,-5.7,93.5,0.86,4.11,-0.65,0.13,1.09,0.12
4.466361348000191,241,1622.82,85.8,-5.8,93.1,0.77,3.57,-0.04,0.21,1.11,0.17
4.476200681000137,242,1622.83,85.9,-5.8,92.8,0.61,2.81,0.47,0.25,1.08,0.18
4.486248008000075,243,1622.84,86.0,-5.7,92.5,0.33,2.18,0.86,0.24,1.03,0.16
4.496354620000147,244,1622.85,86.0,-5.6,92.3,0.04,1.71,1.1,0.19,0.97,0.15
4.506128540000191,245,1622.86,86.1,-5.5,92.1,-0.01,1.34,1.23,0.14,0.94,0.16
4.516198067999994,246,1622.87,86.1,-5.4,92.0,0.01,0.96,1.29,0.09,0.91,0.15
4.526282542999979,247,1622.88,86.1,-5.3,91.9,0.09,0.63,1.33,0.04,0.89,0.15
4.536290060999818,248,1622.89,86.1,-5.2,91.9,0.11,0.31,1.28,0.0,0.86,0.14
4.546166370999799,249,1622.9,86.1,-5.0,91.9,0.1,0.11,1.14,-0.01,0.85,0.12
4.556280054000126,250,1622.91,86.1,-4.9,91.8,0.25,-0.04,1.01,-0.01,0.86,0.12
4.566355432999899,251,1622.92,86.1,-4.8,91.9,0.49,-0.13,0.91,0.0,0.87,0.1
4.576187069999833,252,1622.93,86.2,-4.7,91.9,0.74,-0.14,0.85,0.01,0.87,0.1
4.586332544000015,253,1622.94,86.3,-4.6,91.9,0.96,-0.17,0.85,0.03,0.87,0.11
4.596375235999858,254,1622.95,86.4,-4.5,91.9,1.08,-0.24,0.87,0.03,0.86,0.13
4.606108872999812,255,1622.96,86.5,-4.4,91.9,1.02,-0.36,0.85,0.03,0.84,0.16
4.616320675999759,256,1622.97,86.6,-4.4,92.0,0.86,-0.52,0.7,0.03,0.82,0.19
4.626287576999857,257,1622.98,86.7,-4.3,92.0,0.79,-0.66,0.46,0.04,0.82,0.2
4.636131202999877,258,1622.99,86.7,-4.3,92.1,0.88,-0.71,0.24,0.04,0.83,0.2
4.646359462999953,259,1623.0,86.8,-4.2,92.2,1.11,-0.72,0.02,0.03,0.81,0.22
4.656273014999897,260,1623.01,86.9,-4.3,92.2,1.21,-0.73,-0.18,0.03,0.79,0.25
4.66602545700016,261,1623.02,87.1,-4.3,92.3,1.12,-0.88,-0.41,0.04,0.76,0.28
4.676310446000116,262,1623.03,87.1,-4.3,92.4,0.86,-1.04,-0.62,0.05,0.74,0.28
4.686360407999928,263,1623.04,87.2,-4.4,92.5,0.45,-1.21,-0.8,0.08,0.74,0.27
4.69620796900017,264,1623.05,87.2,-4.5,92.7,-0.22,-1.38,-0.88,0.08,0.76,0.25
4.70617898799992,265,1623.06,87.1,-4.6,92.8,-1.04,-1.59,-0.83,0.07,0.81,0.22
4.716369017000034,266,1623.07,87.0,-4.6,93.0,-1.85,-1.7,-0.72,0.04,0.84,0.19
4.726157224999952,267,1623.08,86.7,-4.7,93.2,-2.42,-1.71,-0.71,0.01,0.87,0.16
4.736357454999961,268,1623.09,86.5,-4.7,93.3,-2.62,-1.62,-0.69,0.0,0.95,0.12
4.746279187999789,269,1623.1,86.2,-4.8,93.5,-2.33,-1.42,-0.55,-0.01,1.04,0.08
4.756270932999996,270,1623.11,86.0,-4.8,93.6,-1.66,-1.03,-0.33,-0.04,1.08,0.03
4.766213790000165,271,1623.12,85.9,-4.8,93.7,-0.92,-0.4,-0.13,-0.06,1.07,0.0
4.77630665300012,272,1623.13,85.9,-4.8,93.7,-0.41,0.42,0.09,-0.09,1.07,0.03
4.786232512999959,273,1623.14,85.8,-4.8,93.6,-0.26,0.99,0.28,-0.13,1.01,0.17
4.796258498000043,274,1623.15,85.8,-4.7,93.5,-0.33,1.04,0.34,-0.12,0.93,0.35
4.806164454999816,275,1623.16,85.8,-4.7,93.4,-0.75,0.48,0.16,-0.02,0.93,0.44
4.816274131999762,276,1623.17,85.6,-4.7,93.4,-1.52,-0.49,0.25,0.07,1.18,0.33
4.826202488000035,277,1623.18,85.4,-4.6,93.5,-2.85,-1.43,1.25,0.02,1.47,0.22
4.836358581999775,278,1623.19,85.0,-4.4,93.6,-4.16,-1.48,2.47,-0.07,1.53,0.09
4.846305482999924,279,1623.2,84.6,-4.1,93.7,-4.94,-0.85,3.38,-0.05,1.58,0.05
4.856258787000115,280,1623.21,84.1,-3.7,93.7,-4.41,-0.1,4.06,0.04,1.51,0.03
4.866280889999871,281,1623.22,83.8,-3.2,93.7,-3.1,0.14,4.1,0.11,1.33,0.07
4.875892740999916,282,1623.23,83.5,-2.9,93.6,-2.6,-0.24,3.59,0.08,1.27,0.0
4.886155120999774,283,1623.24,83.2,-2.5,93.6,-2.44,-0.15,3.0,0.03,1.31,-0.1
4.896320343999832,284,1623.25,83.0,-2.3,93.6,-1.71,-0.07,2.36,0.07,1.31,-0.02
4.906154249999872,285,1623.26,82.9,-2.1,93.6,-0.63,-0.87,1.7,0.08,1.28,0.01
4.916194645999894,286,1623.27,82.9,-1.9,93.7,0.84,-1.44,1.28,0.03,1.17,-0.02
4.926201147000029,287,1623.28,83.1,-1.8,93.9,1.9,-2.16,0.88,0.01,1.02,0.02
4.936384192999867,288,1623.29,83.3,-1.6,94.2,2.02,-3.16,0.61,0.02,0.95,0.0
4.946250715000133,289,1623.3,83.5,-1.5,94.5,1.82,-3.8,0.72,0.05,0.97,-0.1
4.956215459999839,290,1623.31,83.7,-1.4,94.9,1.67,-4.11,0.9,0.06,0.94,-0.16
4.966299720999814,291,1623.32,83.8,-1.3,95.3,1.49,-4.21,1.26,0.06,0.95,-0.18
4.976140133000172,292,1623.33,84.0,-1.1,95.7,1.87,-4.04,1.45,0.01,0.91,-0.18
4.986308331000146,293,1623.34,84.1,-0.9,96.1,1.84,-3.76,1.37,-0.04,0.89,-0.14
4.996319943999879,294,1623.35,84.3,-0.7,96.4,1.68,-3.34,1.27,-0.1,0.93,-0.09
5.0061212410000735,295,1623.36,84.5,-0.6,96.7,1.69,-2.92,1.09,-0.17,0.94,-0.07
5.01600390800013,296,1623.37,84.6,-0.5,97.0,1.71,-2.31,0.79,-0.23,0.91,-0.04
5.0260048949999145,297,1623.38,84.8,-0.4,97.2,1.58,-1.65,0.33,-0.26,0.88,-0.01
5.036150144000203,298,1623.39,85.0,-0.4,97.3,1.43,-1.21,-0.12,-0.26,0.89,0.0
5.046275812000204,299,1623.4,85.1,-0.4,97.4,1.16,-0.78,-0.51,-0.22,0.88,0.0
5.056245963000038,300,1623.41,85.2,-0.5,97.5,0.75,-0.5,-0.82,-0.16,0.89,0.01
5.066238606999832,301,1623.42,85.2,-0.6,97.5,0.34,-0.34,-1.08,-0.11,0.91,0.02
5.076302778999889,302,1623.43,85.3,-0.7,97.5,0.2,-0.12,-1.23,-0.08,0.94,0.0
5.086335985000005,303,1623.44,85.3,-0.8,97.6,0.37,0.07,-1.26,-0.06,0.96,0.01
5.0963354639998215,304,1623.45,85.4,-1.0,97.5,0.83,0.3,-1.17,-0.06,0.96,0.01
5.106058708000091,305,1623.46,85.6,-1.1,97.5,1.26,0.41,-1.08,-0.06,0.94,0.04
5.116354416999911,306,1623.47,85.7,-1.3,97.5,1.52,0.46,-1.02,-0.06,0.9,0.06
5.126259333999769,307,1623.48,85.9,-1.4,97.4,1.53,0.41,-0.99,-0.07,0.87,0.09
5.136290806000034,308,1623.49,86.0,-1.5,97.4,1.39,0.35,-1.01,-0.08,0.85,0.09
5.146351979999963,309,1623.5,86.1,-1.7,97.4,1.14,0.39,-1.01,-0.09,0.86,0.07
5.156188337999993,310,1623.51,86.2,-1.8,97.3,0.88,0.54,-0.99,-0.1,0.88,0.07
5.166251053999986,311,1623.52,86.3,-2.0,97.3,0.77,0.75,-0.88,-0.1,0.9,0.07
5.176322686999811,312,1623.53,86.3,-2.1,97.2,0.81,0.94,-0.72,-0.09,0.91,0.1
5.186330402999829,313,1623.54,86.4,-2.2,97.1,0.97,1.04,-0.55,-0.09,0.91,0.13
5.196298487000149,314,1623.55,86.5,-2.3,97.0,1.17,1.08,-0.33,-0.08,0.91,0.17
5.206077584000013,315,1623.56,86.6,-2.3,96.9,1.48,1.03,-0.02,-0.08,0.89,0.19
5.21637547499995,316,1623.57,86.8,-2.3,96.8,1.8,1.04,0.27,-0.08,0.85,0.18
5.22620906200018,317,1623.58,87.0,-2.2,96.7,1.97,1.16,0.58,-0.08,0.81,0.18
5.2363716129998465,318,1623.59,87.2,-2.2,96.5,1.9,1.27,0.78,-0.1,0.75,0.19
5.246244428999944,319,1623.6,87.3,-2.1,96.4,1.36,1.32,0.88,-0.12,0.71,0.21
5.256247705000078,320,1623.61,87.4,-2.0,96.3,0.29,1.33,0.79,-0.12,0.69,0.22
5.26618061299996,321,1623.62,87.4,-2.0,96.1,-0.89,1.27,0.62,-0.1,0.74,0.22
5.276358388000062,322,1623.63,87.3,-1.9,96.0,-1.81,1.04,0.43,-0.09,0.81,0.22
5.286194600999806,323,1623.64,87.1,-1.9,95.9,-2.32,0.73,0.25,-0.09,0.87,0.21
5.296193277999919,324,1623.65,86.8,-1.9,95.9,-2.39,0.54,0.05,-0.09,0.91,0.2
5.306122003999917,325,1623.66,86.6,-1.9,95.8,-2.1,0.42,-0.25,-0.05,0.94,0.21
5.316194802000155,326,1623.67,86.4,-1.9,95.8,-1.82,0.16,-0.58,-0.01,0.97,0.26
5.326166217999798,327,1623.68,86.2,-2.0,95.8,-1.85,-0.36,-0.84,0.04,0.99,0.3
5.336378066000179,328,1623.69,86.0,-2.1,95.9,-1.96,-0.95,-1.04,0.07,0.99,0.33
5.346283244999995,329,1623.7,85.8,-2.2,96.0,-2.18,-0.99,-0.8,0.1,1.06,0.33
5.356221849000121,330,1623.71,85.7,-2.2,96.2,-1.16,-2.1,-0.43,0.03,1.11,0.35
5.366273143999933,331,1623.72,85.6,-2.2,96.4,-0.16,-2.4,0.0,-0.07,1.11,0.15
5.376329272000021,332,1623.73,85.6,-2.3,96.6,-0.29,-1.63,-0.19,-0.12,1.01,0.09
5.386272167999778,333,1623.74,85.4,-2.4,96.7,-1.46,-1.12,-1.0,-0.09,1.08,0.1
5.3963728590001665,334,1623.75,85.2,-2.5,96.9,-2.48,-0.78,-2.19,-0.05,1.17,0.21
5.406124486999943,335,1623.76,84.8,-2.8,97.0,-3.1,-1.12,-3.69,-0.05,1.21,0.23
5.4165024049998465,336,1623.77,84.6,-3.2,97.2,-1.66,-1.56,-4.35,-0.2,1.45,0.06
5.426295486000072,337,1623.78,84.5,-3.6,97.3,1.03,-1.28,-3.75,-0.34,1.53,-0.13
5.436520626999936,338,1623.79,84.7,-4.0,97.5,0.99,-0.55,-3.02,-0.36,1.41,-0.23
5.44639663199996,339,1623.8,84.7,-4.2,97.5,-0.75,0.2,-2.3,-0.37,1.41,-0.27
5.4562470330001815,340,1623.81,84.5,-4.4,97.4,-1.83,1.04,-1.62,-0.39,1.42,-0.26
5.4662921949998236,341,1623.82,84.4,-4.6,97.3,-1.32,1.89,-1.1,-0.35,1.4,-0.23
5.476461200999893,342,1623.83,84.3,-4.7,97.1,0.11,2.94,-1.08,-0.25,1.29,-0.32
5.486500903999968,343,1623.84,84.5,-4.8,96.7,1.37,4.13,-1.16,-0.11,1.21,-0.27
5.496295768999971,344,1623.85,84.7,-5.0,96.3,2.09,4.57,-1.16,-0.04,1.11,-0.23
5.506104542999765,345,1623.86,84.9,-5.2,95.8,2.28,5.0,-1.04,-0.01,0.99,-0.27
5.516234630999861,346,1623.87,85.2,-5.3,95.3,2.14,5.42,-0.92,0.01,0.89,-0.22
5.5262832929997785,347,1623.88,85.5,-5.4,94.8,1.85,5.54,-0.8,0.02,0.82,-0.1
5.5362499650000245,348,1623.89,85.7,-5.5,94.2,1.57,5.02,-0.72,0.02,0.8,0.02
5.546344342999873,349,1623.9,85.9,-5.6,93.8,1.36,4.28,-0.61,0.01,0.83,0.07
5.556202810999821,350,1623.91,86.0,-5.7,93.4,1.16,3.67,-0.33,0.01,0.91,0.02
5.5662277229998836,351,1623.92,86.2,-5.7,93.0,1.32,3.28,0.01,0.02,0.96,0.03
5.576317710999774,352,1623.93,86.4,-5.7,92.7,1.47,2.99,0.3,0.05,0.97,0.06
5.586470027999894,353,1623.94,86.5,-5.7,92.4,1.21,2.7,0.54,0.08,0.98,0.1
5.5962197339999875,354,1623.95,86.7,-5.6,92.2,1.02,2.36,0.69,0.1,0.97,0.09
5.60611175799977,355,1623.96,86.8,-5.6,91.9,1.03,2.16,0.86,0.11,0.97,0.13
5.616476625999894,356,1623.97,86.9,-5.5,91.8,0.72,1.75,0.88,0.1,0.91,0.08
5.626158281999778,357,1623.98,87.0,-5.4,91.6,0.61,1.65,0.92,0.09,0.89,0.11
5.6362758459999895,358,1623.99,87.0,-5.3,91.4,0.39,1.24,0.88,0.09,0.89,0.14
5.646237995999854,359,1624.0,87.1,-5.2,91.3,0.28,0.86,0.81,0.08,0.9,0.15
5.656131635999827,360,1624.01,87.1,-5.2,91.2,0.36,0.48,0.76,0.08,0.92,0.15
5.666457553999862,361,1624.02,87.2,-5.1,91.2,0.61,0.17,0.73,0.07,0.92,0.15
5.676317480999842,362,1624.03,87.2,-5.0,91.2,0.83,-0.14,0.68,0.07,0.91,0.17
5.686389886000143,363,1624.04,87.3,-4.9,91.2,0.93,-0.48,0.7,0.07,0.9,0.17
5.696221030999823,364,1624.05,87.4,-4.9,91.3,0.89,-0.75,0.76,0.06,0.88,0.16
5.706170750000183,365,1624.06,87.5,-4.8,91.4,0.67,-0.92,0.81,0.03,0.86,0.16
5.715932262000024,366,1624.07,87.5,-4.7,91.5,0.19,-1.07,0.81,0.01,0.85,0.16
5.72568415600017,367,1624.08,87.5,-4.6,91.6,-0.28,-1.16,0.77,0.0,0.87,0.16
5.735699091999777,368,1624.09,87.5,-4.5,91.7,-0.35,-1.15,0.71,-0.02,0.89,0.16
5.746264789000179,369,1624.1,87.4,-4.5,91.8,-0.1,-1.04,0.61,-0.03,0.88,0.15
5.756149255999844,370,1624.11,87.4,-4.4,91.9,0.28,-0.8,0.42,-0.03,0.85,0.16
5.766434559000118,371,1624.12,87.5,-4.4,92.0,0.55,-0.68,0.13,-0.01,0.82,0.21
5.776229521000005,372,1624.13,87.5,-4.4,92.0,0.78,-0.68,-0.18,0.01,0.79,0.23
5.786171602000195,373,1624.14,87.6,-4.4,92.1,0.9,-0.75,-0.51,0.03,0.75,0.25
5.796520071000032,374,1624.15,87.7,-4.5,92.2,0.9,-0.91,-0.81,0.06,0.73,0.27
5.806183124000199,375,1624.16,87.8,-4.6,92.3,0.73,-1.15,-1.03,0.1,0.73,0.27
5.816314092000084,376,1624.17,87.8,-4.7,92.5,0.35,-1.45,-1.14,0.12,0.76,0.26
5.826448414999959,377,1624.18,87.8,-4.8,92.6,-0.1,-1.74,-1.1,0.14,0.82,0.24
5.836104858999988,378,1624.19,87.8,-4.9,92.8,-0.57,-1.94,-0.99,0.13,0.86,0.2
5.8458491579999645,379,1624.2,87.7,-5.0,93.0,-1.04,-1.81,-0.9,0.11,0.9,0.14
5.855902117999904,380,1624.21,87.5,-5.0,93.2,-1.36,-1.54,-0.78,0.08,0.96,0.12
5.866440460999911,381,1624.22,87.4,-5.1,93.3,-1.33,-1.41,-0.66,0.02,1.0,0.12
5.876148046999788,382,1624.23,87.2,-5.1,93.5,-1.26,-1.2,-0.52,-0.04,1.03,0.06
5.886471342999812,383,1624.24,87.1,-5.2,93.6,-1.13,-0.79,-0.41,-0.12,1.03,0.03
5.896317969999927,384,1624.25,87.0,-5.2,93.6,-0.88,-0.15,-0.34,-0.17,1.03,0.0
5.906122537000101,385,1624.26,87.0,-5.3,93.6,-0.52,0.68,-0.3,-0.21,0.98,0.12
5.91651478499989,386,1624.27,86.9,-5.4,93.5,-0.29,0.89,-0.4,-0.17,0.92,0.28
5.926312742999926,387,1624.28,86.9,-5.4,93.4,-0.56,0.35,-0.41,-0.09,1.1,0.23
5.936145483000018,388,1624.29,86.8,-5.4,93.4,-1.49,-0.41,0.38,-0.06,1.41,0.14
5.946506063000015,389,1624.3,86.6,-5.3,93.5,-2.84,-0.81,1.8,-0.22,1.61,0.01
5.95624045500017,390,1624.31,86.2,-5.0,93.5,-4.38,-0.35,3.23,-0.26,1.73,-0.08
5.966207840000152,391,1624.32,85.8,-4.7,93.5,-3.96,0.54,4.23,-0.17,1.66,-0.07
5.976127536000149,392,1624.33,85.5,-4.2,93.4,-2.7,1.16,4.36,0.02,1.45,-0.04
5.98638045000007,393,1624.34,85.3,-3.8,93.2,-2.07,1.52,4.01,0.19,1.38,-0.12
5.996330492000197,394,1624.35,85.1,-3.5,93.0,-2.03,1.5,3.42,0.25,1.29,-0.02
6.006161398000131,395,1624.36,84.9,-3.2,92.9,-2.1,0.62,2.66,0.29,1.24,0.03
6.016494127999977,396,1624.37,84.7,-2.9,92.9,-0.89,-0.33,1.85,0.28,1.22,0.04
6.0263605539998935,397,1624.38,84.7,-2.8,93.0,0.63,-1.85,1.26,0.21,1.16,0.1
6.036126501000126,398,1624.39,84.8,-2.7,93.2,1.66,-3.21,0.85,0.09,1.06,-0.01
6.0464867999999115,399,1624.4,85.0,-2.6,93.6,1.97,-3.79,0.41,0.02,0.96,-0.13
6.0562663579999025,400,1624.41,85.2,-2.5,94.0,1.84,-4.19,0.58,0.0,1.01,-0.14
6.066052654000032,401,1624.42,85.3,-2.4,94.4,1.87,-4.58,1.09,0.0,0.97,-0.14
6.076330541000061,402,1624.43,85.5,-2.2,94.9,1.95,-4.76,1.49,-0.01,0.9,-0.21
6.086511384999994,403,1624.44,85.7,-2.0,95.3,1.8,-4.46,1.7,-0.03,0.85,-0.24
6.096205635999922,404,1624.45,85.8,-1.8,95.7,1.55,-4.01,1.67,-0.04,0.83,-0.19
6.1061287419997825,405,1624.46,86.0,-1.6,96.1,1.24,-3.57,1.39,-0.09,0.81,-0.15
6.116296476000116,406,1624.47,86.1,-1.5,96.4,0.82,-3.04,1.01,-0.13,0.82,-0.11
6.126396192999891,407,1624.48,86.1,-1.4,96.7,0.69,-2.56,0.66,-0.18,0.87,-0.07
6.136537074999978,408,1624.49,86.2,-1.3,96.9,0.84,-2.03,0.43,-0.23,0.9,-0.07
6.14630536300001,409,1624.5,86.3,-1.3,97.1,1.0,-1.51,0.21,-0.26,0.9,-0.07
6.156117061999794,410,1624.51,86.4,-1.2,97.2,0.91,-1.04,-0.06,-0.26,0.87,-0.05
6.16631330600012,411,1624.52,86.4,-1.3,97.3,0.48,-0.64,-0.36,-0.25,0.88,-0.02
6.176334076999865,412,1624.53,86.5,-1.3,97.3,0.24,-0.44,-0.65,-0.21,0.86,0.0
6.186175660000117,413,1624.54,86.5,-1.4,97.4,0.06,-0.2,-0.84,-0.18,0.89,-0.02
6.19650252800011,414,1624.55,86.5,-1.5,97.4,0.1,0.11,-0.83,-0.15,0.93,-0.03
6.206236783999884,415,1624.56,86.5,-1.6,97.3,0.29,0.46,-0.71,-0.12,0.94,-0.02
6.2161984099998335,416,1624.57,86.6,-1.6,97.3,0.43,0.77,-0.62,-0.1,0.93,0.0
6.226474738999968,417,1624.58,86.6,-1.7,97.2,0.45,0.97,-0.58,-0.08,0.92,0.04
6.236373606000143,418,1624.59,86.7,-1.8,97.1,0.46,1.01,-0.55,-0.06,0.93,0.07
6.246186308999768,419,1624.6,86.7,-1.9,97.0,0.5,1.01,-0.48,-0.05,0.93,0.09
6.256223932000012,420,1624.61,86.7,-2.0,96.9,0.56,0.99,-0.36,-0.04,0.95,0.11
6.266509513000074,421,1624.62,86.8,-2.0,96.8,0.64,0.98,-0.2,-0.04,0.96,0.13
6.276038627000162,422,1624.63,86.8,-2.0,96.7,0.71,1.01,-0.02,-0.05,0.97,0.13
6.28624764999995,423,1624.64,86.8,-2.0,96.6,0.81,1.04,0.13,-0.06,0.96,0.13
6.296536594999907,424,1624.65,86.9,-2.0,96.5,0.88,1.11,0.27,-0.07,0.94,0.14
6.3061465269997825,425,1624.66,86.9,-2.0,96.4,0.92,1.16,0.39,-0.08,0.92,0.16
6.316308673000094,426,1624.67,87.0,-2.0,96.3,0.94,1.19,0.57,-0.08,0.91,0.17
6.326220945999921,427,1624.68,87.1,-1.9,96.1,1.04,1.16,0.8,-0.1,0.87,0.18
6.336488837000161,428,1624.69,87.2,-1.8,96.0,1.1,1.25,1.11,-0.12,0.83,0.18
6.346141135999915,429,1624.7,87.4,-1.7,95.9,0.97,1.46,1.4,-0.13,0.78,0.18
6.3559914749998825,430,1624.71,87.4,-1.5,95.7,0.58,1.67,1.57,-0.14,0.73,0.18
6.3658654820001175,431,1624.72,87.5,-1.4,95.5,-0.37,1.96,1.56,-0.15,0.69,0.18
6.3762428129998625,432,1624.73,87.4,-1.3,95.3,-1.59,2.23,1.31,-0.14,0.67,0.2
6.386482788000194,433,1624.74,87.1,-1.2,95.1,-2.68,2.28,1.0,-0.12,0.74,0.23
6.396352508999826,434,1624.75,86.8,-1.1,94.8,-3.14,2.08,0.79,-0.11,0.81,0.23
6.4061081149998245,435,1624.76,86.5,-1.0,94.6,-2.97,1.82,0.62,-0.1,0.86,0.21
6.4164873380000245,436,1624.77,86.3,-1.0,94.5,-2.5,1.66,0.37,-0.06,0.88,0.19
6.426336441999865,437,1624.78,86.0,-1.0,94.3,-2.14,1.32,0.06,0.0,0.91,0.23
6.436141135000071,438,1624.79,85.8,-1.0,94.2,-2.61,1.27,-0.14,0.03,1.01,0.2
6.446274853999967,439,1624.8,85.6,-1.1,94.2,-2.5,-0.11,-0.52,0.11,1.0,0.34
6.456263677000152,440,1624.81,85.3,-1.1,94.2,-2.31,-0.97,-0.58,0.16,1.08,0.33
6.466145739999774,441,1624.82,85.1,-1.1,94.4,-1.61,-1.57,-0.32,0.17,1.11,0.32
6.476345646000027,442,1624.83,85.0,-1.1,94.5,-0.63,-2.0,0.14,0.08,1.13,0.3
6.486504939000042,443,1624.84,85.0,-1.1,94.7,0.26,-2.08,0.36,-0.05,1.04,0.13
6.496199652000087,444,1624.85,85.0,-1.1,94.9,-0.54,-1.24,-0.24,-0.07,0.92,0.14
6.506109596999977,445,1624.86,84.7,-1.2,95.0,-2.68,-0.67,-1.5,-0.02,1.03,0.2
6.516321718000199,446,1624.87,84.4,-1.4,95.1,-3.97,-0.83,-3.01,0.0,1.18,0.33
6.526159029000155,447,1624.88,83.9,-1.8,95.3,-4.27,-1.68,-4.6,-0.01,1.29,0.25
6.536193970000113,448,1624.89,83.6,-2.3,95.5,-2.16,-2.23,-5.03,-0.15,1.62,0.05
6.546229725000103,449,1624.9,83.5,-2.7,95.8,0.68,-2.24,-4.16,-0.22,1.65,-0.12
6.556141741999909,450,1624.91,83.6,-3.1,96.1,0.46,-1.96,-3.35,-0.22,1.45,-0.26
6.566189959999974,451,1624.92,83.6,-3.3,96.3,-0.88,-1.4,-2.71,-0.29,1.34,-0.26
6.5763258920001135,452,1624.93,83.4,-3.6,96.4,-1.36,-0.77,-2.08,-0.35,1.29,-0.3
6.58649924700012,453,1624.94,83.3,-3.7,96.4,-0.72,0.51,-1.56,-0.36,1.27,-0.43
6.596032813999955,454,1624.95,83.3,-3.9,96.3,0.41,2.24,-1.14,-0.3,1.19,-0.44
6.605973489000007,455,1624.96,83.4,-4.0,96.0,1.16,3.74,-0.97,-0.23,1.09,-0.39
6.615900898999826,456,1624.97,83.6,-4.2,95.6,1.61,4.81,-0.97,-0.22,0.98,-0.35
6.626234315000147,457,1624.98,83.8,-4.3,95.1,1.74,5.65,-1.12,-0.2,0.89,-0.27
6.636482591000004,458,1624.99,84.0,-4.5,94.5,1.55,6.08,-1.29,-0.15,0.85,-0.12
6.646297396000136,459,1625.0,84.2,-4.7,93.9,1.43,5.88,-1.4,-0.08,0.87,0.01
6.656077394000022,460,1625.01,84.4,-4.9,93.4,1.2,5.17,-1.36,-0.02,0.93,0.09
6.666415146999952,461,1625.02,84.5,-5.0,92.9,1.0,4.39,-1.3,0.02,0.94,0.09
6.67633985700013,462,1625.03,84.7,-5.2,92.5,0.63,3.81,-0.86,0.09,1.05,0.06
6.686488496000038,463,1625.04,84.8,-5.3,92.1,0.82,3.39,-0.39,0.17,1.08,0.09
6.696509739999783,464,1625.05,84.9,-5.3,91.8,0.85,2.9,0.09,0.22,1.08,0.12
6.706193208000059,465,1625.06,85.0,-5.3,91.6,0.76,2.27,0.52,0.24,1.07,0.15
6.716196137999759,466,1625.07,85.1,-5.2,91.4,0.65,1.72,0.88,0.21,1.03,0.14
6.726326238000183,467,1625.08,85.1,-5.1,91.2,0.43,1.13,1.09,0.16,0.97,0.16
6.736516109000149,468,1625.09,85.2,-5.0,91.1,0.34,0.57,1.24,0.13,0.95,0.15
6.746004710999841,469,1625.1,85.2,-4.9,91.1,0.47,0.14,1.24,0.09,0.9,0.13
6.756191560999923,470,1625.11,85.3,-4.8,91.1,0.7,-0.27,1.15,0.07,0.88,0.12
6.766473992000101,471,1625.12,85.4,-4.7,91.1,1.0,-0.63,1.07,0.06,0.88,0.11
6.776287362999938,472,1625.13,85.5,-4.6,91.2,1.22,-0.96,1.01,0.04,0.89,0.11
6.786157155000183,473,1625.14,85.6,-4.5,91.3,1.31,-1.17,0.94,0.04,0.89,0.1
6.796271550999791,474,1625.15,85.7,-4.4,91.4,1.28,-1.34,0.89,0.04,0.9,0.11
6.806096181000157,475,1625.16,85.8,-4.3,91.6,1.27,-1.45,0.84,0.03,0.9,0.1
6.816146086000117,476,1625.17,85.9,-4.2,91.7,1.19,-1.52,0.79,0.03,0.89,0.12
6.826305763000164,477,1625.18,86.0,-4.1,91.8,1.01,-1.61,0.72,0.02,0.87,0.14
6.836462892999862,478,1625.19,86.1,-4.0,92.0,0.84,-1.69,0.63,0.0,0.86,0.15
6.846398114999829,479,1625.2,86.2,-3.9,92.2,0.7,-1.69,0.52,-0.01,0.85,0.16
6.8562015659999815,480,1625.21,86.2,-3.9,92.3,0.74,-1.63,0.42,-0.02,0.85,0.18
6.866465791999872,481,1625.22,86.3,-3.8,92.5,0.9,-1.56,0.26,-0.03,0.83,0.2
6.876275887999782,482,1625.23,86.4,-3.8,92.6,1.15,-1.45,0.07,-0.02,0.81,0.21
6.886514858999817,483,1625.24,86.5,-3.8,92.8,1.37,-1.46,-0.13,0.0,0.77,0.24
6.8963391369998135,484,1625.25,86.7,-3.8,92.9,1.33,-1.58,-0.33,0.02,0.73,0.27
6.906101790999855,485,1625.26,86.8,-3.9,93.1,1.11,-1.82,-0.54,0.05,0.72,0.28
6.916338572999848,486,1625.27,86.9,-3.9,93.3,0.73,-2.14,-0.68,0.06,0.73,0.26
6.926322184000128,487,1625.28,86.9,-4.0,93.6,0.21,-2.38,-0.69,0.05,0.77,0.22
6.936205869999867,488,1625.29,86.9,-4.0,93.8,-0.35,-2.43,-0.6,0.04,0.82,0.17
6.946315308000067,489,1625.3,86.8,-4.1,94.0,-0.91,-2.22,-0.51,0.03,0.86,0.11
6.956233835000148,490,1625.31,86.6,-4.1,94.2,-1.24,-1.85,-0.52,0.03,0.91,0.07
6.96628495899995,491,1625.32,86.5,-4.1,94.4,-1.19,-1.42,-0.5,0.01,0.97,0.05
6.976333403999888,492,1625.33,86.4,-4.1,94.5,-0.86,-1.07,-0.42,-0.02,1.02,0.05
6.986296425000091,493,1625.34,86.3,-4.1,94.6,-0.48,-0.8,-0.25,-0.08,1.03,0.05
6.996345112000199,494,1625.35,86.3,-4.1,94.7,-0.23,-0.41,-0.09,-0.16,1.01,0.03
7.006182196999816,495,1625.36,86.3,-4.1,94.7,-0.08,0.29,0.03,-0.23,1.01,0.02
7.016510113000095,496,1625.37,86.3,-4.1,94.6,-0.13,1.12,0.15,-0.26,0.97,0.14
7.026234471999942,497,1625.38,86.3,-4.1,94.5,-0.32,1.57,0.07,-0.22,0.92,0.3
7.036529221999899,498,1625.39,86.2,-4.1,94.3,-0.6,1.52,-0.15,-0.11,0.91,0.42
7.0462250499999755,499,1625.4,86.2,-4.2,94.2,-1.02,1.02,-0.37,0.03,0.97,0.46
7.056225419999919,500,1625.41,86.0,-4.2,94.2,-2.08,0.06,-0.17,0.17,1.25,0.35
7.066275304000101,501,1625.42,85.7,-4.2,94.2,-3.24,-0.78,0.97,0.1,1.56,0.2
7.076309497999773,502,1625.43,85.4,-3.9,94.3,-3.97,-0.91,2.45,0.01,1.63,0.06
7.086310087000129,503,1625.44,84.9,-3.6,94.3,-4.59,-0.23,3.56,-0.03,1.67,-0.07
7.096407216999978,504,1625.45,84.5,-3.2,94.2,-4.12,1.01,4.46,-0.02,1.6,-0.17
7.106226405000143,505,1625.46,84.2,-2.8,94.0,-2.66,1.9,4.56,0.0,1.33,-0.04
7.116228356000192,506,1625.47,84.0,-2.4,93.8,-1.91,1.48,3.67,0.0,1.16,-0.03
7.126404491999892,507,1625.48,83.8,-2.1,93.6,-1.62,1.27,2.67,-0.02,1.19,-0.15
7.1363283529999535,508,1625.49,83.7,-1.9,93.5,-1.03,1.49,2.04,0.05,1.23,-0.09
7.146221898000022,509,1625.5,83.6,-1.7,93.3,-0.37,0.45,1.64,0.09,1.18,0.03
7.156201554999825,510,1625.51,83.6,-1.6,93.4,0.49,-1.12,1.27,0.06,1.04,0.03
7.166514173999985,511,1625.52,83.7,-1.4,93.5,0.98,-2.26,0.84,0.09,0.95,0.02
7.17632218100016,512,1625.53,83.8,-1.3,93.8,0.94,-3.19,0.65,0.17,1.0,-0.07
7.186277712999981,513,1625.54,83.9,-1.2,94.1,1.12,-3.65,0.74,0.21,1.05,-0.1
7.196331012999963,514,1625.55,84.0,-1.1,94.5,1.28,-4.19,1.14,0.23,1.06,-0.13
7.206157816000086,515,1625.56,84.2,-0.9,94.9,2.05,-4.34,1.56,0.16,0.99,-0.18
7.216447191000043,516,1625.57,84.4,-0.7,95.4,2.43,-4.11,1.56,0.05,0.93,-0.2
7.226310885000203,517,1625.58,84.6,-0.5,95.7,2.58,-3.68,1.41,-0.07,0.9,-0.19
7.236470795000059,518,1625.59,84.9,-0.4,96.1,2.45,-3.27,1.23,-0.18,0.9,-0.13
7.246426712999892,519,1625.6,85.1,-0.2,96.3,2.38,-2.73,0.84,-0.28,0.86,-0.1
7.25622750499997,520,1625.61,85.3,-0.2,96.6,2.15,-2.01,0.23,-0.34,0.81,-0.05
7.266262557000118,521,1625.62,85.5,-0.2,96.7,1.74,-1.43,-0.44,-0.35,0.81,-0.02
7.276460641000085,522,1625.63,85.7,-0.2,96.9,1.32,-0.87,-0.93,-0.31,0.86,-0.02
7.286450957999932,523,1625.64,85.8,-0.3,96.9,0.91,-0.44,-1.15,-0.23,0.89,-0.01
7.296272260000023,524,1625.65,85.9,-0.4,97.0,0.41,-0.15,-1.24,-0.15,0.91,0.0
7.306188465000105,525,1625.66,85.9,-0.6,97.0,0.13,0.05,-1.3,-0.08,0.92,0.0
7.316271549999783,526,1625.67,85.9,-0.7,97.0,0.29,0.24,-1.29,-0.01,0.96,0.0
7.326319676999901,527,1625.68,86.0,-0.8,97.0,0.81,0.37,-1.19,0.0,0.97,0.03
7.336243546999867,528,1625.69,86.1,-0.9,96.9,1.32,0.42,-1.0,0.0,0.97,0.06
7.346286437999879,529,1625.7,86.3,-1.0,96.9,1.64,0.39,-0.84,0.0,0.94,0.1
7.356219662000058,530,1625.71,86.4,-1.1,96.9,1.69,0.3,-0.77,-0.03,0.9,0.1
7.366177294999943,531,1625.72,86.6,-1.2,96.8,1.5,0.32,-0.76,-0.05,0.88,0.1
7.376308282000082,532,1625.73,86.7,-1.3,96.8,1.21,0.38,-0.79,-0.06,0.87,0.09
7.386479816999781,533,1625.74,86.7,-1.4,96.8,0.98,0.52,-0.77,-0.08,0.88,0.09
7.396099947000039,534,1625.75,86.8,-1.5,96.7,0.83,0.68,-0.74,-0.09,0.89,0.1
7.406206409999868,535,1625.76,86.8,-1.7,96.6,0.81,0.89,-0.64,-0.09,0.92,0.1
7.416501660999984,536,1625.77,86.9,-1.8,96.5,0.93,1.04,-0.49,-0.09,0.93,0.12
7.426198191999902,537,1625.78,87.0,-1.8,96.4,1.1,1.19,-0.31,-0.08,0.92,0.13
7.4363292029997865,538,1625.79,87.1,-1.9,96.3,1.4,1.25,-0.1,-0.08,0.9,0.15
7.446310429999812,539,1625.8,87.3,-1.9,96.2,1.71,1.35,0.08,-0.08,0.86,0.16
7.456152021999969,540,1625.81,87.5,-1.8,96.0,1.99,1.51,0.31,-0.08,0.83,0.18
7.466251349999766,541,1625.82,87.7,-1.8,95.9,2.07,1.63,0.51,-0.09,0.79,0.2
7.476362239000082,542,1625.83,87.9,-1.8,95.7,1.87,1.67,0.64,-0.11,0.73,0.22
7.486369773000206,543,1625.84,88.0,-1.7,95.5,1.11,1.76,0.6,-0.11,0.68,0.21
7.496106672999758,544,1625.85,88.1,-1.7,95.3,-0.16,1.88,0.37,-0.11,0.67,0.2
7.506204678999893,545,1625.86,88.0,-1.6,95.1,-1.51,1.91,0.06,-0.09,0.72,0.21
7.516476667000006,546,1625.87,87.8,-1.7,95.0,-2.43,1.77,-0.17,-0.09,0.79,0.21
7.526441195000189,547,1625.88,87.5,-1.7,94.8,-2.86,1.67,-0.39,-0.08,0.84,0.18
7.536526511999909,548,1625.89,87.3,-1.8,94.6,-2.68,1.63,-0.58,-0.04,0.9,0.18
7.546300113000143,549,1625.9,87.0,-1.8,94.5,-2.26,1.41,-0.74,-0.01,0.95,0.22
7.556096561999766,550,1625.91,86.8,-1.9,94.4,-2.22,0.91,-0.88,0.03,0.99,0.27
7.566390719000083,551,1625.92,86.6,-2.0,94.3,-2.32,0.23,-0.9,0.05,1.06,0.29
7.576358718999927,552,1625.93,86.4,-2.1,94.3,-1.93,-0.4,-0.78,0.07,1.13,0.31
7.586397516000034,553,1625.94,86.2,-2.1,94.4,-0.9,-0.98,-0.38,0.07,1.21,0.28
7.596530027999961,554,1625.95,86.2,-2.1,94.5,0.31,-1.42,-0.23,0.0,1.13,0.08
7.60619560799978,555,1625.96,86.2,-2.2,94.6,-0.07,-0.44,-0.57,0.08,1.14,0.02
7.616295249999894,556,1625.97,86.2,-2.3,94.7,-0.75,-0.34,-1.63,0.07,1.25,0.12
7.626317970999935,557,1625.98,86.1,-2.5,94.8,-1.62,-1.09,-2.93,0.05,1.27,0.17
7.636494137999762,558,1625.99,85.8,-2.8,94.9,-2.25,-1.59,-4.25,-0.01,1.36,0.02
7.6461204430002,559,1626.0,85.7,-3.2,95.1,0.04,-2.05,-4.23,-0.14,1.57,-0.1
7.656205985999804,560,1626.01,85.9,-3.6,95.4,1.68,-1.85,-3.34,-0.25,1.45,-0.28
7.666493720999824,561,1626.02,86.0,-3.9,95.6,0.92,-1.42,-2.35,-0.31,1.31,-0.33
7.676202896000177,562,1626.03,86.0,-4.0,95.7,-0.4,-0.68,-1.54,-0.39,1.24,-0.41
7.686221406000186,563,1626.04,85.9,-4.1,95.7,-0.77,0.68,-0.82,-0.38,1.17,-0.42
7.696288889999778,564,1626.05,85.9,-4.2,95.5,-0.55,2.01,-0.66,-0.31,1.08,-0.4
7.706182241000079,565,1626.06,85.9,-4.3,95.3,0.08,3.37,-0.91,-0.23,1.03,-0.32
7.716505961000166,566,1626.07,85.9,-4.5,94.9,0.76,4.25,-1.31,-0.15,0.98,-0.2
7.726335622000079,567,1626.08,86.1,-4.6,94.5,1.13,4.46,-1.63,-0.09,0.93,-0.14
7.735733466000056,568,1626.09,86.2,-4.9,94.0,1.11,4.56,-1.8,-0.05,0.91,-0.09
7.7457623129998865,569,1626.1,86.4,-5.1,93.6,0.74,4.4,-1.74,0.0,0.95,-0.01
7.755975368999771,570,1626.11,86.5,-5.2,93.2,0.33,3.94,-1.53,0.0,1.0,0.02
7.7662841900000785,571,1626.12,86.5,-5.3,92.8,-0.02,3.58,-1.22,0.01,1.03,0.03
7.776537341999756,572,1626.13,86.5,-5.4,92.5,-0.26,3.4,-0.85,0.01,1.08,0.01
7.786466982000093,573,1626.14,86.6,-5.5,92.1,0.01,3.22,-0.48,0.04,1.07,0.04
7.796239150000019,574,1626.15,86.6,-5.5,91.8,0.29,2.96,-0.12,0.08,1.04,0.06
7.806265730000177,575,1626.16,86.7,-5.5,91.5,0.31,2.6,0.16,0.11,1.01,0.08
7.816528926000046,576,1626.17,86.7,-5.5,91.3,0.25,2.21,0.43,0.11,0.97,0.08
7.826311782000175,577,1626.18,86.8,-5.5,91.1,0.08,1.81,0.65,0.11,0.92,0.09
7.836126182000044,578,1626.19,86.8,-5.4,90.9,0.03,1.47,0.76,0.08,0.88,0.07
7.8464713459998165,579,1626.2,86.8,-5.3,90.8,0.14,1.11,0.92,0.1,0.86,0.13
7.856253356999787,580,1626.21,86.8,-5.2,90.7,0.0,0.67,0.92,0.08,0.84,0.09
7.86605776999977,581,1626.22,86.8,-5.2,90.6,0.02,0.25,0.87,0.1,0.82,0.11
7.8762845659998675,582,1626.23,86.8,-5.1,90.6,-0.09,-0.31,0.78,0.11,0.83,0.11
7.886504820000027,583,1626.24,86.8,-5.0,90.7,-0.13,-0.77,0.71,0.12,0.86,0.09
7.896091927999805,584,1626.25,86.8,-4.9,90.8,-0.12,-1.09,0.72,0.12,0.89,0.09
7.906248761999905,585,1626.26,86.8,-4.8,90.9,-0.11,-1.39,0.76,0.11,0.9,0.1
7.916268155000125,586,1626.27,86.7,-4.8,91.1,-0.11,-1.57,0.79,0.07,0.89,0.1
7.926356936000047,587,1626.28,86.7,-4.7,91.2,-0.18,-1.65,0.75,0.03,0.87,0.12
7.936487095999837,588,1626.29,86.7,-4.6,91.4,-0.37,-1.66,0.6,0.0,0.85,0.13
7.9462795190002,589,1626.3,86.6,-4.5,91.5,-0.58,-1.63,0.4,-0.03,0.85,0.15
7.95615634800015,590,1626.31,86.5,-4.5,91.7,-0.65,-1.52,0.2,-0.04,0.88,0.16
7.966470322000077,591,1626.32,86.5,-4.5,91.8,-0.41,-1.35,0.05,-0.05,0.89,0.18
7.97631479599977,592,1626.33,86.4,-4.5,92.0,-0.08,-1.24,-0.08,-0.04,0.87,0.21
7.9861026580001635,593,1626.34,86.4,-4.5,92.1,0.16,-1.24,-0.22,-0.02,0.84,0.24
7.9964969449997625,594,1626.35,86.4,-4.5,92.2,0.23,-1.33,-0.42,0.0,0.8,0.26
8.006239446000109,595,1626.36,86.5,-4.5,92.4,0.13,-1.53,-0.65,0.04,0.77,0.27
8.016139891999956,596,1626.37,86.4,-4.6,92.6,-0.14,-1.86,-0.81,0.08,0.79,0.26
8.026385106999896,597,1626.38,86.4,-4.7,92.8,-0.51,-2.19,-0.87,0.11,0.83,0.23
8.03651747799995,598,1626.39,86.3,-4.7,93.0,-0.94,-2.52,-0.8,0.13,0.88,0.19
8.046182504000171,599,1626.4,86.2,-4.8,93.3,-1.22,-2.71,-0.68,0.13,0.93,0.13
8.056126602999939,600,1626.41,86.0,-4.9,93.6,-1.31,-2.69,-0.58,0.11,0.95,0.1
8.066290278999986,601,1626.42,85.9,-4.9,93.8,-1.25,-2.61,-0.5,0.08,0.99,0.07
8.07623423799987,602,1626.43,85.7,-4.9,94.1,-1.05,-2.39,-0.32,0.05,1.02,0.03
8.08623879400011,603,1626.44,85.6,-4.9,94.3,-0.85,-2.08,-0.04,-0.01,1.03,0.03
8.096277463000206,604,1626.45,85.5,-4.8,94.5,-0.77,-1.73,0.2,-0.08,1.0,0.0
8.106185728000128,605,1626.46,85.5,-4.8,94.6,-0.73,-0.97,0.45,-0.15,1.0,0.0
8.116204204000041,606,1626.47,85.4,-4.8,94.7,-0.75,-0.28,0.66,-0.22,0.97,0.14
8.126329594999788,607,1626.48,85.3,-4.7,94.7,-0.93,-0.1,0.66,-0.23,0.91,0.31
8.136519217000114,608,1626.49,85.2,-4.6,94.7,-1.39,-0.41,0.47,-0.14,0.92,0.39
8.146205937000104,609,1626.5,85.0,-4.6,94.8,-1.86,-1.04,0.45,-0.03,1.08,0.31
8.156248212999799,610,1626.51,84.8,-4.5,94.9,-2.53,-1.53,0.95,0.0,1.31,0.22
8.166503464000016,611,1626.52,84.5,-4.3,95.1,-3.1,-1.82,1.87,-0.06,1.44,0.17
8.176203628000167,612,1626.53,84.1,-4.1,95.2,-3.53,-1.71,2.76,-0.05,1.51,0.07
8.186520295999799,613,1626.54,83.8,-3.7,95.3,-3.6,-0.89,3.7,0.01,1.59,-0.04
8.196314296999844,614,1626.55,83.4,-3.3,95.3,-3.48,0.0,4.67,0.05,1.57,-0.01
8.20606447299997,615,1626.56,83.1,-2.8,95.2,-3.36,0.34,5.14,0.01,1.44,0.0
8.216533674999937,616,1626.57,82.8,-2.3,95.1,-2.97,0.63,4.8,-0.05,1.29,-0.09
8.226297224000064,617,1626.58,82.6,-1.9,95.0,-1.75,1.35,3.75,-0.06,1.19,-0.1
8.236212737000187,618,1626.59,82.5,-1.6,94.8,-0.39,1.53,2.54,0.03,1.19,0.0
8.246517147999839,619,1626.6,82.5,-1.4,94.6,0.63,0.93,1.79,0.06,1.21,-0.01
8.256229703999907,620,1626.61,82.6,-1.3,94.5,1.49,0.41,1.43,0.04,1.1,-0.05
8.26612901999988,621,1626.62,82.8,-1.1,94.5,1.58,-0.5,1.1,0.0,0.99,-0.03
8.2763192540001,622,1626.63,82.9,-1.0,94.6,1.35,-1.49,0.86,0.02,0.9,-0.07
8.286451150000175,623,1626.64,83.0,-0.9,94.8,1.35,-1.89,0.73,0.06,0.93,-0.19
8.296142544999839,624,1626.65,83.2,-0.8,95.0,1.8,-2.24,1.13,0.11,0.99,-0.15
8.306138739999824,625,1626.66,83.4,-0.7,95.2,2.22,-2.48,1.47,0.12,0.95,-0.13
8.316265619000205,626,1626.67,83.6,-0.5,95.4,2.59,-2.56,1.56,0.09,0.89,-0.1
8.326249718999861,627,1626.68,83.9,-0.3,95.7,2.34,-2.48,1.34,0.04,0.87,-0.08
8.336236926999845,628,1626.69,84.1,-0.2,95.9,2.07,-2.2,1.08,-0.02,0.9,-0.04
8.346254406999833,629,1626.7,84.3,0.0,96.1,2.13,-1.88,0.73,-0.09,0.91,-0.01
8.356103649000033,630,1626.71,84.5,0.0,96.2,2.44,-1.52,0.38,-0.16,0.9,0.0
8.366182910000134,631,1626.72,84.8,0.0,96.4,2.75,-1.16,0.07,-0.2,0.89,0.0
8.376359188000151,632,1626.73,85.1,0.0,96.5,2.71,-0.83,-0.22,-0.22,0.86,0.0
8.3864165949999,633,1626.74,85.3,0.0,96.5,2.19,-0.52,-0.54,-0.22,0.84,0.0
8.396176473000196,634,1626.75,85.5,0.0,96.6,1.47,-0.24,-0.82,-0.2,0.85,0.0
8.406248366,635,1626.76,85.6,-0.1,96.6,0.78,-0.01,-1.02,-0.19,0.87,0.01
8.416483480999887,636,1626.77,85.7,-0.2,96.6,0.31,0.31,-1.13,-0.16,0.91,0.0
8.426166355000078,637,1626.78,85.7,-0.4,96.6,0.28,0.63,-1.13,-0.12,0.94,0.02
8.43654091999997,638,1626.79,85.7,-0.5,96.5,0.5,0.78,-1.08,-0.08,0.94,0.06
8.446156484999847,639,1626.8,85.8,-0.7,96.4,0.71,0.69,-1.04,-0.05,0.92,0.1
8.456275716000164,640,1626.81,85.8,-0.8,96.4,0.7,0.52,-1.05,-0.03,0.89,0.12
8.46649435800009,641,1626.82,85.9,-0.9,96.3,0.58,0.33,-1.07,-0.01,0.88,0.13
8.476301569000043,642,1626.83,85.9,-1.0,96.3,0.44,0.2,-1.03,0.0,0.88,0.13
8.486258568999801,643,1626.84,85.9,-1.1,96.3,0.33,0.14,-0.93,-0.01,0.9,0.12
8.496510998999838,644,1626.85,85.8,-1.2,96.3,0.3,0.18,-0.74,-0.03,0.93,0.13
8.506205220000084,645,1626.86,85.8,-1.3,96.3,0.34,0.27,-0.51,-0.05,0.94,0.13
8.516255837999779,646,1626.87,85.8,-1.3,96.3,0.49,0.34,-0.26,-0.07,0.96,0.15
8.526302057000066,647,1626.88,85.9,-1.4,96.2,0.62,0.38,-0.04,-0.09,0.96,0.18
8.53645541700007,648,1626.89,86.0,-1.3,96.2,0.84,0.37,0.22,-0.11,0.96,0.18
8.5462076230001,649,1626.9,86.1,-1.3,96.1,1.2,0.45,0.48,-0.13,0.93,0.17
8.556258135999997,650,1626.91,86.2,-1.3,96.1,1.65,0.65,0.81,-0.15,0.88,0.17
8.566503344000012,651,1626.92,86.4,-1.2,96.0,1.93,0.97,1.07,-0.17,0.84,0.16
8.576248040999872,652,1626.93,86.6,-1.1,95.9,2.03,1.35,1.22,-0.2,0.77,0.16
8.586244523999994,653,1626.94,86.8,-0.9,95.7,1.45,1.8,1.21,-0.21,0.71,0.15
8.596341173999917,654,1626.95,86.9,-0.8,95.5,0.29,2.23,0.99,-0.19,0.67,0.16
8.606191338999906,655,1626.96,86.8,-0.8,95.2,-1.25,2.49,0.6,-0.13,0.7,0.19
8.616534551999848,656,1626.97,86.6,-0.7,95.0,-2.28,2.42,0.29,-0.09,0.79,0.23
8.626301965000039,657,1626.98,86.4,-0.7,94.8,-2.67,2.04,0.1,-0.07,0.87,0.25
8.636294603999886,658,1626.99,86.1,-0.7,94.6,-2.45,1.55,-0.03,-0.06,0.9,0.24
8.646515589000046,659,1627.0,85.9,-0.8,94.5,-2.16,1.19,-0.34,-0.03,0.92,0.22
8.656239128999914,660,1627.01,85.7,-0.8,94.4,-2.21,0.81,-0.77,0.02,0.94,0.24
8.666148391000206,661,1627.02,85.4,-1.0,94.3,-2.89,0.7,-1.04,0.08,1.02,0.27
8.676526491000004,662,1627.03,85.2,-1.1,94.3,-2.45,-0.36,-1.32,0.11,1.04,0.33
8.686480777999805,663,1627.04,85.0,-1.2,94.4,-1.73,-1.02,-1.04,0.14,1.12,0.35
8.696226875999855,664,1627.05,84.9,-1.3,94.5,-0.89,-1.55,-0.64,0.09,1.07,0.3
8.706147562999831,665,1627.06,84.8,-1.3,94.7,-0.6,-1.68,-0.72,-0.02,0.96,0.16
8.716396267000164,666,1627.07,84.6,-1.4,94.9,-2.11,-1.09,-1.59,0.01,0.96,0.15
8.726284453000062,667,1627.08,84.3,-1.6,95.0,-3.57,-0.94,-2.72,0.02,1.13,0.25
8.736204366000038,668,1627.09,83.9,-1.9,95.1,-4.25,-1.53,-4.02,-0.02,1.22,0.29
8.746256292999988,669,1627.1,83.4,-2.4,95.4,-4.03,-2.16,-5.15,-0.06,1.38,0.16
8.756220739000128,670,1627.11,83.1,-2.9,95.7,-1.11,-2.8,-5.07,-0.14,1.64,0.01
8.766228605999913,671,1627.12,83.2,-3.3,96.0,1.25,-3.07,-4.02,-0.21,1.54,-0.2
8.776362089000031,672,1627.13,83.3,-3.6,96.4,0.82,-2.67,-3.23,-0.23,1.32,-0.33
8.786490736999895,673,1627.14,83.3,-3.9,96.6,-0.25,-1.87,-2.76,-0.25,1.21,-0.42
8.796150802999819,674,1627.15,83.2,-4.1,96.8,-0.44,-0.46,-2.22,-0.25,1.23,-0.49
8.806229538000025,675,1627.16,83.2,-4.3,96.7,0.07,1.2,-1.7,-0.24,1.17,-0.49
8.81643242400014,676,1627.17,83.2,-4.5,96.6,0.37,2.95,-1.44,-0.25,1.07,-0.44
8.82621927199989,677,1627.18,83.3,-4.7,96.2,0.58,4.28,-1.51,-0.28,0.97,-0.34
8.83647831899998,678,1627.19,83.4,-4.9,95.7,0.66,5.01,-1.76,-0.29,0.92,-0.22
8.84631408999985,679,1627.2,83.5,-5.1,95.2,0.8,5.36,-1.97,-0.25,0.93,-0.11
8.856249141999797,680,1627.21,83.7,-5.4,94.7,1.03,5.16,-2.0,-0.18,0.98,-0.01
8.866483796000011,681,1627.22,83.8,-5.7,94.3,1.08,4.71,-1.96,-0.09,1.02,0.06
8.876391465999859,682,1627.23,84.0,-5.8,93.8,0.49,4.28,-1.64,0.0,1.1,0.06
8.886228888999995,683,1627.24,84.1,-6.0,93.4,0.35,3.71,-1.16,0.1,1.13,0.1
8.896495930000128,684,1627.25,84.1,-6.1,93.1,0.36,3.24,-0.52,0.2,1.17,0.13
8.906219065000187,685,1627.26,84.2,-6.2,92.8,0.38,2.52,0.19,0.29,1.15,0.17
8.916233401999762,686,1627.27,84.3,-6.2,92.6,0.37,1.8,0.76,0.29,1.1,0.17
8.926273752999805,687,1627.28,84.3,-6.1,92.4,0.2,1.16,1.21,0.26,1.03,0.17
8.936515990999851,688,1627.29,84.3,-5.9,92.3,0.03,0.71,1.48,0.17,0.99,0.1
8.946168846000091,689,1627.3,84.3,-5.8,92.3,-0.09,0.11,1.63,0.1,0.9,0.16
8.956293560000177,690,1627.31,84.3,-5.6,92.3,0.07,-0.14,1.57,0.03,0.9,0.09
8.966492513000048,691,1627.32,84.4,-5.4,92.3,0.45,-0.33,1.49,-0.02,0.87,0.07
8.976213855999958,692,1627.33,84.4,-5.2,92.3,0.84,-0.49,1.35,-0.05,0.84,0.05
8.986488104999808,693,1627.34,84.6,-5.1,92.4,1.04,-0.51,1.2,-0.05,0.84,0.06
8.99633872100003,694,1627.35,84.7,-5.0,92.4,1.13,-0.55,1.08,-0.03,0.84,0.07
9.006191195000156,695,1627.36,84.8,-4.8,92.4,1.12,-0.57,0.96,-0.02,0.85,0.08
9.016492841999934,696,1627.37,84.9,-4.7,92.5,1.05,-0.57,0.86,-0.01,0.86,0.1
9.026299622999886,697,1627.38,84.9,-4.6,92.5,1.05,-0.58,0.79,-0.01,0.87,0.12
9.036469857000156,698,1627.39,85.0,-4.4,92.6,1.03,-0.61,0.73,-0.01,0.86,0.14
9.046132776999912,699,1627.4,85.1,-4.4,92.7,0.88,-0.61,0.62,-0.01,0.85,0.16
9.056280831000095,700,1627.41,85.2,-4.3,92.7,0.74,-0.6,0.47,-0.01,0.85,0.17
9.0664470480001,701,1627.42,85.2,-4.3,92.8,0.73,-0.55,0.33,0.0,0.85,0.2
9.076520922999862,702,1627.43,85.3,-4.2,92.8,0.83,-0.6,0.19,0.01,0.84,0.23
9.086482797999906,703,1627.44,85.4,-4.2,92.9,0.9,-0.74,0.02,0.02,0.82,0.26
9.096295789000123,704,1627.45,85.5,-4.2,93.0,0.93,-0.98,-0.19,0.04,0.79,0.28
9.10609942200017,705,1627.46,85.6,-4.2,93.1,0.89,-1.26,-0.44,0.07,0.77,0.3
9.116509391999898,706,1627.47,85.6,-4.3,93.2,0.77,-1.63,-0.67,0.1,0.77,0.31
9.126319586000136,707,1627.48,85.7,-4.4,93.4,0.62,-2.01,-0.81,0.13,0.79,0.3
9.136442242000157,708,1627.49,85.7,-4.4,93.7,0.4,-2.38,-0.8,0.15,0.83,0.26
9.1464457699999,709,1627.5,85.7,-4.5,93.9,0.09,-2.7,-0.67,0.14,0.86,0.22
9.156266551000044,710,1627.51,85.7,-4.5,94.2,-0.26,-2.92,-0.51,0.1,0.86,0.16
9.166307485999823,711,1627.52,85.6,-4.5,94.5,-0.63,-3.0,-0.36,0.05,0.9,0.1
9.176473866999913,712,1627.53,85.5,-4.5,94.8,-0.94,-2.96,-0.12,0.0,0.96,0.0
9.186397293000027,713,1627.54,85.4,-4.5,95.1,-1.05,-2.39,0.17,-0.06,1.02,-0.09
9.196176472999923,714,1627.55,85.3,-4.4,95.3,-0.96,-1.44,0.39,-0.1,1.05,-0.13
9.206275986000037,715,1627.56,85.2,-4.4,95.4,-0.42,-0.39,0.49,-0.15,1.08,-0.08
9.216509942999892,716,1627.57,85.2,-4.3,95.3,0.34,0.45,0.55,-0.22,1.04,0.06
9.22622285899979,717,1627.58,85.3,-4.3,95.3,0.73,0.76,0.47,-0.24,0.93,0.27
9.236451157999909,718,1627.59,85.4,-4.2,95.2,0.62,0.33,0.23,-0.16,0.85,0.38
9.246281075999832,719,1627.6,85.4,-4.2,95.2,-0.36,-0.57,0.07,-0.01,0.97,0.33
9.256249515000036,720,1627.61,85.2,-4.2,95.3,-1.91,-1.59,0.72,0.0,1.3,0.23
9.266505886999767,721,1627.62,85.0,-4.0,95.5,-3.52,-1.96,2.07,-0.11,1.45,0.02
9.276319089000026,722,1627.63,84.6,-3.7,95.6,-4.37,-1.25,3.14,-0.04,1.48,-0.03
9.286137896000128,723,1627.64,84.1,-3.4,95.7,-4.32,-0.41,3.97,0.09,1.49,-0.03
9.296498729000177,724,1627.65,83.8,-2.9,95.7,-3.44,0.11,4.36,0.17,1.35,0.03
9.306219265999971,725,1627.66,83.4,-2.5,95.6,-3.17,-0.27,4.11,0.13,1.29,0.05
9.31646958400006,726,1627.67,83.1,-2.1,95.6,-3.11,-0.63,3.57,0.0,1.31,-0.08
9.326310852999995,727,1627.68,82.8,-1.8,95.6,-2.54,-0.27,2.83,-0.04,1.37,-0.13
9.336476988999948,728,1627.69,82.6,-1.6,95.6,-1.24,-0.5,2.19,0.0,1.47,-0.05
9.346290886000133,729,1627.7,82.6,-1.3,95.7,0.74,-0.95,1.87,-0.02,1.37,-0.07
9.35624241100004,730,1627.71,82.8,-1.2,95.8,2.29,-1.33,1.67,0.0,1.09,-0.04
9.366466557999956,731,1627.72,83.1,-1.0,95.9,2.6,-2.18,1.39,0.0,0.9,0.0
9.376334466000117,732,1627.73,83.3,-0.8,96.2,2.14,-2.89,1.19,0.08,0.8,-0.04
9.386206270999992,733,1627.74,83.5,-0.7,96.5,1.37,-3.51,1.42,0.15,0.86,-0.1
9.396538752000197,734,1627.75,83.6,-0.5,96.8,0.89,-3.78,1.85,0.15,0.89,-0.13
9.4062567699998,735,1627.76,83.6,-0.2,97.2,0.33,-3.84,1.95,0.1,0.88,-0.1
9.416226442000152,736,1627.77,83.7,0.0,97.5,0.06,-3.68,1.73,0.0,0.96,-0.08
9.426315120999789,737,1627.78,83.7,0.1,97.9,0.48,-3.39,1.42,-0.08,1.02,-0.07
9.436428483999862,738,1627.79,83.8,0.3,98.2,1.38,-2.83,1.02,-0.17,1.01,-0.07
9.446162318000006,739,1627.8,84.0,0.4,98.4,2.26,-2.22,0.6,-0.23,0.98,-0.03
9.456309079999755,740,1627.81,84.2,0.4,98.6,2.66,-1.79,0.26,-0.26,0.91,0.0
9.466485078999995,741,1627.82,84.5,0.4,98.8,2.53,-1.43,-0.1,-0.28,0.85,-0.03
9.476564459000201,742,1627.83,84.7,0.4,98.9,1.74,-0.88,-0.33,-0.26,0.84,-0.05
9.486284985000111,743,1627.84,84.9,0.4,98.9,1.04,-0.38,-0.63,-0.23,0.83,-0.04
9.496299895999982,744,1627.85,84.9,0.3,99.0,0.46,0.06,-0.83,-0.19,0.85,-0.04
9.50622961299996,745,1627.86,84.9,0.2,98.9,0.05,0.48,-1.0,-0.14,0.89,-0.03
9.51631491399985,746,1627.87,85.0,0.1,98.9,0.13,0.82,-1.09,-0.09,0.93,-0.02
9.526266270000178,747,1627.88,85.0,0.0,98.8,0.62,1.1,-1.1,-0.07,0.95,0.0
9.536309766000159,748,1627.89,85.1,-0.1,98.7,1.23,1.23,-1.03,-0.05,0.95,0.03
9.546223099000144,749,1627.9,85.3,-0.2,98.6,1.71,1.24,-0.94,-0.05,0.93,0.06
9.556181063000167,750,1627.91,85.5,-0.3,98.5,1.85,1.17,-0.87,-0.06,0.9,0.09
9.566285824999795,751,1627.92,85.6,-0.5,98.3,1.73,1.13,-0.83,-0.06,0.88,0.1
9.576301321999836,752,1627.93,85.7,-0.6,98.2,1.38,1.07,-0.79,-0.07,0.87,0.11
9.586504203999993,753,1627.94,85.8,-0.7,98.1,0.97,1.15,-0.71,-0.08,0.89,0.11
9.596215093999945,754,1627.95,85.9,-0.8,98.0,0.68,1.3,-0.55,-0.07,0.92,0.12
9.606153977999838,755,1627.96,85.9,-0.9,97.9,0.58,1.41,-0.34,-0.07,0.95,0.14
9.616300215000138,756,1627.97,86.0,-1.0,97.7,0.71,1.43,-0.1,-0.07,0.96,0.17
9.62640723200002,757,1627.98,86.0,-1.0,97.6,0.96,1.39,0.15,-0.07,0.95,0.19
9.63648060200012,758,1627.99,86.2,-1.0,97.5,1.19,1.33,0.4,-0.08,0.93,0.2
9.646306314999947,759,1628.0,86.3,-0.9,97.3,1.45,1.32,0.65,-0.11,0.89,0.19
9.656143675999829,760,1628.01,86.5,-0.8,97.2,1.67,1.51,0.88,-0.14,0.84,0.18
9.666151419000016,761,1628.02,86.6,-0.8,97.0,1.75,1.75,1.04,-0.17,0.79,0.17
9.676284348000081,762,1628.03,86.8,-0.7,96.8,1.59,2.03,1.1,-0.19,0.73,0.17
9.686218091999763,763,1628.04,86.9,-0.6,96.6,0.88,2.38,1.02,-0.19,0.68,0.16
9.696491067999887,764,1628.05,86.9,-0.5,96.3,-0.48,2.78,0.73,-0.17,0.65,0.18
9.70625494099977,765,1628.06,86.8,-0.5,96.0,-1.86,2.94,0.37,-0.12,0.71,0.2
9.716371459000129,766,1628.07,86.6,-0.4,95.7,-2.72,2.87,0.12,-0.08,0.81,0.19
9.726322749999781,767,1628.08,86.3,-0.5,95.5,-2.98,2.7,-0.07,-0.05,0.88,0.17
9.73648460100003,768,1628.09,86.0,-0.5,95.2,-2.75,2.44,-0.28,-0.02,0.94,0.18
9.746226072999889,769,1628.1,85.7,-0.6,95.0,-2.46,1.85,-0.54,0.03,0.97,0.23
9.755905298000016,770,1628.11,85.5,-0.6,94.9,-2.08,1.04,-0.88,0.09,1.0,0.26
9.765634890000001,771,1628.12,85.3,-0.8,94.8,-1.55,0.07,-1.25,0.16,1.0,0.31
9.776098692999767,772,1628.13,85.2,-0.9,94.9,-0.91,-0.88,-1.49,0.22,1.03,0.34
9.78627309400008,773,1628.14,85.1,-1.0,95.0,-0.57,-1.41,-1.19,0.21,1.07,0.36
9.7962598539998,774,1628.15,85.1,-1.1,95.2,0.28,-2.53,-1.23,0.08,1.04,0.21
9.806272129999797,775,1628.16,85.1,-1.3,95.5,-0.77,-1.97,-1.63,0.06,1.02,0.17
9.816249463000077,776,1628.17,84.9,-1.5,95.7,-2.69,-1.58,-2.43,0.06,1.12,0.26
9.826299603999814,777,1628.18,84.6,-1.7,95.9,-3.25,-1.99,-3.26,-0.03,1.24,0.33
9.836506636000195,778,1628.19,84.3,-2.1,96.1,-2.74,-2.36,-3.99,-0.14,1.28,0.21
9.846286510000027,779,1628.2,84.1,-2.5,96.4,-1.34,-2.59,-4.26,-0.26,1.41,0.07
9.856184755999948,780,1628.21,84.0,-2.9,96.7,0.24,-2.79,-3.79,-0.32,1.48,-0.07
9.866276127999754,781,1628.22,84.0,-3.2,97.0,-0.52,-2.51,-3.34,-0.32,1.4,-0.22
9.876221352999892,782,1628.23,83.9,-3.5,97.3,-1.59,-1.82,-2.8,-0.29,1.42,-0.31
9.886485886000173,783,1628.24,83.7,-3.7,97.4,-1.08,-0.8,-1.95,-0.32,1.46,-0.35
9.896351156000037,784,1628.25,83.7,-3.9,97.5,0.21,0.37,-1.08,-0.34,1.34,-0.37
9.906114447000164,785,1628.26,83.7,-3.9,97.4,1.19,1.88,-0.73,-0.31,1.15,-0.44
9.91627741100001,786,1628.27,83.9,-4.1,97.1,1.34,3.6,-0.83,-0.23,0.99,-0.43
9.926313452000159,787,1628.28,84.1,-4.2,96.7,1.25,4.96,-1.12,-0.19,0.92,-0.36
9.936419144999945,788,1628.29,84.2,-4.4,96.1,1.13,5.81,-1.39,-0.18,0.87,-0.29
9.9461637899999,789,1628.3,84.4,-4.6,95.5,0.92,6.18,-1.6,-0.15,0.85,-0.18
9.956297408999944,790,1628.31,84.5,-4.8,94.9,0.87,6.08,-1.76,-0.11,0.87,-0.07
9.966137567999795,791,1628.32,84.7,-5.0,94.4,0.77,5.57,-1.76,-0.05,0.95,0.01
9.976141789999929,792,1628.33,84.8,-5.2,93.9,0.63,4.8,-1.62,0.0,1.03,0.06
9.986345363000055,793,1628.34,84.9,-5.4,93.4,0.72,4.14,-1.27,0.05,1.1,0.05
9.996271174999947,794,1628.35,85.0,-5.5,93.0,0.92,3.82,-0.75,0.13,1.12,0.04
