host_time_s,seq,device_time_s,roll,pitch,yaw,gyro_x,gyro_y,gyro_z,accel_x,accel_y,accel_z
2.0692836420003005,3,1687.41,-95.0,-5.7,92.6,-1.04,-0.27,0.55,-0.07,-1.07,-0.36
2.080896443000256,4,1687.42,-95.2,-5.7,92.6,-2.67,0.8,-0.22,-0.04,-1.46,-0.26
2.0911502110002402,5,1687.43,-95.6,-5.6,92.7,-4.3,1.13,-1.64,-0.14,-1.59,-0.05
2.1011589300001106,6,1687.44,-96.1,-5.3,92.8,-5.45,0.23,-2.61,-0.09,-1.65,0.07
2.111203809000017,7,1687.45,-96.6,-5.0,92.7,-4.92,-1.08,-3.52,0.03,-1.64,0.11
2.120986837000146,8,1687.46,-97.0,-4.6,92.5,-3.23,-2.29,-4.13,0.13,-1.39,0.0
2.131181568000102,9,1687.47,-97.2,-4.3,92.2,-2.5,-1.9,-3.93,0.13,-1.23,-0.08
2.1412003039999945,10,1687.48,-97.5,-3.9,92.0,-2.97,-1.19,-3.45,0.03,-1.25,0.07
2.1511292730001514,11,1687.49,-97.8,-3.6,91.9,-3.07,-1.19,-3.01,0.0,-1.32,0.1
2.161091983999995,12,1687.5,-98.0,-3.4,91.7,-2.21,-1.09,-2.48,0.03,-1.32,0.07
2.1712193680000382,13,1687.51,-98.1,-3.2,91.6,-0.09,-0.71,-1.88,0.05,-1.16,-0.03
2.181158587000027,14,1687.52,-98.0,-3.0,91.5,1.49,0.25,-1.1,0.06,-1.02,-0.1
2.1911093090002396,15,1687.53,-97.9,-2.9,91.6,2.24,1.23,-0.58,0.09,-0.93,-0.09
2.201217968000037,16,1687.54,-97.6,-2.9,91.8,2.22,2.36,-0.27,0.17,-0.85,-0.07
2.2111510220001946,17,1687.55,-97.5,-2.8,92.1,1.3,3.45,-0.09,0.23,-0.87,0.03
2.2210476620002737,18,1687.56,-97.4,-2.7,92.5,0.91,4.11,-0.35,0.22,-0.96,0.12
2.2312316960001226,19,1687.57,-97.3,-2.6,92.9,1.61,4.19,-0.93,0.12,-0.95,0.18
2.2412042810001367,20,1687.58,-97.1,-2.5,93.3,1.91,4.11,-1.03,0.02,-0.87,0.12
2.251130925000325,21,1687.59,-97.0,-2.3,93.7,1.81,4.19,-0.94,-0.08,-0.93,0.09
2.2611672900002304,22,1687.6,-96.8,-2.2,94.0,1.97,3.58,-0.82,-0.2,-0.92,0.14
2.2711766170000374,23,1687.61,-96.6,-2.1,94.4,1.98,2.8,-0.54,-0.28,-0.89,0.05
2.2812392240002737,24,1687.62,-96.4,-2.0,94.6,2.05,2.27,-0.11,-0.32,-0.89,0.02
2.2911354689999825,25,1687.63,-96.2,-2.0,94.8,1.94,1.67,0.24,-0.32,-0.86,0.04
2.3011800580002273,26,1687.64,-96.0,-2.0,94.9,1.41,1.1,0.64,-0.27,-0.84,0.02
2.3109461340000053,27,1687.65,-95.9,-2.1,95.0,0.73,0.77,0.96,-0.2,-0.86,0.0
2.32117356200024,28,1687.66,-95.9,-2.2,95.1,0.09,0.51,1.16,-0.15,-0.92,-0.02
2.3312106749999657,29,1687.67,-95.9,-2.3,95.2,-0.04,0.22,1.25,-0.11,-0.98,-0.01
2.340985708000062,30,1687.68,-95.9,-2.5,95.2,0.39,-0.13,1.17,-0.08,-1.02,-0.03
2.351222255000266,31,1687.69,-95.8,-2.6,95.1,0.99,-0.33,1.08,-0.06,-1.01,-0.07
2.3611895960002585,32,1687.7,-95.6,-2.7,95.1,1.5,-0.32,1.0,-0.06,-0.97,-0.09
2.3711228710003525,33,1687.71,-95.5,-2.8,95.1,1.74,-0.26,0.94,-0.06,-0.93,-0.1
2.381220045000191,34,1687.72,-95.3,-2.9,95.1,1.8,-0.18,0.83,-0.07,-0.9,-0.11
2.3911355150003146,35,1687.73,-95.1,-3.0,95.1,1.61,-0.13,0.77,-0.08,-0.87,-0.11
2.401185526000063,36,1687.74,-95.0,-3.1,95.1,1.29,-0.2,0.73,-0.09,-0.85,-0.1
2.4110920590001115,37,1687.75,-94.9,-3.2,95.1,0.88,-0.34,0.68,-0.1,-0.87,-0.09
2.4211092630002895,38,1687.76,-94.9,-3.4,95.0,0.54,-0.52,0.58,-0.11,-0.89,-0.1
2.431117390000054,39,1687.77,-94.8,-3.4,95.0,0.45,-0.78,0.36,-0.11,-0.91,-0.12
2.441016805000345,40,1687.78,-94.8,-3.5,94.9,0.63,-0.85,0.14,-0.11,-0.93,-0.17
2.451187413000298,41,1687.79,-94.7,-3.5,94.8,1.04,-0.85,-0.14,-0.12,-0.94,-0.19
2.461106502000348,42,1687.8,-94.6,-3.5,94.7,1.65,-0.88,-0.5,-0.13,-0.92,-0.19
2.471077537000383,43,1687.81,-94.4,-3.4,94.6,2.24,-1.04,-0.86,-0.15,-0.88,-0.16
2.48120307399995,44,1687.82,-94.1,-3.3,94.5,2.62,-1.27,-1.14,-0.18,-0.8,-0.17
2.4911285940002017,45,1687.83,-93.8,-3.2,94.3,2.43,-1.48,-1.24,-0.2,-0.72,-0.16
2.50116581400016,46,1687.84,-93.6,-3.1,94.2,1.5,-1.71,-1.11,-0.19,-0.65,-0.16
2.5111197960000027,47,1687.85,-93.6,-3.0,94.0,-0.11,-1.9,-0.76,-0.16,-0.62,-0.17
2.5211415630001284,48,1687.86,-93.7,-3.0,93.8,-1.81,-1.88,-0.33,-0.11,-0.68,-0.22
2.531101043000035,49,1687.87,-93.9,-3.0,93.6,-2.85,-1.55,-0.05,-0.09,-0.77,-0.25
2.5410507420001522,50,1687.88,-94.2,-3.0,93.5,-3.21,-1.21,0.11,-0.06,-0.82,-0.23
2.551192965000155,51,1687.89,-94.5,-3.0,93.4,-2.82,-0.89,0.2,-0.02,-0.87,-0.25
2.5610377100001642,52,1687.9,-94.7,-3.0,93.3,-2.34,-0.35,0.4,0.0,-0.88,-0.28
2.5712278350001725,53,1687.91,-95.0,-3.1,93.3,-2.47,0.31,0.73,0.06,-0.91,-0.32
2.581209627000135,54,1687.92,-95.2,-3.2,93.4,-2.68,1.15,0.97,0.1,-0.99,-0.34
2.591146332000335,55,1687.93,-95.5,-3.3,93.6,-2.14,2.02,0.83,0.13,-1.08,-0.34
2.6011676810003337,56,1687.94,-95.7,-3.3,93.8,-0.83,2.56,0.3,0.09,-1.15,-0.32
2.6111124140002175,57,1687.95,-95.7,-3.3,94.1,0.54,2.86,-0.45,-0.01,-1.14,-0.25
2.621163632000389,58,1687.96,-95.6,-3.2,94.4,1.16,2.58,-0.74,-0.17,-1.01,-0.02
2.6312110520002534,59,1687.97,-95.6,-3.1,94.5,-0.45,1.46,0.16,-0.17,-0.91,-0.04
2.6410662970001795,60,1687.98,-95.8,-3.2,94.7,-3.04,0.77,1.69,-0.15,-1.08,-0.19
2.6511197970003195,61,1687.99,-96.2,-3.5,94.8,-5.09,0.86,3.23,-0.07,-1.22,-0.26
2.661289241000304,62,1688.0,-96.8,-3.9,94.9,-4.73,1.42,4.62,-0.09,-1.37,-0.15
2.6712314610003887,63,1688.01,-97.2,-4.3,95.2,-2.05,1.96,4.96,-0.24,-1.72,0.08
2.6810863660002724,64,1688.02,-97.2,-4.8,95.4,0.77,1.26,4.27,-0.26,-1.68,0.28
2.691244900000129,65,1688.03,-97.1,-5.1,95.5,0.22,0.9,3.58,-0.23,-1.56,0.27
2.701236011000219,66,1688.04,-97.2,-5.4,95.7,-0.65,0.32,2.74,-0.33,-1.5,0.34
2.711155043999952,67,1688.05,-97.2,-5.7,95.7,-0.27,-0.74,1.8,-0.37,-1.44,0.31
2.7211630220003826,68,1688.06,-97.2,-5.8,95.5,0.74,-1.72,1.09,-0.33,-1.32,0.34
2.731209234000289,69,1688.07,-97.1,-5.9,95.3,1.37,-2.96,0.77,-0.27,-1.16,0.35
2.7411854090000816,70,1688.08,-96.9,-6.1,95.0,1.63,-4.05,0.77,-0.2,-1.05,0.31
2.7513178650001464,71,1688.09,-96.6,-6.2,94.5,1.97,-5.03,0.88,-0.16,-0.94,0.27
2.7612308620000476,72,1688.1,-96.4,-6.4,94.0,1.93,-5.52,1.04,-0.12,-0.85,0.16
2.771239180000066,73,1688.11,-96.1,-6.5,93.4,1.61,-5.55,1.15,-0.09,-0.84,0.03
2.7812195800001973,74,1688.12,-95.9,-6.7,92.9,1.21,-5.16,1.12,-0.06,-0.86,-0.05
2.7911279150002883,75,1688.13,-95.7,-6.8,92.4,0.65,-4.61,1.04,-0.02,-0.92,-0.09
2.801287183000113,76,1688.14,-95.6,-6.9,92.0,0.31,-4.05,0.8,0.0,-1.0,-0.1
2.8111134760001733,77,1688.15,-95.6,-7.0,91.6,0.15,-3.63,0.4,0.05,-1.05,-0.08
2.8211583790002805,78,1688.16,-95.5,-7.0,91.3,0.13,-3.29,0.0,0.1,-1.08,-0.09
2.8313007920000928,79,1688.17,-95.5,-7.0,91.0,0.32,-2.8,-0.4,0.13,-1.09,-0.11
2.8410129110002345,80,1688.18,-95.4,-7.0,90.7,0.63,-2.34,-0.79,0.13,-1.07,-0.1
2.851262620000398,81,1688.19,-95.3,-6.9,90.5,0.78,-1.99,-1.09,0.11,-0.99,-0.1
2.8612207830001353,82,1688.2,-95.2,-6.8,90.3,0.75,-1.69,-1.22,0.07,-0.91,-0.09
2.8711271080001097,83,1688.21,-95.1,-6.7,90.1,0.68,-1.46,-1.27,0.05,-0.86,-0.09
2.8812927840003795,84,1688.22,-95.0,-6.6,90.0,0.68,-1.2,-1.28,0.03,-0.82,-0.1
2.89115990900018,85,1688.23,-94.9,-6.5,89.9,0.63,-0.9,-1.22,0.03,-0.8,-0.11
2.9012221830003,86,1688.24,-94.9,-6.3,89.8,0.6,-0.56,-1.09,0.03,-0.8,-0.12
2.911163489000046,87,1688.25,-94.8,-6.3,89.8,0.54,-0.12,-0.87,0.05,-0.82,-0.13
2.9211490070001673,88,1688.26,-94.7,-6.2,89.8,0.42,0.25,-0.7,0.06,-0.87,-0.12
2.931208360000255,89,1688.27,-94.7,-6.1,89.8,0.32,0.51,-0.66,0.05,-0.93,-0.12
2.9410811010002362,90,1688.28,-94.7,-6.0,89.9,0.38,0.67,-0.72,0.04,-0.95,-0.12
2.9512150580003436,91,1688.29,-94.6,-5.9,89.9,0.44,0.72,-0.79,0.01,-0.93,-0.12
2.961240535000343,92,1688.3,-94.6,-5.9,90.0,0.47,0.7,-0.8,0.0,-0.91,-0.13
2.9712239540003793,93,1688.31,-94.6,-5.8,90.0,0.47,0.67,-0.75,-0.02,-0.88,-0.14
2.9812936870002886,94,1688.32,-94.5,-5.7,90.1,0.47,0.68,-0.66,-0.04,-0.86,-0.17
2.991095520000272,95,1688.33,-94.5,-5.6,90.2,0.52,0.68,-0.55,-0.05,-0.85,-0.18
3.00121062900007,96,1688.34,-94.4,-5.6,90.2,0.75,0.57,-0.46,-0.05,-0.83,-0.18
3.0110419980001097,97,1688.35,-94.3,-5.5,90.3,1.07,0.39,-0.28,-0.03,-0.79,-0.2
3.021121835000031,98,1688.36,-94.2,-5.5,90.3,1.27,0.33,-0.03,-0.01,-0.76,-0.25
3.03108694499997,99,1688.37,-94.1,-5.5,90.3,1.2,0.46,0.29,0.01,-0.73,-0.29
3.041236121000111,100,1688.38,-94.0,-5.6,90.4,0.9,0.77,0.6,0.03,-0.73,-0.31
3.0512265540000953,101,1688.39,-93.9,-5.6,90.5,0.32,1.2,0.85,0.06,-0.77,-0.28
3.0611876400002984,102,1688.4,-94.0,-5.7,90.7,-0.28,1.56,0.92,0.07,-0.82,-0.23
3.0712341299999935,103,1688.41,-94.0,-5.8,90.8,-0.89,1.7,0.84,0.06,-0.88,-0.16
3.081208665000304,104,1688.42,-94.2,-5.9,91.0,-1.24,1.53,0.71,0.04,-0.91,-0.11
3.091207213999951,105,1688.43,-94.3,-5.9,91.2,-1.37,1.25,0.63,0.02,-0.92,-0.09
3.10122723700033,106,1688.44,-94.5,-5.9,91.3,-1.36,0.96,0.52,0.0,-0.95,-0.07
3.1111537990000215,107,1688.45,-94.6,-5.9,91.4,-1.43,0.65,0.32,-0.03,-0.98,-0.06
3.1211678670001675,108,1688.46,-94.8,-5.9,91.4,-1.57,0.35,0.08,-0.09,-1.01,-0.07
3.1311596360001204,109,1688.47,-94.9,-5.9,91.4,-1.66,-0.05,-0.05,-0.15,-1.0,-0.05
3.141210890000366,110,1688.48,-95.1,-6.0,91.4,-1.59,-0.74,-0.02,-0.2,-1.01,-0.06
3.1510825740001565,111,1688.49,-95.2,-6.0,91.3,-1.3,-1.45,0.1,-0.21,-0.98,-0.18
3.1611720089999835,112,1688.5,-95.3,-6.0,91.1,-0.94,-1.74,0.37,-0.16,-0.94,-0.34
3.171063563000189,113,1688.51,-95.3,-6.1,90.9,-0.63,-1.41,0.78,-0.05,-0.9,-0.46
3.1810872139999447,114,1688.52,-95.4,-6.2,90.8,-0.86,-0.66,1.19,0.09,-0.97,-0.47
3.191315333000148,115,1688.53,-95.6,-6.3,90.8,-2.22,0.47,0.85,0.18,-1.27,-0.4
3.201284814000246,116,1688.54,-95.9,-6.4,91.0,-3.62,1.86,-0.34,0.08,-1.56,-0.25
3.21116284000027,117,1688.55,-96.3,-6.2,91.2,-4.73,2.13,-1.76,-0.02,-1.61,-0.03
3.2212844310001856,118,1688.56,-96.9,-6.0,91.3,-5.4,1.33,-2.86,-0.02,-1.7,0.07
3.231255189999956,119,1688.57,-97.3,-5.6,91.4,-4.16,0.44,-4.13,-0.02,-1.64,0.16
3.2411706190000587,120,1688.58,-97.7,-5.2,91.3,-2.5,-0.13,-4.44,-0.05,-1.39,0.13
3.251242913000169,121,1688.59,-97.9,-4.7,91.2,-1.95,-0.02,-3.92,-0.1,-1.21,0.21
3.2612473530002717,122,1688.6,-98.0,-4.4,91.2,-1.41,-0.77,-3.04,-0.1,-1.16,0.21
3.271111307999945,123,1688.61,-98.1,-4.2,91.0,-0.56,-0.74,-2.4,0.0,-1.13,0.02
3.281218699999954,124,1688.62,-98.1,-3.9,91.0,0.31,0.2,-1.94,0.03,-0.98,-0.01
3.2912925700002233,125,1688.63,-98.1,-3.8,91.0,0.85,1.02,-1.28,0.04,-0.85,-0.02
3.301188682999964,126,1688.64,-98.0,-3.7,91.2,0.58,1.8,-0.62,0.09,-0.85,0.01
3.3110405020001963,127,1688.65,-98.0,-3.6,91.4,0.26,2.41,-0.47,0.13,-1.0,0.0
3.321234180000374,128,1688.66,-98.0,-3.5,91.6,-0.07,3.23,-0.7,0.17,-1.04,0.01
3.3310396209999453,129,1688.67,-98.0,-3.3,92.0,0.11,3.72,-1.19,0.16,-1.09,0.08
3.340997862000222,130,1688.68,-98.0,-3.1,92.3,1.05,3.93,-1.85,0.08,-1.12,0.12
3.351230348000172,131,1688.69,-97.8,-2.9,92.7,1.37,3.73,-1.91,-0.01,-1.0,0.07
3.3611841890001415,132,1688.7,-97.7,-2.7,93.0,1.26,3.65,-1.67,-0.11,-0.99,0.04
3.371112882000034,133,1688.71,-97.6,-2.5,93.3,1.52,3.19,-1.45,-0.21,-0.97,0.07
3.3811569570002575,134,1688.72,-97.5,-2.3,93.6,1.72,2.38,-1.11,-0.28,-0.92,0.06
3.3911170800001855,135,1688.73,-97.3,-2.2,93.8,1.65,1.66,-0.66,-0.33,-0.88,0.0
3.401064540000334,136,1688.74,-97.1,-2.1,93.9,1.43,1.04,-0.17,-0.33,-0.84,0.0
3.4110991980001018,137,1688.75,-97.0,-2.1,94.0,0.91,0.5,0.36,-0.29,-0.83,-0.01
3.4209667300001456,138,1688.76,-97.0,-2.2,94.0,0.35,0.09,0.83,-0.22,-0.85,-0.02
3.4307912070003113,139,1688.77,-97.0,-2.3,94.0,-0.04,-0.21,1.16,-0.16,-0.88,-0.04
3.4406603810002707,140,1688.78,-97.0,-2.4,94.0,-0.21,-0.35,1.36,-0.1,-0.93,-0.05
3.450814279000042,141,1688.79,-96.9,-2.6,94.0,0.0,-0.47,1.35,-0.06,-0.97,-0.04
3.461110808000285,142,1688.8,-96.9,-2.7,93.9,0.5,-0.62,1.2,-0.05,-0.98,-0.04
3.4711541020001278,143,1688.81,-96.7,-2.9,93.9,0.95,-0.65,1.0,-0.05,-0.96,-0.06
3.4812279220000164,144,1688.82,-96.6,-3.0,93.8,1.35,-0.65,0.84,-0.07,-0.93,-0.06
3.491031958000349,145,1688.83,-96.4,-3.1,93.8,1.59,-0.61,0.69,-0.08,-0.91,-0.05
3.501229749000231,146,1688.84,-96.2,-3.2,93.7,1.71,-0.67,0.58,-0.11,-0.9,-0.02
3.5111166619999494,147,1688.85,-96.0,-3.2,93.6,1.62,-0.88,0.49,-0.13,-0.89,0.0
3.5210088890003135,148,1688.86,-95.9,-3.3,93.5,1.46,-1.23,0.48,-0.16,-0.87,0.0
3.5312567650003075,149,1688.87,-95.7,-3.4,93.4,1.26,-1.58,0.49,-0.17,-0.87,-0.02
3.5411756190001142,150,1688.88,-95.6,-3.4,93.2,1.14,-1.89,0.51,-0.17,-0.87,-0.06
3.5511345590002747,151,1688.89,-95.5,-3.5,93.0,1.23,-2.1,0.46,-0.15,-0.88,-0.12
3.5610784580003383,152,1688.9,-95.3,-3.6,92.8,1.49,-2.22,0.35,-0.12,-0.89,-0.19
3.5712209910002457,153,1688.91,-95.1,-3.6,92.6,1.89,-2.18,0.13,-0.1,-0.9,-0.25
3.5809447950000504,154,1688.92,-94.9,-3.6,92.4,2.33,-2.02,-0.18,-0.09,-0.88,-0.29
3.591161208000358,155,1688.93,-94.7,-3.6,92.2,2.61,-1.83,-0.55,-0.09,-0.84,-0.29
3.601229928000066,156,1688.94,-94.4,-3.6,92.0,2.39,-1.69,-0.83,-0.09,-0.78,-0.3
3.6110752600002343,157,1688.95,-94.2,-3.5,91.9,1.49,-1.53,-0.97,-0.09,-0.73,-0.3
3.6210899370003062,158,1688.96,-94.1,-3.4,91.7,0.03,-1.32,-0.92,-0.07,-0.72,-0.29
3.6311986340001567,159,1688.97,-94.2,-3.3,91.6,-1.49,-1.23,-0.75,-0.07,-0.77,-0.27
3.6411325050003143,160,1688.98,-94.4,-3.3,91.4,-2.52,-1.15,-0.58,-0.07,-0.86,-0.27
3.6511178790001395,161,1688.99,-94.6,-3.2,91.3,-2.75,-0.96,-0.51,-0.09,-0.93,-0.25
3.661175032000301,162,1689.0,-94.9,-3.2,91.2,-2.27,-0.86,-0.46,-0.1,-0.97,-0.22
3.6712210720002076,163,1689.01,-95.1,-3.1,91.2,-1.31,-0.68,-0.44,-0.09,-0.97,-0.21
3.680939044000297,164,1689.02,-95.2,-3.1,91.1,-0.67,-0.4,-0.26,-0.06,-0.94,-0.22
3.6912334280000323,165,1689.03,-95.2,-3.1,91.1,-0.78,0.09,0.09,0.0,-0.92,-0.28
3.701195174000077,166,1689.04,-95.3,-3.1,91.1,-1.15,0.82,0.5,0.03,-0.93,-0.32
3.7111222800003816,167,1689.05,-95.5,-3.2,91.3,-1.17,1.58,0.79,0.07,-0.98,-0.34
3.7212291000000732,168,1689.06,-95.6,-3.2,91.5,-0.57,2.16,0.74,0.07,-1.04,-0.36
3.731225493000238,169,1689.07,-95.6,-3.3,91.7,0.29,2.64,0.47,0.01,-1.07,-0.29
3.7410100670003885,170,1689.08,-95.6,-3.3,92.0,0.8,2.58,0.52,-0.1,-1.0,-0.16
3.7512418770002114,171,1689.09,-95.6,-3.4,92.2,-0.52,2.13,1.47,-0.03,-1.02,-0.17
3.761251053000251,172,1689.1,-95.8,-3.6,92.5,-1.86,2.04,2.49,0.02,-1.18,-0.22
3.7710533890003717,173,1689.11,-96.0,-3.8,92.7,-2.2,2.35,3.63,0.01,-1.25,-0.27
3.7811880700000984,174,1689.12,-96.2,-4.2,93.0,-1.46,2.88,4.6,-0.04,-1.36,-0.19
3.791136937000374,175,1689.13,-96.2,-4.6,93.4,1.32,3.57,4.59,-0.17,-1.6,-0.05
3.8010960870001327,176,1689.14,-96.0,-5.0,93.8,2.56,3.6,3.79,-0.24,-1.48,0.13
3.8111542000001464,177,1689.15,-95.9,-5.3,94.2,1.21,3.46,3.25,-0.26,-1.35,0.25
3.82118091700022,178,1689.16,-95.9,-5.6,94.5,-0.16,2.67,2.53,-0.34,-1.31,0.38
3.8311202520003462,179,1689.17,-95.9,-5.8,94.8,-0.63,1.53,1.62,-0.44,-1.29,0.41
3.841131728000164,180,1689.18,-96.0,-5.9,94.9,-0.41,0.31,0.83,-0.47,-1.24,0.38
3.8511768390003454,181,1689.19,-96.0,-5.9,94.8,-0.06,-0.95,0.51,-0.43,-1.14,0.43
3.860983158000181,182,1689.2,-96.0,-6.0,94.7,0.34,-2.69,0.6,-0.34,-1.09,0.41
3.8711593360003462,183,1689.21,-95.9,-6.1,94.3,0.82,-3.91,0.7,-0.23,-1.09,0.38
3.881144121000034,184,1689.22,-95.7,-6.2,93.9,1.33,-5.09,0.58,-0.15,-1.01,0.32
3.8910680030003277,185,1689.23,-95.5,-6.3,93.3,1.64,-5.59,0.54,-0.1,-0.92,0.19
3.901136016000237,186,1689.24,-95.3,-6.4,92.8,1.66,-5.65,0.56,-0.07,-0.86,0.1
3.911117314999956,187,1689.25,-95.1,-6.6,92.2,1.33,-5.47,0.63,-0.04,-0.84,0.02
3.9211515199999667,188,1689.26,-94.9,-6.6,91.7,0.97,-5.0,0.69,-0.02,-0.87,-0.03
3.9308230420001564,189,1689.27,-94.7,-6.7,91.2,0.7,-4.52,0.64,-0.02,-0.94,-0.03
3.941064362000361,190,1689.28,-94.6,-6.8,90.8,0.58,-4.21,0.48,0.0,-1.0,-0.04
3.951178118000371,191,1689.29,-94.5,-6.8,90.4,0.63,-3.88,0.24,0.03,-1.04,-0.08
3.960901907000334,192,1689.3,-94.4,-6.9,90.0,0.86,-3.45,-0.01,0.07,-1.04,-0.11
3.9709328290000485,193,1689.31,-94.2,-6.9,89.7,0.93,-3.09,-0.24,0.1,-1.02,-0.1
3.9812380780003878,194,1689.32,-94.1,-6.9,89.4,0.68,-2.72,-0.43,0.1,-0.98,-0.11
3.9910100590000184,195,1689.33,-94.0,-6.8,89.2,0.31,-2.31,-0.65,0.1,-0.96,-0.12
4.001257763000012,196,1689.34,-94.0,-6.8,88.9,0.07,-1.93,-0.9,0.1,-0.94,-0.12
4.011247385000388,197,1689.35,-94.0,-6.7,88.8,0.06,-1.54,-1.05,0.11,-0.92,-0.13
4.021001419000186,198,1689.36,-93.9,-6.6,88.6,0.18,-1.01,-1.11,0.12,-0.91,-0.15
4.0311887080001725,199,1689.37,-93.9,-6.5,88.5,0.38,-0.46,-1.03,0.13,-0.91,-0.16
4.041209706000245,200,1689.38,-93.8,-6.4,88.5,0.6,0.09,-0.93,0.13,-0.92,-0.16
4.051097432999995,201,1689.39,-93.8,-6.3,88.6,0.79,0.58,-0.89,0.11,-0.93,-0.16
4.061184192000383,202,1689.4,-93.7,-6.2,88.6,0.89,0.99,-0.89,0.08,-0.92,-0.15
4.071243309000238,203,1689.41,-93.6,-6.1,88.7,0.82,1.22,-0.91,0.03,-0.91,-0.13
4.0812401430002865,204,1689.42,-93.6,-6.0,88.9,0.7,1.25,-0.9,0.0,-0.89,-0.12
4.090729790000296,205,1689.43,-93.5,-5.9,89.0,0.67,1.16,-0.84,-0.04,-0.89,-0.13
4.10117413800026,206,1689.44,-93.5,-5.8,89.1,0.73,1.07,-0.74,-0.08,-0.88,-0.14
4.111042568000357,207,1689.45,-93.5,-5.7,89.2,0.85,0.9,-0.58,-0.1,-0.88,-0.14
4.121214171000247,208,1689.46,-93.5,-5.7,89.3,0.97,0.68,-0.38,-0.1,-0.86,-0.15
4.131125548999989,209,1689.47,-93.4,-5.7,89.3,1.05,0.48,-0.17,-0.09,-0.85,-0.17
4.1409510040002715,210,1689.48,-93.3,-5.7,89.4,1.16,0.31,0.03,-0.07,-0.83,-0.2
4.151126614000077,211,1689.49,-93.2,-5.7,89.4,1.24,0.24,0.3,-0.03,-0.79,-0.23
4.1612142880003375,212,1689.5,-93.0,-5.7,89.4,1.16,0.32,0.55,0.0,-0.77,-0.26
4.171072448000359,213,1689.51,-92.9,-5.8,89.5,1.0,0.49,0.77,0.02,-0.75,-0.27
4.181033059000129,214,1689.52,-92.9,-5.9,89.5,0.77,0.81,0.99,0.05,-0.74,-0.28
4.191081153000141,215,1689.53,-92.8,-6.0,89.6,0.5,1.2,1.12,0.09,-0.76,-0.24
4.201141970000208,216,1689.54,-92.8,-6.1,89.8,0.14,1.56,1.19,0.12,-0.79,-0.22
4.210892377000164,217,1689.55,-92.8,-6.2,90.0,-0.44,1.87,1.16,0.12,-0.84,-0.18
4.221209948000251,218,1689.56,-92.9,-6.3,90.2,-1.0,1.93,1.09,0.1,-0.89,-0.13
4.231218759000058,219,1689.57,-93.1,-6.4,90.4,-1.25,1.84,1.01,0.07,-0.92,-0.11
4.240891998000279,220,1689.58,-93.2,-6.5,90.6,-1.13,1.73,0.89,0.01,-0.96,-0.08
4.251220901000124,221,1689.59,-93.3,-6.5,90.7,-0.95,1.57,0.69,-0.05,-1.0,-0.05
4.261171137000019,222,1689.6,-93.4,-6.5,90.9,-0.81,1.23,0.51,-0.13,-0.99,-0.02
4.2711972280003465,223,1689.61,-93.5,-6.6,91.0,-0.75,0.63,0.43,-0.2,-1.0,-0.01
4.281128566999996,224,1689.62,-93.5,-6.7,91.0,-0.5,-0.17,0.46,-0.26,-0.99,-0.06
4.2910814189999655,225,1689.63,-93.6,-6.7,90.9,-0.33,-0.83,0.56,-0.28,-0.94,-0.22
4.301207937000072,226,1689.64,-93.6,-6.8,90.9,-0.42,-0.81,0.82,-0.23,-0.91,-0.36
4.310986289000084,227,1689.65,-93.7,-6.9,90.8,-1.26,-0.01,1.03,-0.1,-1.04,-0.34
4.3211600290001115,228,1689.66,-93.9,-7.0,90.9,-2.78,1.04,0.47,-0.05,-1.42,-0.25
4.330997393999951,229,1689.67,-94.3,-6.9,91.0,-3.81,1.79,-0.92,-0.17,-1.58,-0.08
4.341159163000157,230,1689.68,-94.7,-6.8,91.2,-4.67,1.17,-2.18,-0.18,-1.64,0.05
4.351200598000105,231,1689.69,-95.1,-6.5,91.2,-4.38,0.4,-3.35,-0.1,-1.69,0.09
4.360954771000252,232,1689.7,-95.5,-6.1,91.2,-3.79,-0.5,-4.35,0.0,-1.51,0.09
4.371277554000244,233,1689.71,-95.9,-5.6,91.1,-3.54,-0.78,-4.53,0.07,-1.31,0.04
4.381135306000033,234,1689.72,-96.2,-5.2,90.9,-3.1,-0.58,-4.08,0.04,-1.2,0.06
4.391129290000208,235,1689.73,-96.5,-4.9,90.8,-2.43,-0.6,-3.26,0.05,-1.12,0.07
4.401373590000276,236,1689.74,-96.7,-4.6,90.7,-1.75,-0.43,-2.3,0.16,-1.11,0.0
4.411096020000059,237,1689.75,-96.8,-4.4,90.7,-0.6,0.61,-1.77,0.16,-1.07,-0.09
4.42103203600027,238,1689.76,-96.8,-4.2,90.8,0.28,1.79,-1.23,0.11,-0.92,-0.08
4.431296418000329,239,1689.77,-96.8,-4.1,91.1,0.48,2.77,-0.62,0.11,-0.9,0.0
4.441169904000162,240,1689.78,-96.7,-4.0,91.4,0.33,3.23,-0.47,0.11,-1.01,0.06
4.451310256000397,241,1689.79,-96.7,-3.9,91.7,0.25,3.68,-0.75,0.1,-1.03,0.03
4.461374072000126,242,1689.8,-96.8,-3.8,92.1,0.08,4.25,-1.04,0.07,-1.01,0.07
4.471264453999993,243,1689.81,-96.7,-3.6,92.5,0.72,4.44,-1.45,0.03,-1.04,0.15
4.481059084000208,244,1689.82,-96.7,-3.4,92.9,1.48,4.21,-1.8,-0.03,-1.03,0.16
4.491091883000081,245,1689.83,-96.5,-3.2,93.3,1.61,3.98,-1.87,-0.1,-0.98,0.09
4.501386255000398,246,1689.84,-96.4,-2.9,93.7,1.89,3.58,-1.81,-0.2,-0.93,0.13
4.511034074000236,247,1689.85,-96.2,-2.7,94.0,1.87,2.77,-1.49,-0.24,-0.85,0.12
4.521022961000199,248,1689.86,-96.0,-2.6,94.2,1.71,2.03,-0.98,-0.26,-0.81,0.09
4.5312985079999635,249,1689.87,-95.9,-2.5,94.3,1.25,1.36,-0.4,-0.26,-0.79,0.07
4.541182587000094,250,1689.88,-95.8,-2.5,94.4,0.61,0.78,0.13,-0.23,-0.8,0.04
4.551145042000371,251,1689.89,-95.8,-2.5,94.5,-0.06,0.4,0.56,-0.18,-0.84,0.0
4.561362745000224,252,1689.9,-95.8,-2.6,94.5,-0.74,0.18,0.92,-0.13,-0.88,-0.02
4.57126736400005,253,1689.91,-95.9,-2.7,94.6,-1.11,0.04,1.17,-0.09,-0.92,-0.03
4.581020949000049,254,1689.92,-96.0,-2.9,94.6,-1.02,-0.15,1.26,-0.07,-0.99,-0.01
4.591252492999956,255,1689.93,-96.0,-3.0,94.6,-0.57,-0.34,1.2,-0.07,-1.01,-0.02
4.601351191000049,256,1689.94,-96.0,-3.1,94.5,0.0,-0.49,1.04,-0.08,-0.99,-0.03
4.610836203999952,257,1689.95,-95.9,-3.2,94.5,0.5,-0.58,0.9,-0.1,-0.94,-0.04
4.621266080000169,258,1689.96,-95.8,-3.4,94.4,0.67,-0.74,0.87,-0.12,-0.88,-0.05
4.631396797999969,259,1689.97,-95.7,-3.5,94.3,0.58,-0.83,0.92,-0.12,-0.86,-0.07
4.640955544000008,260,1689.98,-95.7,-3.7,94.3,0.39,-0.92,0.95,-0.11,-0.86,-0.07
4.651371811999979,261,1689.99,-95.6,-3.8,94.2,0.15,-1.08,0.92,-0.11,-0.88,-0.08
4.661204505000114,262,1690.0,-95.6,-3.9,94.1,-0.09,-1.27,0.83,-0.1,-0.88,-0.11
4.671044527000049,263,1690.01,-95.7,-4.0,93.9,-0.26,-1.33,0.69,-0.1,-0.91,-0.13
4.681190130000232,264,1690.02,-95.7,-4.1,93.8,-0.27,-1.37,0.49,-0.1,-0.92,-0.16
4.6912037050001345,265,1690.03,-95.8,-4.2,93.7,-0.12,-1.34,0.26,-0.1,-0.91,-0.19
4.700961920000282,266,1690.04,-95.8,-4.2,93.6,0.18,-1.3,0.0,-0.1,-0.9,-0.2
4.711009239000305,267,1690.05,-95.7,-4.2,93.4,0.51,-1.27,-0.31,-0.11,-0.86,-0.21
4.721270151000226,268,1690.06,-95.6,-4.2,93.3,0.69,-1.25,-0.58,-0.12,-0.82,-0.21
4.731256116000168,269,1690.07,-95.6,-4.1,93.2,0.61,-1.25,-0.84,-0.13,-0.76,-0.21
4.741054292000172,270,1690.08,-95.5,-4.1,93.0,0.1,-1.25,-1.04,-0.13,-0.73,-0.19
4.751366841000163,271,1690.09,-95.6,-4.0,92.9,-0.89,-1.32,-1.11,-0.12,-0.7,-0.18
4.761122205999982,272,1690.1,-95.7,-3.9,92.7,-2.23,-1.36,-0.98,-0.1,-0.72,-0.19
4.7710622839999814,273,1690.11,-96.0,-3.8,92.6,-3.35,-1.27,-0.76,-0.08,-0.8,-0.22
4.780954543000007,274,1690.12,-96.3,-3.7,92.5,-3.73,-1.0,-0.63,-0.08,-0.89,-0.23
4.791220078000151,275,1690.13,-96.7,-3.7,92.4,-3.14,-0.75,-0.56,-0.08,-0.97,-0.22
4.800965923000149,276,1690.14,-97.0,-3.7,92.3,-1.88,-0.64,-0.45,-0.06,-0.99,-0.22
4.811073925000073,277,1690.15,-97.2,-3.6,92.3,-0.64,-0.48,-0.23,-0.03,-0.98,-0.28
4.821273688000019,278,1690.16,-97.2,-3.6,92.2,-0.22,0.03,0.15,0.01,-0.95,-0.37
4.83108413500031,279,1690.17,-97.2,-3.7,92.3,-0.66,0.83,0.58,0.03,-0.95,-0.42
4.8412072989999615,280,1690.18,-97.3,-3.7,92.4,-1.04,1.56,0.83,0.01,-1.0,-0.41
4.851189687999977,281,1690.19,-97.4,-3.8,92.6,-0.83,1.99,0.76,-0.03,-1.05,-0.35
4.860942875000092,282,1690.2,-97.5,-3.8,92.8,-0.12,1.97,0.43,-0.11,-1.08,-0.29
4.871181701000296,283,1690.21,-97.5,-3.8,93.0,0.45,1.86,0.06,-0.21,-1.05,-0.18
4.881052679000277,284,1690.22,-97.5,-3.8,93.2,0.0,1.16,0.46,-0.27,-0.91,-0.16
4.891057283999999,285,1690.23,-97.6,-3.9,93.3,-2.73,0.37,2.04,-0.13,-0.93,-0.16
4.901271696000094,286,1690.24,-98.1,-4.2,93.3,-4.98,0.13,3.64,-0.04,-1.13,-0.29
4.910847558000114,287,1690.25,-98.6,-4.7,93.4,-5.55,0.74,5.21,0.0,-1.29,-0.35
4.921003111000118,288,1690.26,-99.1,-5.2,93.6,-3.56,1.55,6.21,-0.03,-1.54,-0.23
4.931356016000336,289,1690.27,-99.2,-5.8,93.9,0.91,2.45,5.69,-0.1,-1.83,-0.06
4.9410849010000675,290,1690.28,-99.1,-6.2,94.3,2.43,2.9,4.19,-0.09,-1.66,0.21
4.9510652120002305,291,1690.29,-98.9,-6.5,94.6,1.48,2.47,3.05,-0.15,-1.47,0.33
4.9609777690002375,292,1690.3,-98.8,-6.7,94.9,0.82,1.66,1.94,-0.25,-1.35,0.36
4.971204346000377,293,1690.31,-98.8,-6.8,95.0,0.64,0.48,1.05,-0.3,-1.23,0.43
4.980971870000303,294,1690.32,-98.7,-6.9,95.0,0.75,-1.19,0.42,-0.3,-1.13,0.5
4.9911416830000235,295,1690.33,-98.6,-7.0,94.7,1.0,-2.99,0.07,-0.27,-1.0,0.46
5.001366116000099,296,1690.34,-98.4,-7.0,94.4,1.14,-4.23,0.17,-0.25,-0.87,0.37
5.011030010000013,297,1690.35,-98.3,-7.1,93.9,1.35,-5.26,0.52,-0.23,-0.81,0.27
5.021149812000203,298,1690.36,-98.0,-7.3,93.4,1.6,-5.66,0.8,-0.21,-0.82,0.08
5.031203265000386,299,1690.37,-97.8,-7.4,92.8,1.42,-5.29,1.09,-0.19,-0.84,-0.03
5.041158456000176,300,1690.38,-97.6,-7.7,92.3,0.88,-4.79,1.27,-0.14,-0.93,-0.07
5.051119021999966,301,1690.39,-97.5,-7.8,91.9,0.33,-4.33,1.15,-0.04,-1.06,-0.11
5.0610163650003415,302,1690.4,-97.4,-7.9,91.5,0.22,-3.85,0.78,0.06,-1.14,-0.14
5.0712655160000395,303,1690.41,-97.3,-8.0,91.1,0.37,-3.38,0.29,0.16,-1.15,-0.17
5.080965221000042,304,1690.42,-97.2,-8.1,90.8,0.52,-2.84,-0.19,0.23,-1.13,-0.2
5.0911644930001785,305,1690.43,-97.1,-8.1,90.6,0.76,-2.17,-0.69,0.24,-1.1,-0.23
5.101281766000284,306,1690.44,-97.0,-8.0,90.4,0.67,-1.43,-1.07,0.19,-1.03,-0.24
5.111062062000201,307,1690.45,-97.0,-7.9,90.3,0.2,-0.77,-1.26,0.12,-0.97,-0.22
5.1212742210000215,308,1690.46,-97.0,-7.8,90.2,-0.11,-0.32,-1.42,0.06,-0.96,-0.19
5.131116761000158,309,1690.47,-97.0,-7.6,90.2,-0.01,-0.01,-1.58,0.01,-0.94,-0.15
5.140964759000326,310,1690.48,-96.9,-7.4,90.2,0.45,0.07,-1.65,-0.03,-0.91,-0.12
5.151117504000013,311,1690.49,-96.9,-7.2,90.1,0.87,0.15,-1.58,-0.05,-0.87,-0.12
5.16120313600004,312,1690.5,-96.8,-7.0,90.1,1.07,0.22,-1.42,-0.05,-0.85,-0.12
5.17109966299995,313,1690.51,-96.7,-6.9,90.2,1.08,0.29,-1.32,-0.05,-0.86,-0.13
5.181139646000247,314,1690.52,-96.6,-6.7,90.2,1.05,0.38,-1.28,-0.04,-0.88,-0.13
5.1911822710003435,315,1690.53,-96.5,-6.5,90.2,1.1,0.48,-1.3,-0.02,-0.88,-0.14
5.201048842000091,316,1690.54,-96.4,-6.4,90.3,1.11,0.56,-1.26,-0.01,-0.87,-0.14
5.210933976999968,317,1690.55,-96.3,-6.2,90.3,1.12,0.64,-1.14,0.0,-0.85,-0.15
5.221267117000025,318,1690.56,-96.2,-6.1,90.4,1.1,0.77,-0.93,0.01,-0.84,-0.17
5.23101138400034,319,1690.57,-96.1,-6.0,90.4,1.16,0.88,-0.7,0.01,-0.84,-0.18
5.241367553000146,320,1690.58,-96.0,-6.0,90.5,1.36,0.94,-0.47,0.01,-0.82,-0.19
5.251347015000192,321,1690.59,-95.9,-5.9,90.6,1.6,0.97,-0.23,0.01,-0.8,-0.21
5.261160815000039,322,1690.6,-95.7,-5.9,90.7,1.8,1.04,0.0,0.01,-0.76,-0.23
5.271270415000345,323,1690.61,-95.5,-5.9,90.8,1.81,1.13,0.22,0.0,-0.72,-0.24
5.281338909000169,324,1690.62,-95.4,-5.9,90.9,1.57,1.24,0.48,0.01,-0.68,-0.26
5.2911951650003175,325,1690.63,-95.3,-6.0,91.1,1.1,1.41,0.7,0.02,-0.68,-0.29
5.300967611000033,326,1690.64,-95.2,-6.0,91.3,0.4,1.66,0.88,0.02,-0.7,-0.28
5.311175191000075,327,1690.65,-95.2,-6.1,91.4,-0.38,1.86,0.93,0.03,-0.76,-0.25
5.321250385999974,328,1690.66,-95.3,-6.2,91.6,-1.03,1.92,0.88,0.02,-0.84,-0.19
5.3311738150000565,329,1690.67,-95.5,-6.2,91.8,-1.45,1.7,0.78,0.0,-0.91,-0.14
5.3411862160000965,330,1690.68,-95.7,-6.3,92.0,-1.52,1.4,0.69,-0.03,-0.97,-0.12
5.351070245000301,331,1690.69,-95.8,-6.3,92.1,-1.26,1.2,0.61,-0.06,-1.02,-0.12
5.361140834000253,332,1690.7,-95.9,-6.3,92.2,-0.89,1.01,0.5,-0.12,-1.05,-0.09
5.371181758000148,333,1690.71,-96.0,-6.4,92.3,-0.6,0.66,0.36,-0.16,-1.06,-0.05
5.381253793000269,334,1690.72,-96.0,-6.4,92.4,-0.48,-0.01,0.22,-0.18,-1.06,0.0
5.391035002000081,335,1690.73,-96.1,-6.4,92.3,-0.46,-0.96,0.05,-0.19,-1.08,-0.02
5.4013285930000166,336,1690.74,-96.1,-6.5,92.2,-0.39,-1.79,-0.12,-0.19,-1.05,-0.17
5.411146264000308,337,1690.75,-96.1,-6.5,92.0,-0.29,-2.08,-0.09,-0.15,-0.97,-0.33
5.421273144000224,338,1690.76,-96.1,-6.5,91.8,-0.27,-1.83,0.19,-0.06,-0.9,-0.46
5.431356825999956,339,1690.77,-96.2,-6.6,91.6,-0.82,-1.1,0.5,0.08,-1.01,-0.47
5.440773941000316,340,1690.78,-96.3,-6.6,91.6,-2.27,-0.23,0.07,0.16,-1.34,-0.38
5.4505959309999525,341,1690.79,-96.6,-6.6,91.6,-3.06,0.81,-1.34,0.03,-1.53,-0.28
5.460904011000366,342,1690.8,-96.9,-6.3,91.7,-3.83,0.8,-2.44,-0.09,-1.54,-0.06
5.471177646000342,343,1690.81,-97.3,-6.0,91.7,-4.03,0.05,-3.29,-0.07,-1.62,0.05
5.480956086000333,344,1690.82,-97.7,-5.7,91.6,-2.66,-0.79,-3.85,-0.03,-1.49,0.07
5.49114508699995,345,1690.83,-97.8,-5.3,91.4,-1.44,-0.92,-3.6,0.0,-1.29,-0.04
5.501375558000291,346,1690.84,-98.0,-5.0,91.3,-1.34,-0.41,-2.85,-0.01,-1.22,0.04
5.511013559000276,347,1690.85,-98.1,-4.7,91.2,-0.97,-0.5,-2.17,0.03,-1.22,0.04
5.521008335000261,348,1690.86,-98.1,-4.6,91.2,-0.35,0.36,-1.74,0.11,-1.21,-0.08
5.531313437000335,349,1690.87,-98.1,-4.4,91.3,0.46,1.46,-1.63,0.09,-1.16,-0.03
5.540953519000141,350,1690.88,-98.0,-4.2,91.4,1.41,2.22,-1.45,0.03,-1.0,-0.04
5.55113149600038,351,1690.89,-97.9,-4.0,91.7,1.53,3.04,-1.03,0.05,-0.92,0.03
5.561095244000171,352,1690.9,-97.8,-3.9,92.0,1.32,3.19,-0.85,0.07,-0.95,0.11
5.571263852000357,353,1690.91,-97.7,-3.8,92.3,0.86,3.55,-0.9,0.08,-0.94,0.06
5.581295802000113,354,1690.92,-97.6,-3.6,92.7,0.9,3.97,-1.21,0.07,-0.97,0.12
5.591153905000283,355,1690.93,-97.5,-3.4,93.1,1.72,4.01,-1.59,0.02,-0.92,0.18
5.601371836999988,356,1690.94,-97.4,-3.2,93.4,1.62,3.68,-1.43,-0.04,-0.87,0.15
5.611033913000028,357,1690.95,-97.2,-3.0,93.8,1.94,3.56,-1.39,-0.12,-0.9,0.11
5.6212694140003805,358,1690.96,-97.1,-2.9,94.1,1.71,2.87,-1.03,-0.2,-0.86,0.11
5.631365406999976,359,1690.97,-96.9,-2.8,94.3,1.4,2.2,-0.52,-0.26,-0.82,0.09
5.641261274000044,360,1690.98,-96.8,-2.7,94.5,1.29,1.52,-0.07,-0.29,-0.86,0.06
5.651378229000329,361,1690.99,-96.7,-2.7,94.6,1.11,0.94,0.35,-0.3,-0.86,0.04
5.661182585999995,362,1691.0,-96.6,-2.8,94.7,0.84,0.41,0.67,-0.27,-0.89,0.04
5.671148350000294,363,1691.01,-96.5,-2.8,94.7,0.55,0.04,0.96,-0.22,-0.9,0.01
5.681293531000392,364,1691.02,-96.5,-3.0,94.7,0.37,-0.12,1.15,-0.17,-0.92,0.0
5.6911563040002875,365,1691.03,-96.4,-3.1,94.7,0.38,-0.34,1.25,-0.13,-0.96,0.01
5.700959783000144,366,1691.04,-96.4,-3.2,94.7,0.55,-0.52,1.23,-0.1,-0.98,0.01
5.7113832560003175,367,1691.05,-96.3,-3.3,94.6,0.95,-0.73,1.09,-0.08,-0.99,0.01
5.721280658000069,368,1691.06,-96.1,-3.4,94.5,1.3,-0.93,0.91,-0.07,-0.97,-0.01
5.731034273000205,369,1691.07,-95.9,-3.5,94.4,1.54,-1.02,0.74,-0.07,-0.94,-0.03
5.7409727700000985,370,1691.08,-95.8,-3.6,94.3,1.59,-1.05,0.65,-0.08,-0.9,-0.06
5.75117170600015,371,1691.09,-95.6,-3.7,94.2,1.46,-1.05,0.64,-0.08,-0.87,-0.08
5.761066690000007,372,1691.1,-95.5,-3.8,94.1,1.22,-1.09,0.67,-0.08,-0.85,-0.1
5.771272741000303,373,1691.11,-95.4,-3.9,94.0,0.84,-1.14,0.73,-0.09,-0.85,-0.11
5.7813721300003635,374,1691.12,-95.3,-4.0,93.9,0.45,-1.22,0.74,-0.08,-0.88,-0.14
5.79110457600018,375,1691.13,-95.3,-4.1,93.8,0.26,-1.26,0.63,-0.08,-0.91,-0.17
5.801346250000279,376,1691.14,-95.4,-4.2,93.7,0.27,-1.22,0.47,-0.08,-0.93,-0.2
5.811173352999958,377,1691.15,-95.3,-4.2,93.6,0.39,-1.15,0.31,-0.09,-0.93,-0.21
5.821283379000306,378,1691.16,-95.3,-4.3,93.5,0.58,-1.09,0.16,-0.09,-0.93,-0.22
5.831025194000176,379,1691.17,-95.2,-4.3,93.4,0.82,-1.01,-0.04,-0.11,-0.92,-0.22
5.841206477000014,380,1691.18,-95.1,-4.3,93.3,1.09,-1.0,-0.3,-0.12,-0.89,-0.22
5.851111734000369,381,1691.19,-95.0,-4.3,93.2,1.32,-1.02,-0.56,-0.15,-0.83,-0.21
5.861334020999948,382,1691.2,-94.8,-4.2,93.1,1.41,-1.1,-0.8,-0.17,-0.79,-0.2
5.871266174000084,383,1691.21,-94.7,-4.1,92.9,1.11,-1.22,-0.92,-0.19,-0.73,-0.2
5.881327306999992,384,1691.22,-94.6,-4.0,92.8,0.29,-1.32,-0.85,-0.19,-0.69,-0.19
5.891297574999953,385,1691.23,-94.6,-4.0,92.6,-1.0,-1.55,-0.58,-0.17,-0.69,-0.17
5.9011513620002916,386,1691.24,-94.8,-3.9,92.5,-2.08,-1.64,-0.29,-0.13,-0.75,-0.2
5.911144093000075,387,1691.25,-95.0,-3.9,92.3,-2.64,-1.55,-0.06,-0.11,-0.8,-0.21
5.92117741400034,388,1691.26,-95.3,-4.0,92.2,-2.79,-1.33,0.18,-0.08,-0.82,-0.21
5.931048244000067,389,1691.27,-95.6,-4.0,92.1,-2.61,-1.03,0.58,-0.04,-0.85,-0.22
5.941168475000268,390,1691.28,-95.8,-4.1,92.0,-2.52,-0.46,1.0,0.02,-0.89,-0.29
5.951049091000186,391,1691.29,-96.1,-4.2,92.0,-2.54,0.44,1.34,0.07,-0.96,-0.34
5.961352589000398,392,1691.3,-96.3,-4.4,92.1,-2.29,1.39,1.5,0.13,-1.01,-0.36
5.971241095000096,393,1691.31,-96.5,-4.5,92.3,-1.44,2.19,1.27,0.15,-1.1,-0.34
5.980909779000285,394,1691.32,-96.6,-4.5,92.6,-0.14,2.77,0.67,0.09,-1.14,-0.21
5.991185010000208,395,1691.33,-96.6,-4.5,92.9,0.34,2.46,0.61,-0.02,-1.05,-0.11
6.001348667000002,396,1691.34,-96.7,-4.6,93.1,-1.08,2.07,1.39,-0.01,-1.08,-0.16
6.011062712000239,397,1691.35,-96.9,-4.7,93.3,-2.43,2.03,2.42,-0.06,-1.2,-0.28
6.021264740000333,398,1691.36,-97.2,-5.0,93.6,-2.94,2.59,3.63,-0.12,-1.27,-0.3
6.031142471000294,399,1691.37,-97.5,-5.4,93.9,-2.14,3.15,4.52,-0.24,-1.44,-0.13
6.0410835229999975,400,1691.38,-97.7,-5.8,94.3,0.25,3.22,4.23,-0.35,-1.62,0.02
6.050786146000064,401,1691.39,-97.7,-6.1,94.7,0.39,3.03,3.38,-0.35,-1.59,0.15
6.0609624339999755,402,1691.4,-97.7,-6.4,95.0,-0.57,2.32,2.58,-0.36,-1.51,0.29
6.071139233000395,403,1691.41,-97.8,-6.6,95.2,-1.22,1.2,1.68,-0.38,-1.46,0.35
6.080960326999957,404,1691.42,-97.9,-6.7,95.3,-0.82,-0.01,0.74,-0.39,-1.4,0.37
6.09118117800017,405,1691.43,-97.9,-6.7,95.2,0.28,-1.67,0.12,-0.35,-1.26,0.42
6.10098964000008,406,1691.44,-97.8,-6.8,94.9,1.15,-3.1,0.07,-0.29,-1.12,0.41
6.111029884000345,407,1691.45,-97.6,-6.8,94.5,1.73,-4.62,0.25,-0.25,-0.98,0.4
6.121180152000306,408,1691.46,-97.4,-7.0,94.0,1.82,-5.94,0.64,-0.21,-0.85,0.33
6.131348929000069,409,1691.47,-97.1,-7.1,93.4,1.67,-6.77,1.0,-0.19,-0.79,0.21
6.140963033000389,410,1691.48,-96.9,-7.3,92.7,1.51,-6.91,1.19,-0.18,-0.77,0.08
6.151161301000229,411,1691.49,-96.7,-7.5,92.0,1.08,-6.6,1.29,-0.14,-0.78,0.0
6.1611761310000475,412,1691.5,-96.5,-7.7,91.4,0.44,-6.03,1.37,-0.09,-0.83,-0.07
6.1710229220002475,413,1691.51,-96.4,-7.9,90.9,0.03,-5.33,1.34,-0.03,-0.94,-0.1
6.181280593000338,414,1691.52,-96.3,-8.0,90.4,-0.18,-4.69,1.11,0.02,-1.04,-0.13
6.19119973900024,415,1691.53,-96.3,-8.2,90.0,-0.21,-4.09,0.78,0.11,-1.09,-0.17
6.200933250000162,416,1691.54,-96.3,-8.3,89.6,-0.03,-3.48,0.38,0.18,-1.11,-0.19
6.211241640000026,417,1691.55,-96.2,-8.3,89.3,0.17,-2.9,-0.01,0.23,-1.09,-0.19
6.221019004000027,418,1691.56,-96.1,-8.3,89.0,0.33,-2.39,-0.41,0.24,-1.04,-0.18
6.230911684000148,419,1691.57,-96.1,-8.3,88.8,0.27,-1.94,-0.75,0.21,-0.96,-0.18
6.241182201000356,420,1691.58,-96.0,-8.2,88.6,-0.09,-1.4,-0.99,0.16,-0.9,-0.19
6.251274026000374,421,1691.59,-96.1,-8.1,88.5,-0.46,-0.86,-1.22,0.12,-0.88,-0.18
6.261079920000157,422,1691.6,-96.1,-8.0,88.4,-0.56,-0.34,-1.35,0.07,-0.87,-0.18
6.271269265000228,423,1691.61,-96.1,-7.9,88.4,-0.44,0.15,-1.35,0.04,-0.88,-0.17
6.2811950170003,424,1691.62,-96.2,-7.7,88.4,-0.15,0.49,-1.26,0.01,-0.89,-0.15
6.291109038000286,425,1691.63,-96.2,-7.6,88.5,0.06,0.72,-1.12,0.0,-0.91,-0.15
6.300936031000219,426,1691.64,-96.2,-7.5,88.5,0.23,0.95,-1.03,-0.03,-0.93,-0.15
6.311197750000247,427,1691.65,-96.2,-7.4,88.6,0.39,1.04,-1.02,-0.05,-0.94,-0.13
6.321134279000034,428,1691.66,-96.2,-7.2,88.7,0.51,1.04,-1.04,-0.06,-0.94,-0.11
6.33100247900029,429,1691.67,-96.1,-7.1,88.8,0.65,0.88,-1.03,-0.07,-0.91,-0.09
6.3411894690002555,430,1691.68,-96.0,-6.9,88.9,0.76,0.69,-0.9,-0.06,-0.89,-0.11
6.351180655000007,431,1691.69,-96.0,-6.8,88.9,0.89,0.62,-0.69,-0.04,-0.88,-0.14
6.361115526000049,432,1691.7,-95.9,-6.7,89.0,1.03,0.57,-0.47,-0.03,-0.88,-0.16
6.371267154000179,433,1691.71,-95.8,-6.7,89.0,1.24,0.52,-0.27,-0.02,-0.87,-0.18
6.381253102000301,434,1691.72,-95.7,-6.7,89.1,1.45,0.52,-0.05,0.0,-0.83,-0.22
6.390990999000223,435,1691.73,-95.5,-6.7,89.2,1.59,0.62,0.18,0.0,-0.79,-0.26
6.401168792000135,436,1691.74,-95.4,-6.7,89.2,1.53,0.85,0.45,0.02,-0.75,-0.29
6.411122721000083,437,1691.75,-95.2,-6.7,89.3,1.24,1.22,0.72,0.05,-0.72,-0.3
6.420986389000063,438,1691.76,-95.2,-6.8,89.5,0.73,1.66,0.95,0.08,-0.7,-0.31
6.431214500000351,439,1691.77,-95.2,-6.9,89.7,0.01,2.18,1.1,0.1,-0.72,-0.31
6.441206082000008,440,1691.78,-95.2,-7.0,90.0,-0.8,2.74,1.1,0.12,-0.77,-0.29
6.451102705000267,441,1691.79,-95.4,-7.1,90.3,-1.62,3.19,1.0,0.11,-0.83,-0.24
6.461187825000252,442,1691.8,-95.6,-7.1,90.6,-2.19,3.41,0.89,0.09,-0.89,-0.19
6.4711717960003625,443,1691.81,-95.9,-7.2,91.0,-2.34,3.37,0.74,0.05,-0.99,-0.14
6.481081584000094,444,1691.82,-96.2,-7.2,91.3,-2.07,3.16,0.52,0.0,-1.07,-0.08
6.491146938000384,445,1691.83,-96.4,-7.2,91.6,-1.43,2.7,0.26,-0.08,-1.11,-0.03
6.501385333000144,446,1691.84,-96.4,-7.2,91.8,-0.7,1.98,0.0,-0.16,-1.11,0.0
6.511144624000281,447,1691.85,-96.5,-7.1,92.0,-0.08,1.04,-0.26,-0.23,-1.08,0.01
6.521269160999964,448,1691.86,-96.5,-7.1,92.0,0.16,0.02,-0.55,-0.29,-1.03,-0.1
6.531338922000032,449,1691.87,-96.5,-7.0,92.0,0.18,-0.45,-0.69,-0.3,-0.94,-0.27
6.54094911600032,450,1691.88,-96.5,-7.0,91.9,-0.56,-0.13,-0.58,-0.22,-0.97,-0.34
6.551133024000137,451,1691.89,-96.6,-6.9,92.0,-2.09,0.57,-0.85,-0.16,-1.25,-0.26
6.561092669000118,452,1691.9,-97.0,-6.8,92.0,-3.79,0.91,-1.9,-0.24,-1.46,-0.14
6.5712003470002855,453,1691.91,-97.4,-6.5,92.1,-4.56,0.28,-2.89,-0.24,-1.47,-0.02
6.581331897000382,454,1691.92,-97.8,-6.2,92.0,-4.16,-0.67,-3.35,-0.12,-1.42,-0.08
6.5911477160002505,455,1691.93,-98.2,-5.9,91.8,-3.91,-1.21,-3.68,0.05,-1.37,-0.11
6.601138715000161,456,1691.94,-98.5,-5.5,91.6,-3.44,-1.58,-3.86,0.16,-1.26,-0.11
6.611164717000065,457,1691.95,-98.8,-5.2,91.4,-2.83,-1.25,-3.41,0.21,-1.11,-0.18
6.621266696000021,458,1691.96,-99.1,-4.9,91.3,-2.61,-0.51,-2.6,0.22,-1.13,-0.14
6.631355367000197,459,1691.97,-99.3,-4.7,91.2,-1.82,-0.03,-1.91,0.25,-1.17,-0.14
6.641351414000383,460,1691.98,-99.4,-4.5,91.3,-0.9,1.28,-1.5,0.23,-1.23,-0.19
6.651201071000287,461,1691.99,-99.5,-4.3,91.4,0.12,2.52,-1.49,0.1,-1.23,-0.03
6.661163976000353,462,1692.0,-99.4,-4.1,91.7,1.04,3.01,-1.57,0.0,-1.12,0.01
6.6711690350002755,463,1692.01,-99.3,-3.9,92.0,1.57,3.79,-1.52,-0.05,-1.04,0.01
6.681370600000264,464,1692.02,-99.2,-3.7,92.4,1.7,4.23,-1.62,-0.07,-1.05,0.13
6.691149402000065,465,1692.03,-99.0,-3.4,92.8,1.82,4.32,-1.94,-0.05,-1.03,0.12
6.701364243000171,466,1692.04,-98.9,-3.2,93.2,1.38,4.48,-1.99,-0.04,-0.9,0.15
6.711133176000203,467,1692.05,-98.8,-2.9,93.6,1.37,4.27,-2.11,-0.04,-0.94,0.21
6.721170610000172,468,1692.06,-98.6,-2.6,94.0,1.98,3.74,-2.35,-0.07,-0.96,0.17
6.731083562000094,469,1692.07,-98.4,-2.3,94.3,2.08,3.19,-2.13,-0.11,-0.88,0.07
6.741243882000163,470,1692.08,-98.2,-2.1,94.5,2.14,2.93,-1.73,-0.14,-0.92,0.03
6.751154793000296,471,1692.09,-98.0,-1.9,94.8,2.57,2.31,-1.31,-0.18,-0.9,0.03
6.761092078000274,472,1692.1,-97.7,-1.8,95.0,2.68,1.71,-0.72,-0.2,-0.87,0.0
6.7712834900003145,473,1692.11,-97.5,-1.7,95.1,2.52,1.37,-0.1,-0.19,-0.85,-0.02
6.781316743000389,474,1692.12,-97.2,-1.7,95.2,2.03,1.15,0.44,-0.16,-0.87,-0.04
6.791077786000187,475,1692.13,-97.1,-1.8,95.3,1.34,0.98,0.89,-0.12,-0.91,-0.04
6.801031851000062,476,1692.14,-97.0,-1.9,95.4,0.81,0.81,1.21,-0.1,-0.94,-0.05
6.811120583000047,477,1692.15,-96.9,-2.1,95.5,0.62,0.67,1.39,-0.09,-0.97,-0.04
6.8211803809999765,478,1692.16,-96.8,-2.2,95.6,0.81,0.41,1.41,-0.09,-0.98,-0.04
6.831411289000243,479,1692.17,-96.6,-2.4,95.6,1.24,0.27,1.31,-0.08,-0.97,-0.06
6.841196706000119,480,1692.18,-96.5,-2.5,95.7,1.63,0.23,1.16,-0.08,-0.94,-0.07
6.851153352999972,481,1692.19,-96.3,-2.7,95.7,1.85,0.25,1.02,-0.09,-0.9,-0.09
6.860952412000188,482,1692.2,-96.1,-2.8,95.8,1.77,0.3,0.95,-0.11,-0.87,-0.1
6.871257255000273,483,1692.21,-95.9,-2.9,95.8,1.49,0.23,0.94,-0.12,-0.85,-0.09
6.881328500000109,484,1692.22,-95.8,-3.1,95.8,1.05,0.03,0.99,-0.13,-0.85,-0.08
6.8911100870000155,485,1692.23,-95.7,-3.2,95.8,0.85,-0.24,0.97,-0.14,-0.88,-0.09
6.901342754000325,486,1692.24,-95.6,-3.4,95.8,0.81,-0.52,0.87,-0.14,-0.9,-0.1
6.911072747000162,487,1692.25,-95.6,-3.5,95.7,0.95,-0.77,0.68,-0.14,-0.91,-0.13
6.921212554000249,488,1692.26,-95.5,-3.6,95.6,1.2,-0.9,0.46,-0.14,-0.91,-0.16
6.931100334000348,489,1692.27,-95.3,-3.7,95.6,1.49,-1.02,0.18,-0.15,-0.9,-0.17
6.941171754000152,490,1692.28,-95.1,-3.7,95.4,1.82,-1.16,-0.09,-0.16,-0.87,-0.18
6.951241190000019,491,1692.29,-94.9,-3.7,95.3,2.13,-1.35,-0.39,-0.18,-0.84,-0.2
6.961178121000103,492,1692.3,-94.7,-3.6,95.2,2.21,-1.56,-0.67,-0.2,-0.79,-0.2
6.971265168000173,493,1692.31,-94.5,-3.5,95.0,1.83,-1.78,-0.9,-0.22,-0.75,-0.2
6.980963155000154,494,1692.32,-94.3,-3.5,94.8,0.99,-2.09,-1.04,-0.23,-0.72,-0.18
6.991372304000379,495,1692.33,-94.3,-3.4,94.5,-0.25,-2.54,-1.04,-0.2,-0.69,-0.15
7.001360270000077,496,1692.34,-94.4,-3.3,94.3,-1.63,-3.01,-0.92,-0.16,-0.71,-0.15
7.011105628000223,497,1692.35,-94.6,-3.2,93.9,-2.82,-3.3,-0.77,-0.12,-0.76,-0.21
7.021277115999965,498,1692.36,-94.9,-3.2,93.6,-3.37,-3.13,-0.62,-0.11,-0.81,-0.24
7.031352228000287,499,1692.37,-95.2,-3.2,93.3,-3.48,-2.82,-0.31,-0.11,-0.82,-0.2
7.041062052000143,500,1692.38,-95.5,-3.2,93.0,-3.68,-2.51,0.34,-0.08,-0.87,-0.19
7.05120577200023,501,1692.39,-95.9,-3.3,92.8,-3.95,-1.88,1.02,0.0,-0.99,-0.25
7.061017456000172,502,1692.4,-96.3,-3.4,92.7,-3.32,-1.07,1.44,0.05,-1.08,-0.28
7.071184327000083,503,1692.41,-96.6,-3.6,92.7,-2.05,-0.35,1.55,0.13,-1.15,-0.34
7.080914104000385,504,1692.42,-96.7,-3.7,92.7,-0.54,0.31,1.12,0.14,-1.18,-0.35
7.091232871000102,505,1692.43,-96.7,-3.8,92.7,0.54,0.67,0.82,0.08,-1.12,-0.19
7.101293014000021,506,1692.44,-96.7,-3.9,92.8,-0.58,0.12,1.25,0.1,-1.07,-0.19
7.111026602000038,507,1692.45,-96.8,-4.1,92.8,-2.13,0.0,2.05,0.06,-1.18,-0.29
7.121224785000322,508,1692.46,-97.1,-4.3,92.9,-2.88,0.48,2.82,-0.01,-1.25,-0.28
7.131152477000342,509,1692.47,-97.4,-4.6,93.0,-2.89,1.08,3.81,-0.08,-1.3,-0.11
7.140917798000373,510,1692.48,-97.6,-5.0,93.2,-1.17,1.39,4.02,-0.19,-1.53,0.07
7.151174757000263,511,1692.49,-97.6,-5.4,93.3,0.58,1.02,3.25,-0.27,-1.47,0.24
7.161100998000165,512,1692.5,-97.6,-5.6,93.5,0.04,0.44,2.9,-0.29,-1.31,0.24
7.171059249000336,513,1692.51,-97.6,-5.9,93.5,-0.52,-0.22,2.47,-0.34,-1.28,0.32
7.181348891000198,514,1692.52,-97.7,-6.1,93.4,-0.18,-1.61,1.85,-0.34,-1.23,0.37
7.1912360630003604,515,1692.53,-97.6,-6.3,93.2,0.39,-2.85,1.41,-0.28,-1.11,0.35
7.200995043000148,516,1692.54,-97.5,-6.5,92.9,0.58,-4.14,1.36,-0.24,-0.98,0.29
7.211339557999963,517,1692.55,-97.4,-6.7,92.4,0.52,-4.88,1.62,-0.2,-0.89,0.18
7.221255709000161,518,1692.56,-97.3,-7.0,92.0,0.4,-5.0,2.01,-0.15,-0.88,0.12
7.230996663000042,519,1692.57,-97.2,-7.2,91.5,0.31,-5.1,2.19,-0.09,-0.96,0.09
7.240818981000302,520,1692.58,-97.1,-7.5,91.0,0.26,-5.07,2.06,-0.03,-1.04,0.01
7.251366583000163,521,1692.59,-97.1,-7.8,90.5,0.14,-4.83,1.78,0.0,-1.1,-0.05
7.260985856000389,522,1692.6,-97.0,-8.0,90.1,-0.07,-4.56,1.39,0.02,-1.14,-0.09
7.271252975000152,523,1692.61,-96.9,-8.1,89.7,-0.25,-4.12,0.92,0.06,-1.15,-0.15
7.2813437150002756,524,1692.62,-96.9,-8.3,89.3,-0.36,-3.58,0.41,0.09,-1.14,-0.17
7.291028711000308,525,1692.63,-96.9,-8.3,89.0,-0.42,-3.04,-0.09,0.12,-1.11,-0.19
7.30131072200038,526,1692.64,-96.9,-8.3,88.7,-0.41,-2.43,-0.58,0.15,-1.09,-0.2
7.311059490000389,527,1692.65,-96.9,-8.2,88.5,-0.38,-1.89,-0.97,0.15,-1.05,-0.18
7.321075653000207,528,1692.66,-96.9,-8.2,88.3,-0.32,-1.43,-1.17,0.13,-1.0,-0.19
7.3310009730003,529,1692.67,-96.9,-8.0,88.2,-0.32,-0.97,-1.21,0.1,-0.95,-0.19
7.341203868000321,530,1692.68,-97.0,-7.9,88.1,-0.13,-0.48,-1.17,0.06,-0.93,-0.18
7.351108940000358,531,1692.69,-97.0,-7.8,88.0,0.15,-0.06,-1.23,0.03,-0.91,-0.15
7.360939322000377,532,1692.7,-96.9,-7.7,88.0,0.29,0.26,-1.29,0.0,-0.88,-0.12
7.371269505000328,533,1692.71,-96.9,-7.6,88.0,0.34,0.45,-1.35,0.0,-0.88,-0.1
7.381267071000366,534,1692.72,-96.9,-7.4,88.1,0.48,0.6,-1.4,0.01,-0.88,-0.1
7.391135516000304,535,1692.73,-96.8,-7.3,88.1,0.68,0.79,-1.36,0.02,-0.86,-0.12
7.401073343999997,536,1692.74,-96.7,-7.1,88.2,0.98,1.03,-1.27,0.04,-0.87,-0.13
7.411114639000061,537,1692.75,-96.6,-7.0,88.3,1.4,1.27,-1.14,0.05,-0.88,-0.14
7.421133535000081,538,1692.76,-96.5,-6.9,88.4,1.73,1.52,-1.02,0.06,-0.87,-0.16
7.431344737000018,539,1692.77,-96.3,-6.8,88.6,1.82,1.74,-0.89,0.04,-0.84,-0.16
7.441203550999944,540,1692.78,-96.2,-6.7,88.8,1.66,1.84,-0.7,0.02,-0.81,-0.15
7.45110724999995,541,1692.79,-96.0,-6.6,89.0,1.43,1.82,-0.48,0.01,-0.8,-0.15
7.461026719000074,542,1692.8,-95.9,-6.5,89.1,1.3,1.74,-0.26,0.0,-0.79,-0.17
7.4707547860002705,543,1692.81,-95.8,-6.5,89.3,1.29,1.7,-0.03,0.0,-0.77,-0.2
7.480537526000262,544,1692.82,-95.7,-6.5,89.5,1.25,1.73,0.18,-0.01,-0.75,-0.23
7.491046403000382,545,1692.83,-95.6,-6.5,89.7,1.09,1.83,0.35,-0.01,-0.74,-0.25
7.501134998999987,546,1692.84,-95.5,-6.5,89.8,0.74,1.98,0.52,0.0,-0.72,-0.26
7.51103957100031,547,1692.85,-95.5,-6.6,90.1,0.24,2.06,0.73,0.0,-0.73,-0.27
7.521254136000152,548,1692.86,-95.5,-6.6,90.3,-0.33,2.18,0.9,0.0,-0.78,-0.26
7.531105797000237,549,1692.87,-95.6,-6.7,90.5,-0.77,2.26,0.97,0.0,-0.84,-0.23
7.540942985000129,550,1692.88,-95.8,-6.8,90.7,-1.04,2.2,0.98,-0.02,-0.89,-0.18
7.551252685000236,551,1692.89,-95.9,-6.8,91.0,-1.14,1.97,0.98,-0.05,-0.93,-0.12
7.561078878999979,552,1692.9,-96.0,-6.9,91.2,-1.04,1.59,0.96,-0.06,-0.98,-0.07
7.571065079000164,553,1692.91,-96.1,-6.9,91.3,-0.89,1.14,0.85,-0.08,-1.02,-0.05
7.581343669000034,554,1692.92,-96.2,-7.0,91.4,-0.8,0.64,0.65,-0.12,-1.04,-0.03
7.591103002000182,555,1692.93,-96.2,-7.0,91.4,-0.7,0.03,0.39,-0.16,-1.04,-0.01
7.601046001000213,556,1692.94,-96.3,-7.1,91.4,-0.56,-0.73,0.15,-0.21,-1.04,-0.02
7.6111622580001494,557,1692.95,-96.3,-7.1,91.3,-0.4,-1.53,-0.04,-0.24,-1.0,-0.15
7.621260888000052,558,1692.96,-96.3,-7.1,91.1,-0.33,-1.93,-0.02,-0.22,-0.92,-0.33
7.631317323000076,559,1692.97,-96.3,-7.2,90.9,-0.54,-1.61,0.31,-0.12,-0.87,-0.47
7.641329861000031,560,1692.98,-96.4,-7.2,90.8,-1.2,-0.91,0.65,0.02,-0.99,-0.48
7.651143263999984,561,1692.99,-96.6,-7.3,90.8,-2.34,0.05,0.35,0.12,-1.29,-0.44
7.661089646000164,562,1693.0,-96.9,-7.3,90.8,-3.27,1.22,-0.62,0.04,-1.47,-0.35
7.6712279950002085,563,1693.01,-97.3,-7.1,91.0,-4.12,1.5,-1.55,-0.01,-1.56,-0.13
7.6813561809999555,564,1693.02,-97.7,-6.9,91.1,-4.17,0.9,-2.66,0.03,-1.7,0.0
7.691158835000351,565,1693.03,-98.1,-6.6,91.1,-3.32,0.24,-3.63,0.05,-1.58,0.08
7.7012649210000745,566,1693.04,-98.4,-6.2,91.0,-2.38,-0.2,-3.82,0.06,-1.35,0.06
7.711121748000096,567,1693.05,-98.6,-5.8,90.9,-1.82,-0.04,-3.22,0.05,-1.19,0.05
7.721262466000098,568,1693.06,-98.7,-5.6,90.9,-1.26,0.02,-2.45,0.05,-1.14,0.07
7.731100931000128,569,1693.07,-98.8,-5.3,90.9,-0.48,0.44,-1.88,0.1,-1.11,-0.04
7.741227679000076,570,1693.08,-98.8,-5.2,91.0,0.21,1.71,-1.63,0.07,-1.07,-0.07
7.751103184000385,571,1693.09,-98.8,-5.0,91.2,0.81,2.59,-1.36,0.02,-0.94,-0.03
7.760975314000007,572,1693.1,-98.7,-4.8,91.4,0.92,3.33,-0.94,0.04,-0.92,0.0
7.771230934999949,573,1693.11,-98.6,-4.7,91.8,0.84,3.8,-0.87,0.06,-1.05,0.07
7.781316101000357,574,1693.12,-98.6,-4.5,92.2,0.83,4.15,-1.36,0.08,-1.13,0.08
7.791111606999948,575,1693.13,-98.5,-4.3,92.6,1.01,4.34,-1.86,0.08,-1.07,0.14
7.801019635000102,576,1693.14,-98.4,-4.0,93.0,1.3,4.23,-2.05,0.03,-0.98,0.16
7.811146182000357,577,1693.15,-98.3,-3.8,93.3,1.23,4.01,-1.85,-0.03,-0.92,0.14
7.820998975000293,578,1693.16,-98.2,-3.5,93.7,1.38,3.62,-1.7,-0.09,-0.95,0.12
7.831344030000309,579,1693.17,-98.1,-3.3,94.0,1.52,2.92,-1.34,-0.16,-0.87,0.1
7.841194367000298,580,1693.18,-98.0,-3.2,94.2,1.29,2.26,-0.73,-0.22,-0.85,0.03
7.851022582000041,581,1693.19,-97.8,-3.1,94.4,1.49,1.72,-0.36,-0.25,-0.87,0.0
7.86099683700013,582,1693.2,-97.7,-3.1,94.6,1.39,1.21,0.07,-0.25,-0.84,0.0
7.8712699800003065,583,1693.21,-97.6,-3.1,94.7,1.03,0.85,0.55,-0.21,-0.83,0.0
7.88127157200006,584,1693.22,-97.5,-3.2,94.8,0.6,0.63,0.93,-0.17,-0.89,0.0
7.8911088740001105,585,1693.23,-97.5,-3.3,94.8,0.3,0.27,1.16,-0.13,-0.92,0.0
7.901352517000305,586,1693.24,-97.5,-3.4,94.8,0.23,-0.02,1.26,-0.1,-0.95,0.0
7.911057728000287,587,1693.25,-97.4,-3.5,94.8,0.42,-0.34,1.19,-0.1,-0.98,0.0
7.921044683000218,588,1693.26,-97.3,-3.6,94.8,0.94,-0.67,0.97,-0.1,-0.98,0.0
7.93109899800038,589,1693.27,-97.2,-3.7,94.7,1.43,-0.92,0.75,-0.12,-0.94,-0.03
7.941381334000198,590,1693.28,-97.1,-3.8,94.6,1.65,-1.07,0.64,-0.13,-0.9,-0.04
7.9511656670001685,591,1693.29,-96.9,-3.9,94.5,1.58,-1.27,0.67,-0.14,-0.86,-0.04
7.961185982000188,592,1693.3,-96.7,-4.0,94.4,1.27,-1.51,0.76,-0.13,-0.85,-0.05
7.9711792540001625,593,1693.31,-96.6,-4.1,94.2,0.87,-1.8,0.84,-0.13,-0.86,-0.07
7.981266175000201,594,1693.32,-96.5,-4.3,94.0,0.6,-2.07,0.84,-0.12,-0.87,-0.11
7.991366528000071,595,1693.33,-96.5,-4.4,93.8,0.36,-2.21,0.76,-0.09,-0.89,-0.17
8.001342882000245,596,1693.34,-96.5,-4.5,93.6,0.23,-2.21,0.56,-0.06,-0.92,-0.21
8.011065605000113,597,1693.35,-96.5,-4.6,93.4,0.24,-2.13,0.29,-0.05,-0.93,-0.23
8.021255857000142,598,1693.36,-96.4,-4.6,93.2,0.44,-2.03,-0.03,-0.05,-0.93,-0.26
8.031322686000294,599,1693.37,-96.3,-4.6,93.0,0.73,-1.9,-0.36,-0.05,-0.91,-0.26
8.040997817000061,600,1693.38,-96.2,-4.6,92.8,1.04,-1.87,-0.69,-0.07,-0.87,-0.26
8.051364696000292,601,1693.39,-96.1,-4.5,92.6,1.24,-1.84,-0.97,-0.09,-0.83,-0.26
8.06108193099999,602,1693.4,-96.0,-4.4,92.4,1.2,-1.83,-1.16,-0.12,-0.79,-0.25
8.071055501000046,603,1693.41,-95.8,-4.3,92.2,0.79,-1.84,-1.27,-0.16,-0.75,-0.23
8.081019757000377,604,1693.42,-95.8,-4.2,92.0,0.0,-1.94,-1.21,-0.18,-0.73,-0.21
8.091180109000106,605,1693.43,-95.8,-4.1,91.8,-1.03,-2.09,-0.96,-0.19,-0.73,-0.18
8.10102688400002,606,1693.44,-96.0,-4.1,91.6,-1.99,-2.19,-0.64,-0.16,-0.79,-0.21
8.111086662000162,607,1693.45,-96.2,-4.0,91.4,-2.5,-2.01,-0.41,-0.12,-0.87,-0.25
8.121249758999966,608,1693.46,-96.4,-4.0,91.2,-2.33,-1.67,-0.23,-0.09,-0.91,-0.26
8.131242425999972,609,1693.47,-96.6,-4.0,91.0,-1.69,-1.33,0.0,-0.05,-0.93,-0.25
8.14097214900039,610,1693.48,-96.7,-4.1,90.9,-1.11,-0.92,0.36,0.02,-0.92,-0.29
8.151358826999967,611,1693.49,-96.8,-4.1,90.9,-1.0,-0.21,0.83,0.11,-0.94,-0.34
8.161139349000223,612,1693.5,-97.0,-4.2,90.9,-1.11,0.78,1.23,0.16,-0.95,-0.39
8.171008776000235,613,1693.51,-97.1,-4.3,91.1,-1.04,1.74,1.33,0.19,-1.01,-0.42
8.181334476000302,614,1693.52,-97.2,-4.4,91.3,-0.48,2.65,1.05,0.16,-1.09,-0.39
8.19112657200003,615,1693.53,-97.2,-4.5,91.6,0.39,3.2,0.78,0.0,-1.06,-0.23
8.201062063000336,616,1693.54,-97.2,-4.5,92.0,-0.04,2.92,1.47,-0.03,-0.98,-0.18
8.211335731999952,617,1693.55,-97.4,-4.7,92.3,-1.81,2.46,2.77,0.01,-1.11,-0.21
8.221244955000202,618,1693.56,-97.6,-5.0,92.5,-2.7,2.48,3.94,-0.04,-1.23,-0.3
8.231021023000267,619,1693.57,-98.0,-5.4,92.9,-2.27,2.94,5.0,-0.11,-1.3,-0.29
8.240940887000306,620,1693.58,-98.1,-5.9,93.3,-0.48,3.49,5.3,-0.2,-1.49,-0.13
8.251143152000168,621,1693.59,-98.1,-6.3,93.7,1.95,3.69,4.16,-0.26,-1.6,0.08
8.260903016000157,622,1693.6,-97.9,-6.6,94.1,1.54,3.64,3.13,-0.28,-1.45,0.21
8.2712514320001,623,1693.61,-97.9,-6.8,94.5,0.05,3.07,2.24,-0.35,-1.35,0.38
8.281373937000353,624,1693.62,-98.0,-7.0,94.8,-0.76,1.58,1.32,-0.42,-1.3,0.46
8.290990966000209,625,1693.63,-98.1,-7.0,94.8,-0.33,-0.16,0.57,-0.43,-1.25,0.52
8.301383541000178,626,1693.64,-98.0,-7.1,94.7,0.4,-2.36,0.26,-0.4,-1.17,0.54
8.311132041000292,627,1693.65,-97.9,-7.2,94.4,1.14,-4.67,0.38,-0.34,-1.05,0.48
8.320955334000246,628,1693.66,-97.7,-7.3,93.8,1.54,-6.19,0.85,-0.3,-0.94,0.34
8.33106806700016,629,1693.67,-97.5,-7.5,93.2,1.74,-6.75,1.38,-0.24,-0.88,0.21
8.341177636000339,630,1693.68,-97.2,-7.8,92.5,1.98,-6.86,1.68,-0.19,-0.89,0.09
8.350983500999973,631,1693.69,-96.9,-8.0,91.9,1.91,-6.47,1.82,-0.11,-0.89,-0.03
8.36093744000027,632,1693.7,-96.6,-8.2,91.3,1.45,-5.66,1.78,-0.05,-0.94,-0.09
8.371262364000359,633,1693.71,-96.4,-8.4,90.8,0.75,-4.94,1.57,0.0,-1.01,-0.13
8.380967542000235,634,1693.72,-96.3,-8.6,90.3,0.11,-4.29,1.13,0.09,-1.09,-0.16
8.39117417100033,635,1693.73,-96.2,-8.7,89.9,0.0,-3.76,0.52,0.18,-1.14,-0.18
8.401016974999948,636,1693.74,-96.2,-8.8,89.6,0.28,-3.16,-0.18,0.24,-1.15,-0.22
8.411137815000075,637,1693.75,-96.1,-8.8,89.3,0.48,-2.5,-0.74,0.24,-1.08,-0.23
8.420941660000153,638,1693.76,-96.0,-8.7,89.1,0.33,-1.86,-1.09,0.17,-1.01,-0.22
8.43117587200004,639,1693.77,-96.0,-8.6,88.9,-0.06,-1.34,-1.23,0.11,-0.96,-0.21
8.441170403000342,640,1693.78,-96.0,-8.5,88.8,-0.43,-0.86,-1.32,0.04,-0.93,-0.18
8.450981832000252,641,1693.79,-96.0,-8.3,88.7,-0.51,-0.55,-1.44,0.0,-0.93,-0.15
8.461363821000305,642,1693.8,-96.1,-8.2,88.6,-0.31,-0.35,-1.53,-0.02,-0.9,-0.13
8.471260213000278,643,1693.81,-96.1,-8.0,88.6,0.0,-0.13,-1.53,-0.04,-0.87,-0.12
8.480934821000119,644,1693.82,-96.1,-7.9,88.6,0.2,0.06,-1.49,-0.03,-0.86,-0.14
8.491102580000188,645,1693.83,-96.0,-7.7,88.6,0.25,0.33,-1.44,-0.02,-0.86,-0.15
8.501337847000286,646,1693.84,-96.0,-7.6,88.6,0.28,0.58,-1.41,0.0,-0.88,-0.15
8.511025518000224,647,1693.85,-96.0,-7.4,88.7,0.31,0.79,-1.38,0.01,-0.89,-0.16
8.520970869000394,648,1693.86,-96.0,-7.3,88.7,0.43,0.98,-1.36,0.02,-0.9,-0.16
8.531136803000209,649,1693.87,-95.9,-7.1,88.8,0.61,1.1,-1.26,0.01,-0.89,-0.16
8.540938231000382,650,1693.88,-95.9,-7.0,88.9,0.71,1.19,-1.04,0.0,-0.87,-0.17
8.551202885000293,651,1693.89,-95.8,-6.9,89.0,0.79,1.24,-0.75,0.0,-0.86,-0.17
8.561027211000237,652,1693.9,-95.7,-6.8,89.2,1.03,1.25,-0.45,-0.01,-0.84,-0.19
8.571122343000297,653,1693.91,-95.6,-6.8,89.3,1.36,1.26,-0.21,-0.01,-0.83,-0.2
8.581280817000334,654,1693.92,-95.5,-6.8,89.4,1.73,1.24,-0.01,-0.01,-0.8,-0.21
8.591177175000212,655,1693.93,-95.3,-6.8,89.5,1.98,1.25,0.14,0.0,-0.77,-0.24
8.600936994000222,656,1693.94,-95.1,-6.8,89.7,2.0,1.36,0.3,0.0,-0.74,-0.26
8.61068537600022,657,1693.95,-95.0,-6.8,89.8,1.68,1.56,0.49,0.02,-0.72,-0.28
8.620570114000202,658,1693.96,-94.8,-6.9,90.0,1.11,1.85,0.68,0.03,-0.72,-0.27
8.630995170000006,659,1693.97,-94.8,-6.9,90.2,0.24,2.17,0.81,0.04,-0.75,-0.23
8.640945486999954,660,1693.98,-94.9,-7.0,90.4,-0.62,2.35,0.8,0.05,-0.78,-0.18
8.65133054700027,661,1693.99,-95.0,-7.0,90.7,-1.45,2.43,0.75,0.05,-0.82,-0.15
8.66106149899997,662,1694.0,-95.2,-7.1,90.9,-2.08,2.39,0.61,0.02,-0.87,-0.12
8.671097093000299,663,1694.01,-95.5,-7.1,91.2,-2.35,2.25,0.42,0.0,-0.93,-0.09
8.680946850000055,664,1694.02,-95.7,-7.0,91.4,-2.39,1.92,0.17,-0.03,-1.0,-0.04
8.691144290000011,665,1694.03,-96.0,-7.0,91.6,-2.35,1.32,-0.09,-0.08,-1.05,0.01
8.701296467000248,666,1694.04,-96.2,-7.0,91.6,-2.07,0.45,-0.31,-0.14,-1.09,0.03
8.711313577000055,667,1694.05,-96.4,-7.0,91.6,-1.56,-0.65,-0.48,-0.21,-1.11,-0.02
8.721262228000342,668,1694.06,-96.5,-6.9,91.5,-0.81,-1.44,-0.62,-0.25,-1.03,-0.23
8.731081344000359,669,1694.07,-96.5,-6.9,91.3,-0.46,-1.32,-0.33,-0.23,-0.89,-0.42
8.741350416000387,670,1694.08,-96.6,-6.9,91.3,-1.25,-0.41,0.02,-0.11,-1.0,-0.4
8.75113899400003,671,1694.09,-96.8,-6.9,91.3,-2.46,0.7,-0.35,-0.07,-1.29,-0.26
8.760975466000218,672,1694.1,-97.1,-6.8,91.4,-3.54,1.14,-1.33,-0.18,-1.44,-0.09
8.771255159000248,673,1694.11,-97.5,-6.6,91.4,-4.64,0.57,-2.15,-0.16,-1.54,-0.02
8.781392202999996,674,1694.12,-97.9,-6.3,91.4,-4.55,-0.24,-2.86,-0.04,-1.56,0.03
8.791033136000351,675,1694.13,-98.3,-6.0,91.3,-3.39,-1.27,-3.32,0.1,-1.42,0.03
8.801058165000086,676,1694.14,-98.6,-5.7,91.1,-2.77,-1.28,-3.27,0.17,-1.32,-0.02
8.811149353000019,677,1694.15,-98.8,-5.4,90.9,-2.55,-0.96,-2.88,0.11,-1.25,0.02
8.821038648000012,678,1694.16,-99.1,-5.2,90.8,-2.47,-0.76,-2.21,0.09,-1.22,0.0
8.831150819999948,679,1694.17,-99.3,-5.0,90.7,-1.77,-0.02,-1.61,0.08,-1.25,-0.06
8.841165448000083,680,1694.18,-99.4,-4.9,90.8,-0.36,0.88,-1.26,0.05,-1.18,-0.06
8.851051995000034,681,1694.19,-99.4,-4.8,90.9,0.71,1.72,-0.92,0.0,-1.03,-0.04
8.861012745000153,682,1694.2,-99.3,-4.6,91.1,0.88,2.44,-0.49,-0.01,-0.93,-0.03
8.871248587000082,683,1694.21,-99.3,-4.6,91.4,0.56,3.08,-0.3,0.02,-0.95,0.01
8.881237151000278,684,1694.22,-99.2,-4.5,91.7,0.03,3.65,-0.33,0.08,-0.94,0.02
8.891099090000353,685,1694.23,-99.3,-4.4,92.1,-0.36,4.23,-0.58,0.11,-0.98,0.07
8.90093320799997,686,1694.24,-99.4,-4.2,92.5,-0.01,4.46,-0.95,0.11,-1.01,0.07
8.910991340000237,687,1694.25,-99.3,-4.0,92.9,0.67,4.42,-1.16,0.05,-1.0,0.06
8.92105966500003,688,1694.26,-99.3,-3.9,93.3,0.84,4.28,-1.08,-0.01,-0.96,0.01
8.930997812999976,689,1694.27,-99.2,-3.7,93.7,1.35,4.1,-0.98,-0.1,-0.96,0.01
8.941160449000108,690,1694.28,-99.1,-3.5,94.1,1.61,3.5,-0.69,-0.16,-0.91,0.01
8.95109181099997,691,1694.29,-98.9,-3.4,94.4,1.74,3.12,-0.32,-0.22,-0.87,-0.01
8.96115072800012,692,1694.3,-98.8,-3.4,94.7,1.63,2.76,0.09,-0.25,-0.85,0.0
8.971255294000002,693,1694.31,-98.7,-3.4,94.9,1.22,2.19,0.58,-0.26,-0.82,0.01
8.981144717000006,694,1694.32,-98.6,-3.4,95.1,0.69,1.7,1.11,-0.23,-0.83,0.0
8.991363065000314,695,1694.33,-98.5,-3.6,95.3,0.24,1.29,1.45,-0.19,-0.87,-0.02
9.001177651000035,696,1694.34,-98.5,-3.7,95.4,-0.02,0.89,1.55,-0.15,-0.9,-0.03
9.011017222000191,697,1694.35,-98.6,-3.8,95.5,-0.08,0.58,1.54,-0.13,-0.92,-0.03
9.021241885000109,698,1694.36,-98.6,-4.0,95.6,-0.02,0.3,1.45,-0.12,-0.92,-0.04
9.031335846000275,699,1694.37,-98.5,-4.1,95.6,0.21,0.08,1.36,-0.11,-0.92,-0.06
9.040958244000194,700,1694.38,-98.5,-4.3,95.6,0.52,-0.05,1.24,-0.1,-0.92,-0.07
9.051370584000324,701,1694.39,-98.4,-4.4,95.7,0.77,-0.16,1.12,-0.1,-0.91,-0.09
9.061139549000018,702,1694.4,-98.3,-4.5,95.6,0.91,-0.26,1.0,-0.11,-0.9,-0.09
9.07101459400019,703,1694.41,-98.1,-4.7,95.6,0.95,-0.49,0.88,-0.12,-0.89,-0.08
9.080947521000326,704,1694.42,-98.0,-4.8,95.6,0.8,-0.73,0.78,-0.13,-0.88,-0.1
9.091135653000038,705,1694.43,-97.9,-4.9,95.5,0.52,-0.91,0.66,-0.13,-0.89,-0.12
9.100913060000039,706,1694.44,-97.9,-5.0,95.4,0.27,-1.05,0.47,-0.13,-0.91,-0.15
9.111044754999966,707,1694.45,-97.9,-5.1,95.3,0.21,-1.19,0.2,-0.12,-0.93,-0.18
9.120962812000016,708,1694.46,-97.9,-5.1,95.2,0.28,-1.23,-0.12,-0.11,-0.95,-0.22
9.131291653000062,709,1694.47,-97.9,-5.1,95.1,0.5,-1.27,-0.52,-0.1,-0.96,-0.24
9.140871234000315,710,1694.48,-97.8,-5.1,94.9,0.85,-1.3,-0.93,-0.12,-0.93,-0.25
9.151080340000135,711,1694.49,-97.7,-5.0,94.8,1.29,-1.34,-1.27,-0.14,-0.86,-0.26
9.161030631000358,712,1694.5,-97.6,-4.9,94.6,1.53,-1.37,-1.46,-0.17,-0.79,-0.27
9.170991696000328,713,1694.51,-97.4,-4.7,94.5,1.28,-1.41,-1.49,-0.19,-0.73,-0.26
9.181046508000236,714,1694.52,-97.3,-4.6,94.3,0.45,-1.53,-1.34,-0.18,-0.7,-0.25
9.19108106900012,715,1694.53,-97.3,-4.5,94.1,-0.82,-1.58,-1.04,-0.16,-0.72,-0.27
9.200916143000086,716,1694.54,-97.5,-4.4,94.0,-2.04,-1.44,-0.67,-0.13,-0.8,-0.29
9.211277867000263,717,1694.55,-97.7,-4.4,93.8,-2.61,-1.27,-0.47,-0.1,-0.9,-0.28
9.220953465000093,718,1694.56,-97.9,-4.4,93.7,-2.34,-0.95,-0.41,-0.08,-0.95,-0.28
9.230987331000051,719,1694.57,-98.1,-4.4,93.6,-1.71,-0.62,-0.23,-0.04,-0.93,-0.26
9.241024585000105,720,1694.58,-98.3,-4.4,93.6,-1.22,-0.22,0.12,0.01,-0.92,-0.29
9.251087543000267,721,1694.59,-98.4,-4.4,93.6,-1.08,0.5,0.65,0.08,-0.91,-0.37
9.261196576000202,722,1694.6,-98.5,-4.5,93.7,-1.04,1.47,1.05,0.11,-0.95,-0.42
9.271208479000052,723,1694.61,-98.6,-4.6,93.9,-0.62,2.44,1.07,0.12,-1.05,-0.41
9.280864728000324,724,1694.62,-98.6,-4.6,94.2,0.35,2.98,0.55,0.05,-1.11,-0.38
9.290955028000099,725,1694.63,-98.6,-4.6,94.5,1.38,3.28,0.01,-0.07,-1.07,-0.25
9.30131045600001,726,1694.64,-98.5,-4.5,94.8,1.29,2.71,0.15,-0.18,-0.93,-0.18
9.31110129300032,727,1694.65,-98.5,-4.6,95.1,-0.8,1.92,1.22,-0.14,-0.95,-0.19
9.320932820000053,728,1694.66,-98.7,-4.8,95.3,-2.36,1.55,2.39,-0.13,-1.09,-0.31
9.331315179000285,729,1694.67,-99.0,-5.1,95.5,-3.01,1.91,3.65,-0.14,-1.15,-0.3
9.341117404000215,730,1694.68,-99.3,-5.5,95.8,-2.28,2.24,4.63,-0.19,-1.34,-0.14
9.350981001000036,731,1694.69,-99.4,-5.9,96.1,0.38,2.38,4.35,-0.28,-1.57,0.05
9.360909769000045,732,1694.7,-99.4,-6.2,96.4,1.08,2.04,3.68,-0.28,-1.45,0.23
9.371227048000037,733,1694.71,-99.3,-6.6,96.6,-0.1,1.27,3.25,-0.26,-1.39,0.3
9.381206416000168,734,1694.72,-99.4,-6.8,96.7,-0.85,0.35,2.59,-0.26,-1.41,0.3
9.390783870000178,735,1694.73,-99.5,-7.0,96.7,-0.28,-0.72,1.77,-0.28,-1.39,0.33
9.401292774000012,736,1694.74,-99.4,-7.2,96.6,0.66,-2.1,1.1,-0.25,-1.32,0.38
9.411065676000362,737,1694.75,-99.3,-7.3,96.3,1.56,-3.55,0.64,-0.23,-1.19,0.4
9.42090529699999,738,1694.76,-99.1,-7.5,95.9,1.81,-4.88,0.66,-0.21,-1.02,0.37
9.431155903000217,739,1694.77,-98.8,-7.6,95.4,1.82,-5.78,0.93,-0.21,-0.92,0.3
9.441104679000091,740,1694.78,-98.5,-7.8,94.8,2.05,-6.28,1.15,-0.2,-0.88,0.21
9.451095457000065,741,1694.79,-98.2,-8.0,94.2,2.06,-6.38,1.31,-0.16,-0.85,0.07
9.461326131000078,742,1694.8,-97.9,-8.3,93.6,1.78,-5.96,1.38,-0.11,-0.87,-0.04
9.471234504000222,743,1694.81,-97.7,-8.4,93.0,1.37,-5.27,1.29,-0.06,-0.92,-0.12
9.480817946000116,744,1694.82,-97.5,-8.6,92.5,0.81,-4.54,1.01,0.02,-1.0,-0.16
9.490581357000337,745,1694.83,-97.4,-8.7,92.1,0.51,-3.86,0.52,0.13,-1.08,-0.18
9.50052899100001,746,1694.84,-97.3,-8.8,91.8,0.46,-3.3,0.0,0.2,-1.11,-0.18
9.510985276000156,747,1694.85,-97.2,-8.8,91.5,0.45,-2.75,-0.5,0.24,-1.12,-0.19
9.521225886000138,748,1694.86,-97.1,-8.8,91.2,0.36,-2.17,-0.87,0.2,-1.09,-0.2
9.531071707000137,749,1694.87,-97.0,-8.7,91.0,0.22,-1.69,-1.04,0.13,-1.03,-0.2
9.54092018700021,750,1694.88,-97.0,-8.6,90.9,0.16,-1.25,-1.1,0.07,-0.98,-0.2
9.551044000000275,751,1694.89,-97.0,-8.5,90.7,0.24,-0.86,-1.16,0.01,-0.95,-0.17
9.56115714400039,752,1694.9,-96.9,-8.4,90.7,0.45,-0.62,-1.26,-0.02,-0.91,-0.15
9.571004337999966,753,1694.91,-96.9,-8.3,90.6,0.67,-0.42,-1.27,-0.03,-0.87,-0.14
9.58099688700031,754,1694.92,-96.8,-8.2,90.5,0.84,-0.21,-1.24,-0.04,-0.85,-0.14
9.591156304000378,755,1694.93,-96.7,-8.0,90.5,0.92,0.02,-1.16,-0.03,-0.85,-0.14
9.600852351999947,756,1694.94,-96.6,-7.9,90.5,0.94,0.21,-1.08,0.0,-0.86,-0.13
9.611147060000349,757,1694.95,-96.5,-7.8,90.5,1.1,0.37,-1.07,0.02,-0.88,-0.13
9.621225769000375,758,1694.96,-96.4,-7.7,90.6,1.29,0.54,-1.05,0.03,-0.89,-0.14
9.631005685000218,759,1694.97,-96.2,-7.6,90.6,1.38,0.73,-1.01,0.05,-0.87,-0.16
9.641310554000029,760,1694.98,-96.1,-7.5,90.7,1.34,0.94,-0.89,0.04,-0.86,-0.18
9.651133783000205,761,1694.99,-96.0,-7.4,90.8,1.28,1.16,-0.72,0.03,-0.86,-0.2
9.660877947000245,762,1695.0,-95.9,-7.3,90.9,1.34,1.34,-0.55,0.01,-0.85,-0.21
9.671080437,763,1695.01,-95.7,-7.3,91.1,1.53,1.42,-0.39,0.0,-0.85,-0.21
9.681291529000191,764,1695.02,-95.6,-7.2,91.2,1.82,1.43,-0.22,0.0,-0.83,-0.23
9.691075380000257,765,1695.03,-95.4,-7.2,91.3,2.02,1.48,-0.02,0.0,-0.8,-0.25
9.7009424150001,766,1695.04,-95.2,-7.2,91.5,2.03,1.62,0.19,0.0,-0.75,-0.27
9.710993107000377,767,1695.05,-95.1,-7.2,91.7,1.81,1.82,0.47,0.01,-0.71,-0.28
9.721197671000027,768,1695.06,-94.9,-7.3,91.9,1.34,2.09,0.75,0.04,-0.68,-0.28
9.731037986000047,769,1695.07,-94.9,-7.3,92.1,0.54,2.5,0.92,0.07,-0.69,-0.27
9.741054259000066,770,1695.08,-94.9,-7.4,92.4,-0.58,2.99,0.88,0.07,-0.73,-0.23
9.751079999000012,771,1695.09,-95.1,-7.4,92.7,-1.62,3.26,0.67,0.06,-0.79,-0.17
9.760902600999998,772,1695.1,-95.3,-7.5,93.1,-2.48,3.33,0.4,0.03,-0.85,-0.12
9.771221034000064,773,1695.11,-95.6,-7.4,93.4,-3.03,3.13,0.06,-0.01,-0.93,-0.07
9.781284593000237,774,1695.12,-96.0,-7.3,93.7,-3.17,2.67,-0.28,-0.06,-0.99,-0.01
9.791034176000267,775,1695.13,-96.3,-7.3,93.9,-2.83,1.82,-0.54,-0.11,-1.04,0.03
9.801332598000045,776,1695.14,-96.6,-7.2,94.0,-2.13,0.86,-0.67,-0.16,-1.05,0.02
9.81108165500018,777,1695.15,-96.7,-7.1,94.1,-1.36,-0.06,-0.66,-0.22,-1.04,-0.03
9.820890129999952,778,1695.16,-96.8,-7.1,94.0,-0.8,-0.82,-0.55,-0.27,-0.97,-0.18
9.831094950000079,779,1695.17,-96.9,-7.1,93.9,-0.63,-0.94,-0.13,-0.22,-0.87,-0.36
9.841042559000016,780,1695.18,-97.0,-7.1,93.8,-1.12,-0.26,0.36,-0.07,-0.91,-0.4
9.850875363000341,781,1695.19,-97.2,-7.1,93.9,-2.68,0.82,0.25,0.0,-1.24,-0.31
9.860656185000153,782,1695.2,-97.6,-7.0,94.0,-4.65,1.73,-0.99,-0.08,-1.54,-0.16
9.870587100000193,783,1695.21,-98.1,-6.8,94.1,-5.79,1.17,-2.46,-0.1,-1.61,0.05
9.880816814000354,784,1695.22,-98.7,-6.5,94.1,-5.22,-0.2,-3.5,0.0,-1.55,0.02
9.891017835000184,785,1695.23,-99.1,-6.1,94.0,-4.32,-0.78,-4.08,0.12,-1.4,-0.16
9.90132536200008,786,1695.24,-99.5,-5.7,93.9,-4.04,-0.69,-4.28,0.16,-1.3,-0.08
9.910958947000381,787,1695.25,-99.9,-5.3,93.7,-3.8,-0.56,-3.95,0.07,-1.19,-0.02
9.92096117500023,788,1695.26,-100.3,-5.0,93.6,-3.62,-0.17,-3.15,0.02,-1.21,0.03
9.931054895000216,789,1695.27,-100.6,-4.7,93.6,-2.28,-0.4,-2.35,0.03,-1.26,0.06
9.941194443000313,790,1695.28,-100.7,-4.5,93.5,-0.23,0.01,-1.73,0.03,-1.2,-0.04
9.951015588000246,791,1695.29,-100.6,-4.4,93.5,1.21,0.84,-1.26,0.01,-1.05,-0.07
9.960938100000021,792,1695.3,-100.5,-4.3,93.6,1.43,1.65,-0.84,0.01,-0.93,-0.07
9.971167357000013,793,1695.31,-100.4,-4.2,93.8,0.74,2.52,-0.65,0.05,-0.88,-0.06
9.981198324000161,794,1695.32,-100.4,-4.0,94.1,-0.48,3.19,-0.83,0.09,-1.01,0.02
9.99110285200004,795,1695.33,-100.5,-3.9,94.4,-0.7,3.49,-1.51,0.1,-1.09,0.08
