host_time_s,seq,device_time_s,roll,pitch,yaw,gyro_x,gyro_y,gyro_z,accel_x,accel_y,accel_z,belt_length,belt_velocity,belt_acceleration,motor_pos,motor_vel,motor_iq_meas,motor_iq_set,acc_mag,gyro_mag,acc_residual,threshold,heel_strike,hs_count,torque_cmd_nm
2.074211897999703,3,5569.68,-91.8,-0.3,-111.5,1.17,0.49,0.75,-0.04,-0.84,-0.1,-195.2,-57.3,86.0,0.79,1.55,-0.02,0.0,0.8468766143896052,1.4736010314871526,0.0,0.5,0,0,0.0
2.0854990149991863,4,5569.69,-91.7,-0.4,-111.5,1.15,0.56,0.68,-0.06,-0.84,-0.12,-195.8,-57.9,21.0,0.8,1.6,-0.16,0.0,0.8506468127254695,1.4486200329969208,0.003694794369147103,0.5,0,0,0.0
2.0933953499998097,5,5569.7,-91.6,-0.5,-111.4,1.01,0.65,0.55,-0.08,-0.85,-0.13,-196.4,-60.3,-12.0,0.82,1.68,-0.07,0.0,0.8635971282953643,1.3210223313782399,0.016312207740261098,0.5,0,0,0.0
2.1057563750000554,6,5569.71,-91.5,-0.5,-111.3,0.8,0.67,0.33,-0.11,-0.87,-0.12,-197.0,-63.0,-14.0,0.83,1.71,0.16,0.0,0.8850988645343525,1.0944404963267762,0.03705766509966435,0.5,0,0,0.0
2.113454804999492,7,5569.72,-91.5,-0.5,-111.3,0.61,0.58,0.09,-0.13,-0.88,-0.11,-197.6,-63.5,-8.0,0.85,1.73,0.0,0.0,0.8963258336118624,0.8465222974027323,0.047318941493630695,0.5,0,0,0.0
2.125840720999804,8,5569.73,-91.4,-0.5,-111.2,0.41,0.4,-0.12,-0.15,-0.89,-0.12,-198.3,-64.0,-8.0,0.87,1.77,0.07,0.0,0.910494371207203,0.5852349955359812,0.06025772950719188,0.5,0,0,0.0
2.1334373729996514,9,5569.74,-91.4,-0.5,-111.2,0.14,0.22,-0.29,-0.15,-0.9,-0.13,-198.9,-65.8,-20.0,0.89,1.83,-0.06,0.0,0.9216289925995167,0.39,0.06996450388151543,0.5,0,0,0.0
2.1456288279996443,10,5569.75,-91.4,-0.5,-111.2,-0.16,0.03,-0.41,-0.13,-0.91,-0.14,-199.6,-71.4,-51.0,0.91,2.02,0.25,0.0,0.9298386956886662,0.4411349000022555,0.07661072283125159,0.5,0,0,0.0
2.153399236000041,11,5569.76,-91.4,-0.4,-111.2,-0.48,-0.14,-0.47,-0.11,-0.93,-0.14,-200.4,-79.6,-76.0,0.93,2.28,0.13,0.0,0.9468896451012653,0.6862215385719105,0.09178843879897369,0.5,0,0,0.0
2.1655847669999275,12,5569.77,-91.5,-0.4,-111.2,-0.62,-0.28,-0.46,-0.08,-0.93,-0.13,-201.2,-88.8,-88.0,0.95,2.53,0.08,0.0,0.942443632266673,0.8212186067059124,0.08559557744509383,0.5,0,0,0.0
2.1734008829998857,13,5569.78,-91.5,-0.3,-111.2,-0.44,-0.42,-0.47,-0.04,-0.93,-0.13,-202.2,-99.7,-102.0,0.98,2.83,0.03,0.0,0.9398936110007345,0.7687002016391046,0.08138464505557219,0.5,0,0,0.0
2.1855776189995595,14,5569.79,-91.6,-0.3,-111.3,-0.16,-0.58,-0.55,-0.01,-0.89,-0.13,-203.3,-111.4,-114.0,1.01,3.17,0.1,0.0,0.899499861033897,0.8151686941977103,0.04017107718696,0.5,0,0,0.0
2.1934512449997783,15,5569.8,-91.7,-0.2,-111.4,-0.35,-0.75,-0.62,-0.01,-0.84,-0.14,-204.5,-124.4,-130.0,1.05,3.55,0.26,0.0,0.8516454661418681,1.034117981663601,0.007529651350967503,0.5,0,0,0.0
2.205753012999594,16,5569.81,-91.9,-0.2,-111.4,-1.01,-0.8,-0.58,0.0,-0.84,-0.14,-205.8,-137.9,-129.0,1.08,3.9,0.01,0.0,0.8515867542417507,1.4129755836531643,0.007436595986063166,0.5,0,0,0.0
2.21338434900008,17,5569.82,-92.1,-0.1,-111.5,-1.42,-0.75,-0.5,-0.01,-0.89,-0.12,-207.3,-150.2,-120.0,1.13,4.2,0.06,0.0,0.8981091247727082,1.681933411285952,0.038304059053996475,0.5,0,0,0.0
2.225689846000023,18,5569.83,-92.2,-0.1,-111.6,-1.47,-0.72,-0.34,-0.02,-0.92,-0.11,-208.9,-161.1,-107.0,1.17,4.49,0.02,0.0,0.9267685795278129,1.6717954420323078,0.06562424353291918,0.5,0,0,0.0
2.233435103999909,19,5569.84,-92.5,-0.1,-111.7,-1.38,-0.57,-0.14,-0.01,-0.95,-0.16,-210.5,-169.2,-85.0,1.22,4.69,0.11,0.0,0.9634313675607619,1.4996332885075603,0.10024129093455081,0.5,0,0,0.0
2.2456047539999417,20,5569.85,-92.6,-0.1,-111.7,-1.23,-0.33,-0.05,-0.01,-0.98,-0.2,-212.3,-176.1,-73.0,1.26,4.86,0.02,0.0,1.0002499687578101,1.2744802862343536,0.13431869428896714,0.5,0,0,0.0
2.2533904169995367,21,5569.86,-92.7,-0.1,-111.7,-0.95,-0.24,-0.09,-0.03,-0.98,-0.2,-214.1,-183.2,-80.0,1.31,5.09,0.06,0.0,1.000649788887201,0.9839715443040007,0.13202414412999086,0.5,0,0,0.0
2.2655734589998247,22,5569.87,-92.8,-0.1,-111.8,-1.1,-0.49,-0.04,-0.06,-0.97,-0.2,-216.0,-193.4,-90.0,1.37,5.35,0.0,0.0,0.9922197337283712,1.2048651376813921,0.12112220719173783,0.5,0,0,0.0
2.2734071199993195,23,5569.88,-92.9,-0.1,-111.8,-1.5,-0.86,0.01,-0.06,-1.01,-0.22,-218.0,-202.6,-90.0,1.42,5.61,0.05,0.0,1.0354226190305098,1.7290748971632202,0.16103859064399884,0.5,0,0,0.0
2.285774093999862,24,5569.89,-93.1,-0.1,-111.9,-1.83,-1.27,0.07,-0.07,-1.05,-0.22,-220.1,-210.9,-81.0,1.48,5.82,-0.12,0.0,1.0750813922675808,2.228609431910401,0.19668341660344846,0.5,0,0,0.0
2.2973277229993982,25,5569.9,-93.3,-0.1,-112.1,-2.07,-1.62,0.39,-0.08,-1.08,-0.21,-222.2,-219.5,-96.0,1.54,6.11,0.07,0.0,1.1031319050775388,2.657329486533426,0.2202392508251383,0.5,0,0,0.0
2.3053763459993206,26,5569.91,-93.5,-0.2,-112.3,-2.0,-1.75,1.05,-0.03,-1.13,-0.24,-224.5,-232.7,-128.0,1.6,6.51,0.02,0.0,1.1555950847939773,2.8574464124459094,0.2672483819307453,0.5,0,0,0.0
2.313352704999488,27,5569.92,-93.7,-0.4,-112.4,-1.37,-1.66,1.74,0.01,-1.25,-0.21,-227.0,-248.9,-154.0,1.67,6.97,0.16,0.0,1.2675567048459804,2.767688566294987,0.37162580194309336,0.5,0,0,0.0
2.3255894059993807,28,5569.93,-93.9,-0.6,-112.6,-0.56,-1.58,2.36,0.06,-1.33,-0.19,-229.6,-265.9,-162.0,1.75,7.43,-0.05,0.0,1.3448419981544302,2.894753875547971,0.4399328733465123,0.5,0,0,0.0
2.333419564999531,29,5569.94,-93.9,-0.8,-112.7,0.06,-1.38,2.88,0.1,-1.4,-0.15,-232.3,-283.3,-177.0,1.82,7.94,0.2,0.0,1.4115594213493103,3.1941195970094793,0.4965172906105646,0.5,0,0,0.0
2.3455296610000005,30,5569.95,-93.9,-1.1,-112.8,0.48,-1.0,3.46,0.15,-1.43,-0.1,-235.3,-302.8,-182.0,1.91,8.43,0.13,0.0,1.4413188405068462,3.633455655433268,0.5157511755727384,0.5,1,1,3.0
2.353398647999711,31,5569.96,-93.8,-1.4,-112.8,1.01,-0.47,4.09,0.18,-1.47,-0.02,-238.4,-314.8,-109.0,1.99,8.61,0.07,0.0,1.4811144452742333,4.238997522999984,0.544435844733323,0.5,0,1,3.0
2.3660572829994635,32,5569.97,-93.7,-1.9,-112.8,1.85,-0.05,4.39,0.17,-1.47,0.05,-241.6,-311.7,156.0,2.08,7.64,2.91,3.49,1.4806417527545277,4.764147352884879,0.533083889169345,0.5,0,1,3.0
2.373331270999188,33,5569.98,-93.4,-2.3,-112.8,2.77,-0.02,3.9,0.01,-1.31,0.11,-244.0,-189.9,1091.0,2.12,3.12,3.1,3.49,1.3146482419263337,4.783649234632489,0.359748570774328,0.5,0,1,3.0
2.3857317519996286,34,5569.99,-93.2,-2.6,-112.8,2.87,-0.43,2.97,-0.16,-1.15,0.19,-244.8,-44.0,1197.0,2.13,-0.16,3.35,3.49,1.1765202930676546,4.152433021735571,0.21718820947733597,0.5,0,1,3.0
2.393388751999737,35,5570.0,-92.9,-2.9,-112.9,2.02,-1.3,1.93,-0.29,-1.03,0.24,-244.8,12.1,921.0,2.12,-0.9,3.69,3.49,1.0966312051004203,3.0814444664799656,0.13455313907989963,0.5,0,1,3.0
2.405581405999328,36,5570.01,-92.8,-3.0,-113.1,0.63,-2.38,0.97,-0.38,-1.05,0.25,-244.4,23.7,226.0,2.11,-0.38,3.5,3.49,1.1442901729893515,2.6461670393231036,0.1785678648294542,0.5,0,1,3.0
2.4155407129992454,37,5570.02,-92.7,-3.1,-113.4,-0.03,-3.49,0.3,-0.41,-1.08,0.25,-244.3,3.2,-27.0,2.11,0.03,3.59,3.49,1.1819475453673907,3.502998715386576,0.2119007324633434,0.5,0,1,3.0
2.4255505139999514,38,5570.03,-92.7,-3.1,-113.8,0.49,-4.46,0.18,-0.4,-1.11,0.3,-244.3,0.0,-5.0,2.11,0.0,3.68,3.49,1.2174152947946728,4.490445412205787,0.24242111225281304,0.5,0,1,3.0
2.433362073999888,39,5570.04,-92.5,-3.2,-114.3,2.0,-5.47,0.54,-0.3,-1.03,0.36,-244.3,0.0,-1.0,2.11,0.0,3.72,3.49,1.131591799192624,5.84914523669912,0.153465664317749,0.5,0,1,3.0
2.445631773999594,40,5570.05,-92.2,-3.3,-114.9,2.95,-6.34,1.05,-0.17,-0.95,0.29,-244.3,0.0,0.0,2.11,0.0,3.61,3.49,1.00772019926168,7.071110238145068,0.029002183099068768,0.5,0,1,3.0
2.4533715409997967,41,5570.06,-91.9,-3.4,-115.5,2.85,-6.76,1.4,-0.04,-0.86,0.18,-244.3,0.0,-1.0,2.11,0.0,3.49,3.49,0.8795453370918409,7.468607634626417,0.09718922548935494,0.5,0,1,3.0
2.4656890379992547,42,5570.07,-91.6,-3.6,-116.2,1.92,-6.64,1.59,0.05,-0.87,0.11,-244.3,0.0,-1.0,2.11,0.0,3.67,3.49,0.8783507272155013,7.09253833264227,0.0964161586583806,0.5,0,1,3.0
2.4732914689993777,43,5570.08,-91.4,-3.8,-116.8,1.04,-6.27,1.59,0.1,-0.95,0.1,-244.3,0.0,0.0,2.11,0.0,3.38,3.49,0.9604686356149273,6.551534171474647,0.014012285253775514,0.5,0,1,3.0
2.4857327189993157,44,5570.09,-91.3,-4.0,-117.4,1.04,-5.78,1.47,0.11,-1.02,0.1,-244.3,2.4,29.0,2.11,-0.14,3.56,3.49,1.0307764064044151,6.053998678559486,0.05516957582499804,0.5,0,1,3.0
2.495819384999777,45,5570.1,-91.2,-4.1,-118.0,1.19,-5.28,1.17,0.03,-1.06,0.12,-244.2,15.6,133.0,2.11,-0.68,3.55,3.49,1.0671925786848409,5.537454288750382,0.08975403314331531,0.5,0,1,3.0
2.505228473999523,46,5570.11,-91.0,-4.2,-118.5,1.24,-4.94,0.7,0.01,-0.98,0.08,-243.9,38.1,216.0,2.1,-1.4,3.54,3.49,0.9833107342035883,5.14112828083486,0.005754744888821439,0.5,0,1,3.0
2.517144886999631,47,5570.12,-90.9,-4.3,-119.0,0.62,-4.65,0.23,0.01,-0.92,0.1,-243.3,65.9,254.0,2.08,-2.15,3.1,3.49,0.9254728521139883,4.6967861352205516,0.05104147445676288,0.5,0,1,3.0
2.525065965000067,48,5570.13,-90.8,-4.3,-119.4,-0.38,-4.46,-0.3,0.01,-0.91,0.08,-242.4,107.9,416.0,2.05,-3.55,3.42,3.49,0.9135644476444998,4.486201065489598,0.06169088134772638,0.5,0,1,3.0
2.535118484999657,49,5570.14,-90.9,-4.2,-119.9,-0.84,-4.1,-0.69,0.03,-0.92,0.05,-241.0,156.7,456.0,2.0,-4.84,3.12,3.49,0.9218459741193211,4.241662409952022,0.05234116777544695,0.5,0,1,0.0
2.5453405359994576,50,5570.15,-90.9,-4.1,-120.2,-0.84,-3.7,-0.96,0.03,-0.93,0.05,-239.0,208.7,519.0,1.94,-6.4,3.08,3.49,0.9318261640456336,3.9137194585202453,0.04151375829215187,0.5,0,1,0.0
2.555457020999711,51,5570.16,-91.0,-4.0,-120.6,-0.57,-3.49,-1.16,0.04,-0.92,0.06,-236.6,245.6,116.0,1.88,-5.94,0.34,0.0,0.9228217596047463,3.7216394236948855,0.049507799478378356,0.5,0,1,0.0
2.565403755999796,52,5570.17,-91.0,-3.9,-121.0,-0.54,-3.25,-1.35,0.01,-0.95,0.02,-234.7,163.3,-558.0,1.84,-3.41,0.0,0.0,0.9502631214563679,3.5604213233829505,0.021625108874221644,0.5,0,1,0.0
2.5733585329999187,53,5570.18,-91.0,-3.7,-121.3,-0.73,-3.11,-1.61,-0.05,-0.93,0.03,-233.5,98.3,-502.0,1.81,-2.22,0.06,0.0,0.9318261640456336,3.5773034537204134,0.03926082495925687,0.5,0,1,0.0
2.5856971949997387,54,5570.19,-91.0,-3.6,-121.6,-0.82,-3.01,-1.7,-0.04,-0.87,0.01,-232.8,70.4,-286.0,1.79,-1.79,-0.08,0.0,0.870976463516667,3.552815784698103,0.09810831497845895,0.5,0,1,0.0
2.5954185369992047,55,5570.2,-91.1,-3.4,-121.9,-0.65,-3.04,-1.61,0.0,-0.85,0.01,-232.1,68.3,-69.0,1.77,-1.94,-0.01,0.0,0.8500588214941364,3.500885602244095,0.11664543786096981,0.5,0,1,0.0
2.6053542059999018,56,5570.21,-91.1,-3.2,-122.2,-0.45,-3.09,-1.39,0.04,-0.83,-0.02,-231.4,77.1,51.0,1.75,-2.32,-0.02,0.0,0.8312039460926541,3.417996489173153,0.13279030699720296,0.5,0,1,0.0
2.6133744029993977,57,5570.22,-91.1,-3.1,-122.5,-0.4,-2.98,-1.17,0.08,-0.85,-0.06,-230.5,95.4,157.0,1.72,-2.95,0.0,0.0,0.8558621384311844,3.2263446809043823,0.10596947236549925,0.5,0,1,0.0
2.625602145999437,58,5570.23,-91.1,-2.9,-122.8,-0.42,-2.76,-1.11,0.11,-0.87,-0.1,-229.4,121.0,228.0,1.69,-3.68,-0.14,0.0,0.8826097665446492,3.004346850814666,0.07763740736699376,0.5,0,1,0.0
2.6332842179999716,59,5570.24,-91.2,-2.8,-123.1,-0.43,-2.47,-1.13,0.13,-0.9,-0.12,-228.0,146.0,235.0,1.65,-4.33,-0.12,0.0,0.9172240729505523,2.7500363633959464,0.04216263894186878,0.5,0,1,0.0
2.6458333529999436,60,5570.25,-91.2,-2.7,-123.3,-0.46,-2.14,-1.17,0.13,-0.93,-0.13,-226.4,170.5,247.0,1.6,-5.02,-0.14,0.0,0.9479978902930112,2.481954874690513,0.011161045167421668,0.5,0,1,0.0
2.6533314210000754,61,5570.26,-91.2,-2.6,-123.5,-0.41,-1.78,-1.28,0.12,-0.93,-0.14,-224.5,194.8,243.0,1.54,-5.66,0.08,0.0,0.9481033698917012,2.2304483854149146,0.010834454257357073,0.5,0,1,0.0
2.6655027979995793,62,5570.27,-91.3,-2.5,-123.7,-0.44,-1.47,-1.29,0.1,-0.92,-0.15,-222.4,219.1,239.0,1.48,-6.32,-0.11,0.0,0.9374966666607407,2.0046446069066706,0.02101233433855121,0.5,0,1,0.0
2.6757103379995897,63,5570.28,-91.3,-2.4,-123.8,-0.51,-1.21,-1.27,0.09,-0.92,-0.17,-220.0,244.2,255.0,1.42,-7.06,-0.19,0.0,0.9398936110007345,1.8267731112538306,0.01824308219858628,0.5,0,1,0.0
2.6852910319994407,64,5570.29,-91.4,-2.2,-123.9,-0.51,-1.0,-1.25,0.08,-0.92,-0.17,-217.4,271.7,257.0,1.34,-7.72,0.08,0.0,0.9389888178247918,1.6800595227550719,0.018764917867038378,0.5,0,1,0.0
2.6932872759998645,65,5570.3,-91.4,-2.1,-124.0,-0.55,-0.82,-1.21,0.07,-0.93,-0.19,-214.5,293.9,225.0,1.26,-8.3,0.08,0.0,0.9517877914745493,1.5617298101784445,0.00584662533293534,0.5,0,1,0.0
2.70555375099957,66,5570.31,-91.5,-2.0,-124.1,-0.55,-0.65,-1.16,0.05,-0.94,-0.2,-211.4,315.7,233.0,1.17,-8.97,-0.15,0.0,0.9623408959407264,1.438957956300322,0.0046123495505768775,0.5,0,1,0.0
2.7133847229997627,67,5570.32,-91.5,-1.9,-124.1,-0.37,-0.52,-1.04,0.05,-0.94,-0.21,-208.1,341.7,245.0,1.08,-9.59,-0.16,0.0,0.9644687656943588,1.2202049008260867,0.006605414918125163,0.5,0,1,0.0
2.725483028999406,68,5570.33,-91.5,-1.8,-124.2,0.01,-0.38,-0.9,0.05,-0.94,-0.23,-204.5,360.8,201.0,0.98,-10.1,-0.16,0.0,0.9690201236300513,0.976985158536198,0.010933637396741358,0.5,0,1,0.0
2.733374790999733,69,5570.34,-91.5,-1.7,-124.2,0.31,-0.26,-0.7,0.03,-0.92,-0.22,-200.8,384.9,259.0,0.87,-10.93,-0.05,0.0,0.9464142856064675,0.8085171612278863,0.0114387566143056,0.5,0,1,0.0
2.7457868439996673,70,5570.35,-91.5,-1.7,-124.2,0.55,-0.19,-0.44,0.03,-0.87,-0.22,-196.7,411.7,224.0,0.76,-11.42,0.05,0.0,0.897886407069402,0.7295203903935791,0.058767302448343606,0.5,0,1,0.0
2.753345026999341,71,5570.36,-91.4,-1.6,-124.3,0.74,-0.04,-0.16,0.07,-0.84,-0.22,-192.5,426.8,177.0,0.64,-11.84,0.13,0.0,0.8711486669908873,0.7581556568409946,0.08379494167632118,0.5,0,1,0.0
2.765931477999402,72,5570.37,-91.3,-1.6,-124.2,0.68,0.15,0.03,0.1,-0.82,-0.2,-188.1,445.5,194.0,0.52,-12.43,0.12,0.0,0.849941174435031,0.6969935437290651,0.10290238554753395,0.5,0,1,0.0
2.7733901419996982,73,5570.38,-91.3,-1.6,-124.2,0.51,0.33,0.17,0.13,-0.82,-0.19,-183.5,470.9,272.0,0.39,-13.31,0.0,0.0,0.8517041739947033,0.6307931515164064,0.09911659826810437,0.5,0,1,0.0
2.785515334999218,74,5570.39,-91.2,-1.7,-124.2,0.2,0.55,0.19,0.14,-0.8,-0.21,-178.6,499.3,226.0,0.25,-13.8,-0.13,0.0,0.838868285251028,0.6153048025166065,0.10971343727154415,0.5,0,1,0.0
2.793390369000008,75,5570.4,-91.2,-1.7,-124.1,-0.26,0.83,0.25,0.14,-0.81,-0.22,-173.5,519.2,245.0,0.11,-14.52,-0.14,0.0,0.8509406559801923,0.9049861877399014,0.09568824521153219,0.5,0,1,0.0
2.8055365249992974,76,5570.41,-91.3,-1.7,-124.0,-0.57,1.15,0.31,0.15,-0.85,-0.24,-168.0,539.5,166.0,-0.03,-14.83,0.1,0.0,0.8958794561770015,1.320416600925632,0.049734456114428505,0.5,0,1,0.0
2.8133580479998272,77,5570.42,-91.3,-1.7,-123.9,-0.66,1.52,0.26,0.18,-0.9,-0.22,-162.6,558.4,211.0,-0.18,-15.43,-0.13,0.0,0.9438220171197533,1.6773789077009404,0.0017560572682431275,0.5,0,1,0.0
2.8254958019997503,78,5570.43,-91.4,-1.7,-123.7,-0.6,1.8,0.1,0.22,-0.93,-0.19,-156.9,566.4,53.0,-0.34,-15.25,0.02,0.0,0.9743715923609433,1.9,0.028217647613487884,0.5,0,1,0.0
2.83343229699949,79,5570.44,-91.5,-1.7,-123.5,-0.65,1.9,-0.05,0.24,-0.91,-0.15,-151.4,541.8,-291.0,-0.48,-13.58,0.24,0.0,0.9529952780575568,2.008730942660067,0.006704506643899322,0.5,0,1,0.0
2.845376897999813,80,5570.45,-91.6,-1.7,-123.3,-0.48,2.01,0.02,0.34,-0.87,-0.18,-146.5,428.8,-1126.0,-0.59,-9.22,0.68,0.0,0.951262319236918,2.0666155907667005,0.004872116866795229,0.5,0,1,0.0
2.8534002919996055,81,5570.46,-91.6,-1.7,-123.1,-0.63,2.63,0.08,0.35,-1.01,-0.27,-143.5,241.2,-1737.0,-0.64,-3.47,0.7,0.0,1.1024971655292362,2.7055868125048215,0.15298482389593115,0.5,0,1,0.0
2.865936323999449,82,5570.47,-91.7,-1.7,-122.8,-1.16,3.35,-0.4,0.08,-1.17,-0.24,-142.6,36.3,-1817.0,-0.64,1.37,0.15,0.0,1.1970380110923795,3.56764628291539,0.242575156069893,0.5,0,1,0.0
2.8732306019992393,83,5570.48,-91.9,-1.6,-122.4,-1.23,3.77,-0.8,-0.09,-1.12,-0.24,-143.2,-91.8,-1242.0,-0.61,3.59,0.11,0.0,1.1489560478973946,4.0454665985520135,0.19060332901740995,0.5,0,1,0.0
2.8855414529998598,84,5570.49,-92.0,-1.5,-122.0,-0.58,3.91,-0.58,-0.17,-1.07,-0.18,-144.6,-158.5,-787.0,-0.56,5.11,0.15,0.0,1.098271369015873,3.9951095103889207,0.13712027713317054,0.5,0,1,0.0
2.893368026999269,85,5570.5,-92.0,-1.5,-121.6,-0.35,3.82,-0.16,-0.24,-1.12,-0.03,-146.5,-198.5,-477.0,-0.5,5.85,-0.09,0.0,1.1458184847522752,3.839335880070927,0.18097404501218128,0.5,0,1,0.0
2.905410608999773,86,5570.51,-92.1,-1.5,-121.3,-0.84,3.46,-0.07,-0.16,-1.19,0.02,-148.6,-225.4,-337.0,-0.44,6.5,0.01,0.0,1.2008746812219833,3.561193620122332,0.23130963665225157,0.5,0,1,0.0
2.9155959499994424,87,5570.52,-92.2,-1.5,-121.0,-2.15,3.16,-0.49,-0.07,-1.26,0.01,-151.1,-246.9,-221.0,-0.38,6.85,-0.16,0.0,1.2619825672330027,3.8533362168385983,0.28656917221000566,0.5,0,1,0.0
2.92576647199985,88,5570.53,-92.5,-1.4,-120.7,-3.95,2.75,-1.15,-0.08,-1.3,0.05,-153.6,-248.8,-39.0,-0.3,6.59,0.09,0.0,1.3034185820372517,4.948484616526558,0.3214450832739696,0.5,0,1,0.0
2.933433597999283,89,5570.54,-92.9,-1.2,-120.4,-5.03,2.45,-1.81,0.0,-1.45,0.08,-156.0,-236.9,83.0,-0.24,6.23,-0.13,0.0,1.452205219657332,5.880433657477993,0.460827086476169,0.5,0,1,0.0
2.945433593999951,90,5570.55,-93.3,-1.0,-120.2,-5.14,2.22,-2.56,-0.02,-1.67,0.13,-158.3,-218.9,163.0,-0.19,5.65,-0.03,0.0,1.675171632997646,6.156427535511158,0.6701176298201532,0.5,1,2,3.0
2.9533375579994754,91,5570.56,-93.8,-0.7,-120.0,-3.51,1.79,-2.96,-0.03,-1.67,0.14,-160.3,-195.9,211.0,-0.13,4.98,-0.09,0.0,1.676126486873828,4.928062499603673,0.6576510340224084,0.5,0,2,3.0
2.9658705839992763,92,5570.57,-94.0,-0.4,-119.9,-0.88,2.02,-2.55,0.06,-1.42,0.06,-162.1,-164.0,407.0,-0.09,2.95,2.8,3.49,1.4225329521666625,3.370059346658453,0.3959763493289381,0.5,0,2,3.0
2.9731333800000357,93,5570.58,-93.9,-0.2,-119.6,0.95,2.82,-1.5,0.22,-1.14,0.03,-162.7,-10.6,1415.0,-0.1,-2.09,3.11,3.49,1.1614215427655885,3.3324015364298463,0.1321676411293069,0.5,0,2,3.0
2.985700765999354,94,5570.59,-93.8,0.0,-119.3,1.72,3.78,-0.69,0.42,-1.03,-0.03,-161.8,122.0,1063.0,-0.14,-4.21,3.44,3.49,1.1127443551867606,4.20985747977292,0.08182064447946935,0.5,0,2,3.0
2.993324856000072,95,5570.6,-93.6,0.0,-118.9,1.53,5.01,-0.44,0.52,-0.97,-0.16,-160.3,154.8,381.0,-0.19,-3.98,3.79,3.49,1.1121600604229591,5.256862181948467,0.07961162272135458,0.5,0,2,3.0
3.0054790710000816,96,5570.61,-93.5,0.0,-118.3,0.35,6.61,-0.58,0.43,-0.99,-0.18,-158.9,127.6,-126.0,-0.22,-2.73,3.69,3.49,1.0942577392917996,6.644621885404767,0.060475115558391135,0.5,0,2,3.0
3.013382986999204,97,5570.62,-93.5,0.1,-117.6,0.0,7.72,-0.84,0.27,-1.08,-0.08,-158.0,76.3,-425.0,-0.23,-1.12,3.55,3.49,1.1161093136427094,7.765565014858867,0.08068015611111501,0.5,0,2,3.0
3.025458505999268,98,5570.63,-93.5,0.3,-116.8,0.48,8.18,-1.27,0.09,-1.21,0.03,-157.6,22.7,-426.0,-0.24,-0.12,3.69,3.49,1.2137133104650373,8.291905691697174,0.17471846987477413,0.5,0,2,3.0
3.035536454999601,99,5570.64,-93.4,0.5,-116.0,1.76,7.82,-1.83,-0.07,-1.19,0.17,-157.5,-0.1,-212.0,-0.24,0.0,3.38,3.49,1.2041179344233686,8.221855021830535,0.16182063195644325,0.5,0,2,3.0
3.0452791489997253,100,5570.65,-93.1,0.7,-115.2,2.69,7.0,-1.85,-0.15,-0.99,0.19,-157.5,0.1,-71.0,-0.24,0.0,3.46,3.49,1.0191663259743229,7.723897979647323,0.02266835696275038,0.5,0,2,3.0
3.0534004379996986,101,5570.66,-92.8,0.9,-114.6,2.56,6.15,-1.2,-0.19,-0.87,0.14,-157.5,-0.8,-28.0,-0.24,0.02,3.59,3.49,0.901443287178955,6.768759118184072,0.13758356784295578,0.5,0,2,3.0
3.0653868939998574,102,5570.67,-92.6,1.0,-114.0,1.78,5.44,-0.46,-0.21,-0.85,0.08,-157.6,-1.7,-25.0,-0.23,0.1,3.45,3.49,0.8792041856133306,5.742264361730484,0.1566262160204086,0.5,0,2,3.0
3.0733574809992206,103,5570.68,-92.5,1.1,-113.5,0.88,4.87,0.1,-0.2,-0.9,0.05,-157.6,-8.0,-64.0,-0.23,0.38,3.49,3.49,0.9233092656309694,4.949878786394673,0.11027071328271432,0.5,0,2,3.0
3.0854753649991835,104,5570.69,-92.4,1.1,-113.1,0.64,4.42,0.54,-0.16,-0.93,0.02,-157.8,-20.4,-122.0,-0.22,0.82,3.54,3.49,0.9438749917229505,4.498622011238552,0.08791088744691855,0.5,0,2,3.0
3.0932894729994587,105,5570.7,-92.3,1.0,-112.6,1.01,4.21,0.96,-0.1,-0.95,0.02,-158.1,-39.9,-194.0,-0.21,1.44,3.62,3.49,0.9554580053565933,4.434613850156516,0.07480131633701026,0.5,0,2,3.0
3.1054022509997594,106,5570.71,-92.2,0.9,-112.2,1.66,4.07,1.29,-0.06,-0.92,0.02,-158.6,-54.1,-90.0,-0.2,1.41,3.46,3.49,0.9221713506718803,4.5808951090370975,0.1059262116012889,0.5,0,2,3.0
3.1133267509994766,107,5570.72,-92.0,0.8,-111.8,2.25,3.91,1.49,-0.05,-0.87,0.02,-159.2,-56.3,-97.0,-0.18,1.79,3.48,3.49,0.8716650732936361,4.750863079483558,0.1533038391999425,0.5,0,2,3.0
3.12528545799978,108,5570.73,-91.7,0.6,-111.4,2.55,3.8,1.56,-0.06,-0.85,0.0,-159.8,-69.4,-71.0,-0.16,1.81,3.54,3.49,0.8521150157109074,4.834883659406915,0.16939681884701763,0.5,0,2,3.0
3.1332906899997397,109,5570.74,-91.4,0.4,-111.0,2.25,3.67,1.55,-0.09,-0.83,0.0,-160.5,-66.8,-40.0,-0.14,1.99,3.4,3.49,0.8348652585896721,4.575357909497354,0.1829136444488879,0.5,0,2,0.0
3.1453858729992135,110,5570.75,-91.2,0.2,-110.7,1.62,3.42,1.4,-0.11,-0.87,0.0,-161.3,-75.0,-22.0,-0.12,1.93,3.51,3.49,0.8769264507357502,4.034947335467961,0.13803540325675367,0.5,0,2,0.0
3.153308103999734,111,5570.76,-91.1,0.1,-110.4,1.22,3.1,1.19,-0.13,-0.89,0.02,-162.1,-99.6,-535.0,-0.09,4.74,0.72,0.0,0.8996666049153986,3.5375839212660387,0.11298934409556305,0.5,0,2,0.0
3.165798990999974,112,5570.77,-91.0,0.0,-110.1,1.0,2.82,1.09,-0.18,-0.93,0.03,-164.0,-233.8,-1022.0,-0.02,8.01,0.37,0.0,0.947734139935879,3.184415173936966,0.06362337289358111,0.5,0,2,0.0
3.1733252039994113,113,5570.78,-90.9,0.0,-109.8,0.75,2.14,1.0,-0.31,-0.89,0.14,-167.0,-328.6,-860.0,0.07,9.94,0.05,0.0,0.9527853903162034,2.4783260479605986,0.057400680062991594,0.5,0,2,0.0
3.185599359999287,114,5570.79,-90.8,-0.1,-109.6,0.83,1.34,1.01,-0.28,-0.85,0.1,-170.8,-389.8,-636.0,0.17,11.21,0.34,0.0,0.900499861188218,1.8720576914187232,0.10749248500715747,0.5,0,2,0.0
3.1954393839996555,115,5570.8,-90.7,-0.2,-109.5,0.83,0.47,1.16,-0.23,-0.78,0.07,-174.9,-421.4,-353.0,0.29,11.68,0.07,0.0,0.8162107570964745,1.5017989212940592,0.18794595731692287,0.5,0,2,0.0
3.2053399349997562,116,5570.81,-90.7,-0.3,-109.5,0.15,-0.31,1.39,-0.19,-0.77,0.03,-179.2,-434.3,-185.0,0.41,11.87,0.01,0.0,0.7936623967405789,1.4320265360669822,0.20628443131936214,0.5,0,2,0.0
3.213412641999639,117,5570.82,-90.7,-0.5,-109.6,-0.58,-0.95,1.44,-0.16,-0.82,-0.01,-183.6,-429.1,47.0,0.52,11.32,-0.05,0.0,0.8355237878121723,1.8200274723201295,0.1611345794428134,0.5,0,2,0.0
3.2253273139995144,118,5570.83,-90.8,-0.6,-109.7,-0.97,-1.39,1.36,-0.15,-0.89,-0.05,-187.7,-404.7,182.0,0.63,10.59,0.0,0.0,0.9039358384310249,2.1731543893612346,0.09086807824748155,0.5,0,2,0.0
3.2334086829996522,119,5570.84,-90.9,-0.8,-109.9,-0.93,-1.6,1.12,-0.12,-0.97,-0.09,-191.5,-375.1,275.0,0.73,9.69,-0.32,0.0,0.9815294188153506,2.1631689716709603,0.013009007905892656,0.5,0,2,0.0
3.2453530759994464,120,5570.85,-90.9,-0.9,-110.0,-0.54,-1.67,0.83,-0.08,-1.0,-0.12,-195.0,-340.2,323.0,0.82,8.72,-0.17,0.0,1.0103464752252072,1.9414942698859556,0.01549188753388464,0.5,0,2,0.0
3.2533647219997874,121,5570.86,-91.0,-0.9,-110.2,0.06,-1.55,0.61,-0.06,-1.0,-0.16,-198.2,-303.8,364.0,0.9,7.62,-0.07,0.0,1.0144949482377918,1.666793328520366,0.019247553335539958,0.5,0,2,0.0
3.2653614939999898,122,5570.87,-90.9,-1.0,-110.3,0.76,-1.32,0.3,-0.06,-0.99,-0.17,-200.9,-260.1,428.0,0.97,6.37,-0.15,0.0,1.0062802790475425,1.5524174696260025,0.010812226462384777,0.5,0,2,0.0
3.2733243079992462,123,5570.88,-90.8,-1.0,-110.5,1.33,-1.1,-0.12,-0.09,-0.96,-0.17,-203.2,-213.2,453.0,1.03,5.11,-0.14,0.0,0.979081201943945,1.7301156030739682,0.01605911362838841,0.5,0,2,0.0
3.285438489999251,124,5570.89,-90.7,-1.0,-110.6,1.61,-0.95,-0.5,-0.14,-0.88,-0.15,-205.0,-167.8,448.0,1.07,3.92,-0.19,0.0,0.903603895520598,1.9350968967987108,0.08970569165070064,0.5,0,2,0.0
3.293298183999468,125,5570.9,-90.5,-0.9,-110.7,1.55,-0.94,-0.74,-0.17,-0.83,-0.13,-206.4,-123.2,448.0,1.1,2.69,-0.08,0.0,0.8571464285639881,1.9579836567244375,0.13343989543516432,0.5,0,2,0.0
3.3052629829999205,126,5570.91,-90.3,-0.8,-110.8,1.32,-1.09,-0.95,-0.18,-0.8,-0.12,-207.3,-78.3,445.0,1.12,1.46,-0.22,0.0,0.8287339742040265,1.9578048932414078,0.15861530279922342,0.5,0,2,0.0
3.3132521580000684,127,5570.92,-90.2,-0.7,-110.9,1.03,-1.4,-1.05,-0.16,-0.79,-0.12,-207.8,-32.9,449.0,1.12,0.23,-0.19,0.0,0.8149233092751734,2.030615670184784,0.16897744837351503,0.5,0,2,0.0
3.3254117739998037,128,5570.93,-90.1,-0.6,-111.0,0.76,-1.84,-1.12,-0.13,-0.8,-0.13,-207.8,7.7,377.0,1.12,-0.58,0.2,0.0,0.8208532146492454,2.2842066456430774,0.15978659213945412,0.5,0,2,0.0
3.333336372999838,129,5570.94,-90.1,-0.5,-111.3,0.38,-2.21,-1.09,-0.1,-0.79,-0.14,-207.6,28.2,230.0,1.11,-0.93,-0.14,0.0,0.8085171612278864,2.493311051593844,0.16868019264959688,0.5,0,2,0.0
3.3452026239992847,130,5570.95,-90.1,-0.4,-111.5,-0.22,-2.56,-0.99,-0.07,-0.8,-0.14,-207.3,33.1,64.0,1.1,-0.79,-0.03,0.0,0.8151686941977103,2.7535613303502067,0.15878808648617748,0.5,0,2,0.0
3.3533356509997247,131,5570.96,-90.1,-0.3,-111.8,-0.68,-2.77,-0.93,-0.02,-0.85,-0.16,-207.0,23.6,-67.0,1.1,-0.35,0.06,0.0,0.8651589449343975,3.0000333331481506,0.10662187903450049,0.5,0,2,0.0
3.365813327000069,132,5570.97,-90.2,-0.2,-112.0,-0.84,-2.82,-0.95,0.0,-0.88,-0.18,-206.9,-0.1,-195.0,1.1,0.32,0.2,0.0,0.8982204629154248,3.0920058214692934,0.07208915383240377,0.5,0,2,0.0
3.3733606890000374,133,5570.98,-90.3,-0.1,-112.3,-0.98,-2.63,-0.92,0.02,-0.89,-0.2,-207.0,-16.3,-140.0,1.1,0.63,0.18,0.0,0.9124143795447329,2.953591034655949,0.056737332459033674,0.5,0,2,0.0
3.3855055579997497,134,5570.99,-90.4,0.0,-112.6,-1.16,-2.21,-0.72,0.05,-0.91,-0.21,-207.3,-31.6,-179.0,1.11,1.22,0.13,0.0,0.9352539762011173,2.5977105304479173,0.03321978108659629,0.5,0,2,0.0
3.393389350999314,135,5571.0,-90.4,0.0,-112.6,-1.16,-2.21,-0.72,0.05,-0.91,-0.21,-207.6,-46.7,-254.0,1.13,1.84,0.23,0.0,0.9352539762011173,2.5977105304479173,0.03255538546486436,0.5,0,2,0.0
3.4053098379999938,136,5571.01,-90.6,0.0,-112.9,-0.61,-1.09,-0.28,0.06,-0.99,-0.17,-208.5,-84.0,-310.0,1.15,2.65,-0.07,0.0,1.0062802790475425,1.2800781226159597,0.03770149903392961,0.5,0,2,0.0
3.4134001309994346,137,5571.02,-90.6,0.0,-113.0,-0.21,-0.63,0.0,0.06,-0.99,-0.18,-209.6,-114.6,-311.0,1.18,3.5,0.09,0.0,1.0080178569846865,0.6640783086353597,0.038650295431652104,0.5,0,2,0.0
3.425272388999474,138,5571.03,-90.7,0.0,-113.0,-0.28,-0.31,0.4,0.06,-1.01,-0.19,-210.9,-146.1,-313.0,1.23,4.34,0.17,0.0,1.029465880930495,0.5783597496368502,0.05889635298991147,0.5,0,2,0.0
3.4333957029994053,139,5571.04,-90.7,0.0,-113.0,-0.37,-0.16,0.67,0.05,-1.06,-0.21,-212.6,-177.0,-303.0,1.27,5.16,-0.07,0.0,1.0817578287213827,0.7819207120929845,0.10896453476518309,0.5,0,2,0.0
3.4452768819992343,140,5571.05,-90.7,-0.1,-113.1,-0.68,-0.22,0.98,0.0,-1.05,-0.16,-214.6,-207.8,-308.0,1.33,6.02,0.0,0.0,1.0621205204683695,1.2129303360045045,0.08754068198192644,0.5,0,2,0.0
3.4533966789995247,141,5571.06,-90.9,-0.2,-113.1,-1.54,-0.33,1.67,0.0,-1.1,-0.1,-216.9,-238.1,-305.0,1.4,6.84,0.12,0.0,1.104536101718726,2.2955173708774237,0.12735713796763737,0.5,0,2,0.0
3.465349158999743,142,5571.07,-91.1,-0.4,-113.1,-1.92,-0.36,2.29,0.03,-1.22,-0.08,-219.5,-267.5,-284.0,1.47,7.58,0.01,0.0,1.2229881438509531,3.0100000000000002,0.2408929964978671,0.5,0,2,0.0
3.4733239929992124,143,5571.08,-91.3,-0.6,-113.1,-1.4,-0.15,2.6,0.06,-1.33,-0.12,-222.3,-292.9,-265.0,1.55,8.27,0.17,0.0,1.3367497896016294,2.9567718883945036,0.34756154940357253,0.5,0,2,0.0
3.4853868599993802,144,5571.09,-91.5,-0.9,-113.1,-0.72,0.08,2.71,0.01,-1.36,-0.1,-225.4,-321.1,-285.0,1.64,9.1,0.0,0.0,1.3637081799270694,2.80515596714336,0.3670295409344323,0.5,0,2,0.0
3.493362500999865,145,5571.1,-91.6,-1.2,-113.1,-0.98,0.35,3.09,-0.03,-1.35,-0.08,-228.9,-350.4,-290.0,1.74,9.9,0.1,0.0,1.3527010016999323,3.260521430691723,0.3489019154531494,0.5,0,2,0.0
3.5051298539992786,146,5571.11,-91.7,-1.5,-113.0,-1.45,1.0,3.66,0.06,-1.52,-0.01,-232.6,-379.3,-286.0,1.84,10.65,-0.02,0.0,1.5212166183683375,4.061785321752001,0.5070691814791235,0.5,1,3,3.0
3.5133200139998735,147,5571.12,-91.8,-1.8,-112.9,-0.6,1.45,3.7,0.16,-1.81,0.2,-236.5,-402.7,-205.0,1.95,11.07,0.01,0.0,1.8280317283898548,4.019017292821717,0.7976066056706279,0.5,0,3,3.0
3.5253509699996357,148,5571.13,-91.7,-2.2,-112.7,2.04,1.02,2.91,-0.01,-1.73,0.34,-240.6,-394.8,218.0,2.06,9.65,2.64,3.49,1.7631222305898138,3.6973098328379246,0.7180431657131752,0.5,0,3,3.0
3.5332900069997777,149,5571.14,-91.4,-2.4,-112.7,3.41,0.02,2.08,-0.17,-1.36,0.37,-243.7,-264.1,1125.0,2.12,5.14,3.42,3.49,1.4196478436570106,3.9943585217153457,0.36707740320476456,0.5,0,3,3.0
3.5453308910000487,150,5571.15,-91.1,-2.6,-112.8,3.15,-1.41,1.22,-0.3,-1.14,0.4,-245.2,-110.4,1324.0,2.15,1.32,3.12,3.49,1.2448293055676347,3.6604644514050397,0.18841368781308088,0.5,0,3,3.0
3.553337504999945,151,5571.16,-90.8,-2.7,-113.0,2.22,-2.82,0.48,-0.43,-0.93,0.41,-245.5,9.1,1069.0,2.14,-1.09,3.38,3.49,1.1035850669522491,3.6209391047075066,0.04622606021374143,0.5,0,3,3.0
3.5655144269994707,152,5571.17,-90.6,-2.7,-113.3,1.27,-4.14,0.21,-0.5,-0.9,0.4,-245.1,46.0,481.0,2.13,-1.16,3.53,3.49,1.104536101718726,4.335504584243915,0.04623355308061394,0.5,0,3,3.0
3.5732999669999117,153,5571.18,-90.5,-2.7,-113.8,1.17,-5.18,0.16,-0.48,-0.96,0.38,-244.7,28.6,-10.0,2.12,-0.48,3.53,3.49,1.1385956261992227,5.312899396751269,0.07868721600988837,0.5,0,3,3.0
3.585525556999528,154,5571.19,-90.3,-2.7,-114.4,1.89,-6.04,0.24,-0.39,-1.02,0.37,-244.6,8.4,-109.0,2.12,-0.06,3.62,3.49,1.1529960971312956,6.333348245596479,0.091225933203122,0.5,0,3,3.0
3.5932574299995395,155,5571.2,-90.1,-2.8,-115.0,2.52,-6.82,0.33,-0.25,-1.0,0.32,-244.5,1.2,-27.0,2.12,-0.13,3.33,3.49,1.0793053321465618,7.278165977772148,0.017184464854020476,0.5,0,3,3.0
3.6052978099996835,156,5571.21,-89.8,-2.8,-115.7,2.57,-7.26,0.48,-0.11,-0.98,0.24,-244.4,20.4,201.0,2.11,-1.08,3.31,3.49,1.0149384217774002,7.716404603181458,0.04623879660483832,0.5,0,3,3.0
3.613410752999698,157,5571.22,-89.5,-2.9,-116.5,1.81,-7.12,0.4,-0.02,-1.06,0.15,-243.9,73.5,462.0,2.09,-2.74,3.41,3.49,1.0707474025184465,7.357343270501928,0.009378780453483726,0.5,0,3,3.0
3.62518922199979,158,5571.23,-89.4,-2.9,-117.1,0.87,-6.61,0.05,0.08,-1.12,0.1,-242.7,128.7,515.0,2.05,-4.18,3.39,3.49,1.1272976536833563,6.6671958123336985,0.06461045098602569,0.5,0,3,3.0
3.6333623929995156,159,5571.24,-89.3,-2.9,-117.8,0.34,-6.07,-0.33,0.16,-1.14,0.11,-241.1,183.2,541.0,2.0,-5.67,3.1,3.49,1.1564168798491312,6.088464502647609,0.0918550836087646,0.5,0,3,3.0
3.6453441809999276,160,5571.25,-89.2,-2.8,-118.4,0.49,-5.5,-0.7,0.19,-1.12,0.09,-238.8,241.2,578.0,1.93,-7.3,2.86,3.49,1.1395613191048564,5.565977003186412,0.07349953240719986,0.5,0,3,3.0
3.653382082999997,161,5571.26,-89.1,-2.7,-118.9,0.99,-4.92,-0.93,0.18,-1.01,0.05,-236.0,298.1,557.0,1.85,-8.75,3.39,3.49,1.0271319292087069,5.104057209710722,0.03815126033917071,0.5,0,3,3.0
3.6651968589994794,162,5571.27,-89.0,-2.6,-119.3,1.14,-4.44,-1.21,0.15,-0.9,0.1,-232.7,341.9,435.0,1.76,-9.7,3.18,3.49,0.917877987534291,4.741023096336908,0.14445709797331496,0.5,0,3,3.0
3.6732482899997194,163,5571.28,-88.8,-2.4,-119.8,0.8,-4.17,-1.43,0.12,-0.8,0.11,-229.1,374.4,352.0,1.65,-10.54,3.32,3.49,0.8163945124754332,4.480379448216412,0.2410217615715292,0.5,0,3,3.0
3.6852810029995453,164,5571.29,-88.8,-2.3,-120.2,0.29,-3.93,-1.59,0.07,-0.75,0.1,-225.1,401.3,271.0,1.54,-11.16,3.47,3.49,0.7598684096605148,4.2493646583930635,0.29159690709871855,0.5,0,3,0.0
3.693302057999972,165,5571.3,-88.8,-2.1,-120.5,0.0,-3.68,-1.65,0.03,-0.75,0.07,-221.0,420.2,213.0,1.43,-11.61,3.34,3.49,0.7538567503179898,4.032976568243361,0.2916563951124187,0.5,0,3,0.0
3.7052215659996364,166,5571.31,-88.7,-1.9,-120.9,-0.12,-3.46,-1.68,0.0,-0.77,0.05,-216.7,423.4,-187.0,1.31,-10.37,0.74,0.0,0.771621668954417,3.8481683954837527,0.26841364694647163,0.5,0,3,0.0
3.7132251709999764,167,5571.32,-88.7,-1.7,-121.2,-0.25,-3.25,-1.74,-0.03,-0.85,0.04,-213.2,298.5,-936.0,1.24,-6.68,0.23,0.0,0.85146931829632,3.6949424894035903,0.18479467765247715,0.5,0,3,0.0
3.725246755999251,168,5571.33,-88.7,-1.6,-121.5,-0.52,-3.23,-1.88,-0.1,-0.86,0.08,-211.0,201.7,-831.0,1.19,-4.66,0.15,0.0,0.8694826047713663,3.773287691125605,0.16344576335388228,0.5,0,3,0.0
3.7334437689996776,169,5571.34,-88.7,-1.4,-121.9,-0.33,-3.35,-1.89,-0.05,-0.8,0.04,-209.4,146.9,-564.0,1.15,-3.57,0.02,0.0,0.8025584090893323,3.86050514829342,0.225762559855198,0.5,0,3,0.0
3.7452617369999643,170,5571.35,-88.7,-1.2,-122.2,0.17,-3.48,-1.66,0.05,-0.76,0.03,-208.1,118.1,-343.0,1.12,-2.98,-0.01,0.0,0.7622335600063802,3.859391143690932,0.260765660759387,0.5,0,3,0.0
3.75366651099921,171,5571.36,-88.7,-1.0,-122.6,0.4,-3.57,-1.36,0.13,-0.75,-0.01,-207.0,106.7,-154.0,1.09,-2.88,0.04,0.0,0.7612489737267303,3.8411586793570507,0.25651524209825616,0.5,0,3,0.0
3.7650060389996725,172,5571.37,-88.6,-0.9,-122.9,0.1,-3.49,-0.97,0.2,-0.76,-0.06,-206.0,109.0,-12.0,1.06,-3.06,0.15,0.0,0.7881624198095213,3.6236721706026334,0.22500976009515583,0.5,0,3,0.0
3.7733953819997623,173,5571.38,-88.6,-0.8,-123.2,-0.09,-3.16,-0.67,0.26,-0.81,-0.11,-204.8,120.3,90.0,1.02,-3.48,-0.12,0.0,0.8577878525602937,3.2315011991333074,0.1522766407974957,0.5,0,3,0.0
3.7852467919992705,174,5571.39,-88.6,-0.7,-123.5,0.1,-2.67,-0.47,0.28,-0.85,-0.13,-203.6,136.6,156.0,0.99,-4.05,-0.08,0.0,0.9043229511629128,2.712895132510654,0.1036267113509789,0.5,0,3,0.0
3.793392287999268,175,5571.4,-88.6,-0.7,-123.8,0.47,-2.13,-0.28,0.27,-0.87,-0.13,-201.9,160.9,213.0,0.94,-4.68,0.01,0.0,0.9201630290334425,2.199136194054384,0.0860309008108403,0.5,0,3,0.0
3.8051801759993396,176,5571.41,-88.5,-0.6,-124.0,0.71,-1.61,-0.1,0.24,-0.88,-0.12,-200.2,186.8,241.0,0.89,-5.37,-0.1,0.0,0.9199999999999999,1.7624414883904658,0.08447005124739726,0.5,0,3,0.0
3.813311185999737,177,5571.42,-88.4,-0.6,-124.1,0.72,-1.22,-0.01,0.19,-0.88,-0.13,-198.1,212.1,241.0,0.83,-6.05,-0.17,0.0,0.9096153033013462,1.4166509803053116,0.09295765298712999,0.5,0,3,0.0
3.8252408539992757,178,5571.43,-88.4,-0.6,-124.2,0.55,-0.89,0.02,0.15,-0.85,-0.14,-195.8,234.2,218.0,0.77,-6.61,-0.13,0.0,0.8744140895479668,1.0464224768228174,0.1255956894056991,0.5,0,3,0.0
3.8334110449995933,179,5571.44,-88.3,-0.6,-124.3,0.0,-0.65,0.13,0.08,-0.82,-0.13,-193.3,256.1,226.0,0.7,-7.24,-0.31,0.0,0.8340863264674706,0.662872536767062,0.16260498343647145,0.5,0,3,0.0
3.8451689899993653,180,5571.45,-88.4,-0.7,-124.3,-0.39,-0.42,0.24,0.04,-0.83,-0.14,-190.6,280.4,234.0,0.62,-7.9,-0.16,0.0,0.8426743143112884,0.6213694553162393,0.1509366556808006,0.5,0,3,0.0
3.85327544699976,181,5571.46,-88.4,-0.7,-124.4,-0.46,-0.23,0.37,0.02,-0.84,-0.14,-187.6,305.1,248.0,0.53,-8.64,-0.09,0.0,0.851821577561874,0.6335613624582863,0.13895360458161066,0.5,0,3,0.0
3.865279895999265,182,5571.47,-88.5,-0.7,-124.4,-0.47,-0.11,0.57,0.04,-0.85,-0.15,-184.3,330.6,264.0,0.43,-9.37,0.0,0.0,0.8640601830891179,0.7469270379361025,0.12418069907327944,0.5,0,3,0.0
3.8733350489992517,183,5571.48,-88.5,-0.8,-124.4,-0.47,0.11,0.78,0.07,-0.86,-0.16,-180.8,357.4,253.0,0.34,-10.03,-0.05,0.0,0.8775534171775528,0.9172785836374902,0.10847371568514774,0.5,0,3,0.0
3.885377712999798,184,5571.49,-88.6,-0.9,-124.4,-0.7,0.42,0.98,0.09,-0.87,-0.16,-177.1,376.7,207.0,0.23,-10.51,0.0,0.0,0.8891569040388766,1.2754607010802017,0.09493282424734739,0.5,0,3,0.0
3.8932813499995973,185,5571.5,-88.6,-1.0,-124.3,-0.79,0.61,1.05,0.12,-0.88,-0.15,-173.3,397.3,223.0,0.13,-11.1,0.04,0.0,0.9007219326740078,1.4486890625665674,0.08170043969997187,0.5,0,3,0.0
3.9051595040000393,186,5571.51,-88.7,-1.1,-124.2,-0.58,0.79,1.09,0.14,-0.85,-0.13,-169.1,417.3,170.0,0.02,-11.46,0.0,0.0,0.8712060605849801,1.4658103560829416,0.10899198555321965,0.5,0,3,0.0
3.913139143999615,187,5571.52,-88.8,-1.2,-124.1,-0.44,1.04,1.32,0.17,-0.8,-0.15,-164.8,434.0,207.0,-0.09,-12.12,0.14,0.0,0.8315046602394963,1.7371240600486773,0.14571951818072937,0.5,0,3,0.0
3.925171042999864,188,5571.53,-88.8,-1.4,-124.0,-0.58,1.52,1.61,0.21,-0.78,-0.17,-160.3,459.0,193.0,-0.23,-12.62,0.0,0.0,0.8254695633395578,2.288864347225497,0.14871952277905454,0.5,0,3,0.0
3.9332989149997957,189,5571.54,-88.9,-1.6,-123.8,-1.01,1.99,1.7,0.23,-0.81,-0.15,-155.6,466.6,98.0,-0.35,-12.74,-0.07,0.0,0.8552777326693359,2.805387673744932,0.1165331263802909,0.5,0,3,0.0
3.945180476999667,190,5571.55,-89.0,-1.7,-123.6,-1.63,2.23,1.48,0.22,-0.85,-0.13,-150.9,464.5,-46.0,-0.48,-12.33,0.42,0.0,0.8875809822207774,3.1337198343183137,0.0825452792922724,0.5,0,3,0.0
3.953389756999968,191,5571.56,-89.2,-1.8,-123.4,-2.15,2.34,1.16,0.22,-0.85,-0.12,-146.5,427.4,-350.0,-0.58,-10.94,0.49,0.0,0.8861715409558129,3.382853824805322,0.08227562614609218,0.5,0,3,0.0
3.965701918999912,192,5571.57,-89.5,-2.0,-123.2,-2.61,2.53,0.99,0.24,-0.86,-0.15,-142.8,344.4,-755.0,-0.67,-8.15,0.48,0.0,0.9053728513711905,3.767373090098723,0.06181282941610022,0.5,0,3,0.0
3.9733221619999313,193,5571.58,-89.8,-2.0,-122.9,-3.13,2.69,0.75,0.13,-0.96,-0.18,-140.1,223.1,-1125.0,-0.73,-4.56,0.55,0.0,0.9853425800197615,4.194699035687781,0.017793761247821394,0.5,0,3,0.0
3.9852455149994057,194,5571.59,-90.1,-2.1,-122.6,-3.3,2.78,0.55,0.06,-0.97,-0.21,-138.9,84.4,-1320.0,-0.75,-0.64,0.56,0.0,0.9942836617384397,4.349816088066253,0.026200146107169697,0.5,0,3,0.0
3.9933848789996773,195,5571.6,-90.5,-2.2,-122.3,-3.32,2.81,0.36,-0.06,-1.07,-0.2,-138.9,-31.5,-1004.0,-0.74,1.65,0.14,0.0,1.0901834707974618,4.364412904389318,0.11965795606286789,0.5,0,3,0.0
4.005203989999245,196,5571.61,-90.8,-2.2,-122.1,-3.04,2.58,0.17,-0.16,-1.08,-0.21,-139.6,-92.5,-771.0,-0.71,3.44,0.26,0.0,1.1118003417880389,3.990852039351998,0.13844933051237607,0.5,0,3,0.0
4.013527694000004,197,5571.62,-91.1,-2.2,-121.8,-2.33,2.33,0.33,-0.09,-1.06,-0.28,-141.0,-160.6,-692.0,-0.67,5.06,0.36,0.0,1.10004545360635,3.3116008213551344,0.1241605534840734,0.5,0,3,0.0
4.025215210999704,198,5571.63,-91.3,-2.2,-121.6,-2.42,2.34,0.46,-0.19,-1.23,-0.24,-143.0,-213.6,-521.0,-0.61,6.25,0.05,0.0,1.2675172582651488,3.3975873793031433,0.2857997109800148,0.5,0,3,0.0
4.033337678999487,199,5571.64,-91.6,-2.3,-121.4,-2.85,2.08,0.21,-0.24,-1.31,-0.11,-145.5,-254.2,-418.0,-0.54,7.26,0.1,0.0,1.3363382805263047,3.534543817807328,0.34752831857634714,0.5,0,3,0.0
4.045243905999996,200,5571.65,-91.9,-2.3,-121.2,-2.72,1.73,-0.06,-0.17,-1.4,-0.04,-148.2,-284.4,-328.0,-0.46,8.03,-0.01,0.0,1.4108508071373103,3.224112280923231,0.41360002828360565,0.5,0,3,0.0
4.05353374599963,201,5571.66,-92.1,-2.3,-121.0,-2.4,1.25,-0.62,-0.19,-1.49,0.0,-151.3,-307.9,-228.0,-0.37,8.52,0.06,0.0,1.5020652449211385,2.776130400395486,0.4947181767460851,0.5,0,3,0.0
4.06524822099982,202,5571.67,-92.4,-2.2,-120.9,-2.49,0.82,-1.32,-0.23,-1.46,0.0,-154.4,-311.9,-56.0,-0.28,8.38,-0.08,0.0,1.4780054127099804,2.9351149892295534,0.46124517764422857,0.5,0,3,0.0
4.073384450000049,203,5571.68,-92.6,-2.0,-120.9,-2.68,0.45,-2.0,-0.19,-1.39,0.03,-157.4,-300.6,78.0,-0.2,7.95,-0.17,0.0,1.4032462364104168,3.374151745253909,0.3787562813177716,0.5,0,3,0.0
4.0853152789995875,204,5571.69,-92.9,-1.8,-120.9,-3.0,0.23,-2.73,-0.1,-1.45,0.1,-160.4,-281.1,178.0,-0.12,7.3,-0.02,0.0,1.4568802284333464,4.062733070237325,0.42374246787388725,0.5,0,3,0.0
4.093234379000023,205,5571.7,-93.3,-1.5,-120.9,-3.72,-0.25,-3.71,-0.09,-1.54,0.17,-163.0,-252.3,277.0,-0.06,6.41,-0.16,0.0,1.5519664944836922,5.259752845904454,0.5084521592457483,0.5,1,4,3.0
4.10522526999921,206,5571.71,-93.7,-1.1,-121.0,-3.95,-0.76,-4.23,-0.09,-1.49,0.13,-165.2,-215.7,345.0,0.0,5.38,-0.01,0.0,1.498365776437783,5.837208236820064,0.4457544123758421,0.5,0,4,3.0
4.113511763999668,207,5571.72,-94.0,-0.7,-121.1,-2.97,-0.97,-3.86,0.0,-1.31,0.03,-167.0,-141.2,984.0,0.02,1.64,2.68,3.49,1.3103434664239755,4.966024566995213,0.2525774603147941,0.5,0,4,3.0
4.12496783000006,208,5571.73,-94.1,-0.3,-121.2,-1.01,-0.61,-2.43,0.22,-1.12,-0.03,-167.2,37.5,1413.0,0.01,-2.76,3.15,3.49,1.1417968295629481,2.7013144948339503,0.08235020698469153,0.5,0,4,3.0
4.13335368999924,209,5571.74,-94.2,-0.2,-121.2,0.18,0.52,-1.16,0.48,-1.08,-0.13,-166.0,143.1,926.0,-0.03,-4.4,3.37,3.49,1.1889911690168267,1.2839003076563227,0.12695365550979876,0.5,0,4,3.0
4.145186823999211,210,5571.75,-94.1,-0.1,-121.1,0.72,2.16,-0.49,0.6,-1.08,-0.2,-164.4,163.1,283.0,-0.07,-4.16,3.65,3.49,1.2515590277729614,2.32896972930092,0.18573108398061478,0.5,0,4,3.0
4.153336345999378,211,5571.76,-94.0,0.0,-120.7,0.92,4.12,-0.41,0.52,-1.08,-0.2,-163.0,127.8,-206.0,-0.1,-2.86,3.7,3.49,1.215236602477065,4.241332337839137,0.14642048551102427,0.5,0,4,3.0
4.165227971999229,212,5571.77,-93.9,0.0,-120.2,1.15,5.95,-0.56,0.33,-1.09,-0.09,-162.0,80.6,-382.0,-0.12,-1.59,2.99,3.49,1.1424097338520887,6.085934603657847,0.07212174454832687,0.5,0,4,3.0
4.173324759000025,213,5571.78,-93.8,0.1,-119.6,1.67,7.01,-0.96,0.15,-1.15,0.06,-161.5,37.7,-348.0,-0.13,-0.73,3.47,3.49,1.161292383510716,7.269841813959915,0.08918430632281527,0.5,0,4,3.0
4.185222004000025,214,5571.79,-93.6,0.2,-118.9,2.55,7.25,-1.52,0.0,-1.14,0.17,-161.3,16.9,-243.0,-0.13,-0.23,3.54,3.49,1.1526057435220423,7.834245336980454,0.07888771300745856,0.5,0,4,3.0
4.193138899999212,215,5571.8,-93.3,0.5,-118.2,3.5,6.82,-1.91,-0.09,-1.03,0.24,-161.2,1.6,-155.0,-0.14,0.03,3.54,3.49,1.0614141510268271,7.900031645506238,0.012057801898001541,0.5,0,4,3.0
4.205186342999696,216,5571.81,-92.9,0.7,-117.5,3.94,6.1,-1.86,-0.12,-0.88,0.28,-161.2,0.2,-45.0,-0.14,0.0,3.55,3.49,0.9312357381458253,7.4962123769274305,0.13939149048342336,0.5,0,4,3.0
4.213395307999235,217,5571.82,-92.5,0.9,-117.0,3.42,5.38,-1.29,-0.14,-0.78,0.24,-161.2,-0.3,-18.0,-0.14,0.0,3.55,3.49,0.8280096617793781,6.504221705938382,0.23776521551287322,0.5,0,4,3.0
4.22517057099958,218,5571.83,-92.2,1.0,-116.5,2.13,4.82,-0.58,-0.16,-0.79,0.16,-161.2,-0.1,-4.0,-0.14,0.0,3.57,3.49,0.8217663901620703,5.301480925175531,0.23912831738757745,0.5,0,4,3.0
4.233371663000071,219,5571.84,-92.0,1.0,-116.0,1.29,4.31,-0.09,-0.17,-0.86,0.13,-161.2,-0.5,-6.0,-0.13,0.02,3.57,3.49,0.886227961644181,4.49981110714661,0.17117341098735728,0.5,0,4,3.0
4.245362697999553,220,5571.85,-91.9,1.0,-115.6,1.26,3.86,0.27,-0.16,-0.93,0.12,-161.3,-2.0,-14.0,-0.13,0.07,3.51,3.49,0.951262319236918,4.069410276686292,0.10401627232672805,0.5,0,4,3.0
4.25328323299982,221,5571.86,-91.8,1.0,-115.3,1.7,3.47,0.56,-0.12,-0.97,0.09,-161.3,-4.7,-28.0,-0.13,0.18,3.43,3.49,0.9815294188153506,3.9044205716085454,0.07227418929332952,0.5,0,4,3.0
4.265308590999666,222,5571.87,-91.6,0.9,-114.9,1.99,3.26,0.94,-0.09,-0.93,0.06,-161.4,-8.2,-30.0,-0.13,0.25,3.53,3.49,0.9362691920596342,3.9333573445594796,0.11518372772806496,0.5,0,4,3.0
4.273397801999636,223,5571.88,-91.3,0.8,-114.6,2.16,3.24,1.29,-0.06,-0.92,0.03,-161.5,-9.5,-20.0,-0.13,0.29,3.43,3.49,0.9224424101265076,4.102109213563189,0.1264302994679678,0.5,0,4,0.0
4.28516511899943,224,5571.89,-91.1,0.7,-114.3,2.53,3.34,1.41,-0.04,-0.91,0.02,-161.6,-16.7,-78.0,-0.12,0.61,3.66,3.49,0.9110982383914481,4.420927504494956,0.13501898177896687,0.5,0,4,0.0
4.293288711000059,225,5571.9,-90.8,0.5,-113.9,2.79,3.39,1.33,-0.04,-0.89,0.03,-162.0,-69.3,-740.0,-0.1,3.73,0.55,0.0,0.8914033879226622,4.587493869205713,0.15161955560279772,0.5,0,4,0.0
4.305313262999334,226,5571.91,-90.5,0.3,-113.6,2.41,3.38,1.16,-0.1,-0.86,0.05,-163.7,-207.4,-1058.0,-0.04,6.98,0.47,0.0,0.8672369918309527,4.310232012316738,0.17227023266061703,0.5,0,4,0.0
4.313473905999672,227,5571.92,-90.3,0.2,-113.3,1.54,2.87,1.08,-0.19,-0.8,0.13,-166.4,-299.2,-868.0,0.04,8.97,-0.02,0.0,0.8324662155306966,3.4314574163174454,0.20290018878165572,0.5,0,4,0.0
4.324874778999401,228,5571.93,-90.2,0.1,-113.0,0.9,2.3,1.17,-0.15,-0.75,0.08,-169.9,-363.9,-681.0,0.14,10.53,0.09,0.0,0.7690253571892152,2.732928831857866,0.26101422618067427,0.5,0,4,0.0
4.33330741699956,229,5571.94,-90.1,0.0,-112.8,0.23,1.81,1.32,-0.13,-0.8,0.07,-173.8,-404.2,-412.0,0.25,11.21,0.0,0.0,0.8135109095765097,2.2519769092954753,0.21219810031751207,0.5,0,4,0.0
4.345158982999237,230,5571.95,-90.1,0.0,-112.6,-0.34,1.38,1.5,-0.12,-0.82,0.05,-178.0,-419.2,-222.0,0.36,11.52,-0.01,0.0,0.8302409288875127,2.0663978319771825,0.19155871938637892,0.5,0,4,0.0
4.3532845399995495,231,5571.96,-90.2,-0.2,-112.5,-0.74,0.94,1.7,-0.11,-0.86,0.02,-182.2,-421.4,-22.0,0.48,11.24,-0.02,0.0,0.8672369918309527,2.0787496241731467,0.15147140331408016,0.5,0,4,0.0
4.365190332999191,232,5571.97,-90.3,-0.4,-112.5,-0.93,0.56,1.86,-0.1,-0.91,-0.02,-186.3,-399.6,158.0,0.58,10.55,-0.19,0.0,0.9156964562561111,2.1536248512682055,0.1009517001111434,0.5,0,4,0.0
4.37333364099959,233,5571.98,-90.4,-0.7,-112.4,-0.89,0.28,1.95,-0.09,-0.96,-0.06,-190.1,-372.0,253.0,0.68,9.71,-0.2,0.0,0.9660745312862771,2.161712284278368,0.04956215257935792,0.5,0,4,0.0
4.385125600999345,234,5571.99,-90.5,-0.9,-112.4,-0.66,0.12,1.89,-0.07,-1.0,-0.09,-193.6,-338.3,316.0,0.77,8.75,-0.06,0.0,1.0064790112068904,2.0055173896029923,0.008974519205569687,0.5,0,4,0.0
4.393247516999509,235,5572.0,-90.5,-1.1,-112.4,-0.2,0.09,1.63,-0.06,-1.02,-0.12,-195.8,-314.3,418.0,0.86,7.79,-0.09,0.0,1.0287856919689349,1.6446884203398526,0.013065518325345193,0.5,0,4,0.0
4.4051534779991925,236,5572.01,-90.5,-1.2,-112.4,0.42,0.09,1.33,-0.06,-1.0,-0.13,-199.5,-264.4,436.0,0.93,6.67,-0.14,0.0,1.010198000393982,1.3976408694654003,0.00541172978461546,0.5,0,4,0.0
4.413452887999483,237,5572.02,-90.4,-1.3,-112.4,0.88,0.15,0.92,-0.07,-1.0,-0.15,-201.9,-219.7,453.0,0.98,5.39,-0.25,0.0,1.0136074190730846,1.28191263352851,0.0019622648834027867,0.5,0,4,0.0
4.424909479999769,238,5572.03,-90.3,-1.4,-112.3,1.31,0.26,0.52,-0.09,-0.97,-0.16,-203.7,-174.4,448.0,1.03,4.19,-0.12,0.0,0.9872183142547548,1.4332131732579074,0.027784342307697996,0.5,0,4,0.0
4.4332840089991805,239,5572.04,-90.2,-1.4,-112.3,1.65,0.36,0.18,-0.12,-0.94,-0.17,-205.2,-130.2,441.0,1.06,3.0,0.09,0.0,0.9627564593395361,1.6983815825661792,0.05120127327845836,0.5,0,4,0.0
4.445043044999693,240,5572.05,-90.0,-1.4,-112.3,2.06,0.41,-0.21,-0.15,-0.93,-0.16,-206.2,-86.7,440.0,1.09,1.8,-0.08,0.0,0.9555103348473003,2.1108765951613564,0.05727844981528041,0.5,0,4,0.0
4.453382373999375,241,5572.06,-89.7,-1.4,-112.2,2.58,0.23,-0.71,-0.2,-0.9,-0.12,-206.7,-42.1,443.0,1.1,0.61,-0.31,0.0,0.9297311439335568,2.6857773548825676,0.08139648791444343,0.5,0,4,0.0
4.465052407999792,242,5572.07,-89.5,-1.3,-112.2,2.88,-0.12,-1.13,-0.24,-0.85,-0.11,-206.9,0.1,405.0,1.09,-0.42,0.0,0.0,0.8900561780022651,3.096078164387973,0.11865002476882047,0.5,0,4,0.0
4.473416685999837,243,5572.08,-89.2,-1.1,-112.3,2.82,-0.62,-1.34,-0.27,-0.79,-0.09,-206.6,30.9,312.0,1.08,-1.13,-0.01,0.0,0.8397023282092292,3.1831431007731963,0.16562379707061925,0.5,0,4,0.0
4.485304057999201,244,5572.09,-88.9,-1.0,-112.4,2.28,-1.16,-1.35,-0.26,-0.76,-0.12,-206.2,52.0,231.0,1.07,-1.62,-0.06,0.0,0.8121576201698781,2.8924902765610123,0.1893051350077708,0.5,0,4,0.0
4.493376804000036,245,5572.1,-88.7,-0.9,-112.5,1.35,-1.65,-1.27,-0.21,-0.75,-0.11,-205.5,64.5,131.0,1.05,-1.81,0.08,0.0,0.7865748533992172,2.4815116360799117,0.2105901437428631,0.5,0,4,0.0
4.505440349999844,246,5572.11,-88.7,-0.8,-112.7,0.34,-2.0,-1.13,-0.14,-0.78,-0.09,-204.9,63.6,18.0,1.03,-1.67,0.01,0.0,0.7975587752636165,2.322175703946624,0.19561409744089453,0.5,0,4,0.0
4.513338450999981,247,5572.12,-88.7,-0.6,-112.9,-0.22,-2.23,-1.04,-0.07,-0.81,-0.11,-204.3,53.8,-99.0,1.02,-1.2,0.17,0.0,0.8204267182387469,2.4704048251248216,0.16929123137644886,0.5,0,4,0.0
4.525098288999288,248,5572.13,-88.7,-0.5,-113.1,-0.58,-2.26,-0.96,-0.02,-0.82,-0.14,-203.9,29.9,-211.0,1.01,-0.45,0.06,0.0,0.8321057625085887,2.5230140705116963,0.15445994336447488,0.5,0,4,0.0
4.5331218619994615,249,5572.14,-88.8,-0.4,-113.3,-1.04,-2.08,-0.82,0.0,-0.82,-0.15,-203.9,-0.8,-261.0,1.01,0.31,0.19,0.0,0.833606621854697,2.465846710564142,0.1498999023379992,0.5,0,4,0.0
4.54480538200005,250,5572.15,-88.9,-0.4,-113.5,-1.46,-1.7,-0.69,0.02,-0.84,-0.17,-204.0,-18.4,-176.0,1.02,0.65,0.17,0.0,0.8572630868059116,2.3447174669882935,0.12371856863904895,0.5,0,4,0.0
4.556692226999985,251,5572.16,-89.1,-0.3,-113.7,-1.55,-1.21,-0.63,0.03,-0.88,-0.18,-204.3,-33.4,-180.0,1.03,1.15,0.0,0.0,0.8987213138676527,2.064824447743682,0.08061513474576165,0.5,0,4,0.0
4.569332756999756,252,5572.17,-89.2,-0.2,-113.8,-1.17,-0.85,-0.62,0.0,-0.92,-0.19,-204.8,-55.0,-213.0,1.05,1.79,0.06,0.0,0.9394147114027969,1.5734675084030174,0.03912330246640516,0.5,0,4,0.0
4.57729130899952,253,5572.18,-89.3,-0.2,-113.8,-0.74,-0.85,-0.64,-0.03,-0.95,-0.14,-205.5,-82.9,-278.0,1.07,2.65,0.16,0.0,0.960728889958036,1.2960324070022322,0.017452941432942737,0.5,0,4,0.0
4.585261509999327,254,5572.19,-89.4,-0.1,-113.9,-1.36,-1.2,-0.58,-0.03,-1.0,-0.09,-206.5,-115.4,-306.0,1.1,3.53,0.16,0.0,1.0044899203078146,1.9042058712229621,0.02578192713849914,0.5,0,4,0.0
4.593290476999755,255,5572.2,-89.6,0.0,-114.1,-1.91,-1.61,-0.69,-0.03,-1.14,-0.02,-207.9,-148.2,-329.0,1.14,4.47,0.08,0.0,1.1405700329221349,2.5915825281090314,0.15862479895776305,0.5,0,4,0.0
4.6051485899997715,256,5572.21,-89.8,0.0,-114.3,-1.87,-2.07,-0.82,-0.09,-1.23,0.02,-209.7,-183.5,-345.0,1.2,5.42,0.26,0.0,1.233450444890268,2.907610702965581,0.24647510670737816,0.5,0,4,0.0
4.613328521999392,257,5572.22,-90.0,0.0,-114.5,-1.93,-2.38,-0.36,-0.03,-1.2,-0.01,-211.7,-220.3,-368.0,1.26,6.46,0.04,0.0,1.20041659435381,3.0852714629348257,0.20917243104750194,0.5,0,4,0.0
4.624971457999891,258,5572.23,-90.2,0.0,-114.7,-1.94,-2.36,0.26,0.06,-1.3,0.0,-214.2,-258.7,-384.0,1.33,7.53,0.01,0.0,1.3013838787997953,3.066072406190043,0.3039369211836175,0.5,0,4,0.0
4.63328612999976,259,5572.24,-90.4,0.0,-115.0,-1.69,-2.28,0.8,0.08,-1.33,0.06,-217.1,-298.1,-383.0,1.41,8.56,0.18,0.0,1.3337541002748596,2.948643756034289,0.32958099980550815,0.5,0,4,0.0
4.644992423999611,260,5572.25,-90.5,-0.1,-115.2,-2.1,-2.23,1.51,0.14,-1.36,0.07,-220.3,-331.1,-319.0,1.5,9.31,0.14,0.0,1.3689777207829206,3.4151134681002913,0.3575085279072976,0.5,0,4,0.0
4.653394234999723,261,5572.26,-90.8,-0.3,-115.4,-2.44,-1.92,2.04,0.24,-1.49,0.08,-223.8,-358.0,-293.0,1.6,10.08,0.04,0.0,1.5113239229232098,3.715050470720418,0.4898576354466351,0.5,0,4,0.0
4.664986015000068,262,5572.27,-91.0,-0.5,-115.6,-1.65,-1.62,2.5,0.21,-1.49,0.09,-227.6,-384.9,-259.0,1.71,10.73,0.0,0.0,1.5074150058958549,3.4054221471059942,0.47622974405089447,0.5,0,4,0.0
4.677286938999714,263,5572.28,-91.1,-0.8,-115.7,-0.46,-1.04,3.12,0.15,-1.47,0.08,-231.6,-404.4,-208.0,1.82,11.22,-0.05,0.0,1.4797972834141844,3.3207830401879614,0.4396397811378394,0.5,0,4,0.0
4.68525121499988,264,5572.29,-91.0,-1.1,-115.8,1.14,-0.71,2.96,0.06,-1.46,0.12,-235.7,-420.4,-143.0,1.93,11.49,0.04,0.0,1.4661514246489002,3.2504307406865323,0.4174740439251041,0.5,0,4,0.0
4.693287417999272,265,5572.3,-90.9,-1.4,-115.9,1.51,-0.97,2.05,-0.11,-1.27,0.22,-239.9,-417.7,-1.0,2.04,11.27,-0.08,0.0,1.293599628942433,2.7246100638439987,0.2400238032542641,0.5,0,4,0.0
4.705177064000054,266,5572.31,-90.8,-1.5,-116.0,0.15,-1.76,1.08,-0.26,-1.09,0.25,-244.1,-413.5,26.0,2.16,11.15,0.02,0.0,1.1481289126226202,2.0703864373589775,0.09266202519576239,0.5,0,4,0.0
4.713458350999645,267,5572.32,-90.9,-1.6,-116.2,-1.64,-2.47,0.36,-0.31,-1.08,0.23,-248.1,-397.3,154.0,2.26,10.51,-0.13,0.0,1.1469088891450794,2.9866536458049504,0.08961316168385713,0.5,0,4,0.0
4.724950817999343,268,5572.33,-91.1,-1.6,-116.5,-2.2,-2.92,-0.1,-0.3,-1.13,0.21,-251.9,-375.2,181.0,2.37,9.98,-0.14,0.0,1.1878552100319297,3.657376108633073,0.12794829291929344,0.5,0,4,0.0
4.73348974199962,269,5572.34,-91.2,-1.6,-116.8,-1.54,-3.22,-0.2,-0.23,-1.18,0.21,-255.5,-353.4,236.0,2.46,9.23,-0.15,0.0,1.220409767250328,3.5749125863438955,0.15729279313493794,0.5,0,4,0.0
4.7449408789998415,270,5572.35,-91.3,-1.6,-117.1,-0.27,-3.51,-0.24,-0.14,-1.19,0.23,-258.8,-317.8,341.0,2.55,8.14,-0.16,0.0,1.2200819644597654,3.5285407748813107,0.15382569053748774,0.5,0,4,0.0
4.753415024999413,271,5572.36,-91.3,-1.5,-117.5,0.58,-3.86,-0.36,-0.09,-1.12,0.2,-261.7,-276.1,390.0,2.62,7.01,-0.19,0.0,1.141271221051333,3.9198979578555355,0.07351464818647413,0.5,0,4,0.0
4.765092122999704,272,5572.37,-91.2,-1.5,-117.9,0.52,-4.13,-0.6,-0.05,-1.04,0.17,-264.2,-232.7,429.0,2.68,5.76,-0.15,0.0,1.0549881515922348,4.205627182716033,0.012513052847171524,0.5,0,4,0.0
4.77341156500006,273,5572.38,-91.2,-1.4,-118.3,0.05,-4.21,-0.85,0.0,-1.0,0.14,-266.2,-186.1,457.0,2.73,4.47,0.0,0.0,1.009752444909147,4.295241553160893,0.05659378433965401,0.5,0,4,0.0
4.784817982999812,274,5572.39,-91.2,-1.4,-118.8,-0.12,-4.21,-1.17,0.01,-0.98,0.12,-267.7,-137.7,477.0,2.76,3.15,-0.23,0.0,0.9873702446397703,4.371201207906129,0.07739646491685015,0.5,0,4,0.0
4.7932487779999065,275,5572.4,-91.2,-1.2,-119.2,-0.06,-4.12,-1.47,0.03,-0.95,0.1,-268.7,-89.3,477.0,2.79,1.83,-0.09,0.0,0.9557196241576292,4.374802852700908,0.10686614369101133,0.5,0,4,0.0
4.805222250999577,276,5572.41,-91.2,-1.1,-119.6,0.04,-4.06,-1.74,0.02,-0.91,0.1,-269.3,-41.0,479.0,2.8,0.53,-0.32,0.0,0.9156964562561111,4.417329510009412,0.143951525360679,0.5,0,4,0.0
4.813373107999723,277,5572.42,-91.1,-0.9,-120.0,0.09,-4.04,-1.93,0.01,-0.86,0.13,-269.4,6.1,452.0,2.79,-0.64,-0.08,0.0,0.8698275691193054,4.478236259957708,0.18602400424753496,0.5,0,4,0.0
4.824892971999361,278,5572.43,-91.1,-0.7,-120.4,0.04,-4.07,-1.98,0.0,-0.8,0.14,-269.1,39.6,349.0,2.78,-1.42,0.02,0.0,0.8121576201698781,4.526245684891619,0.23882007413302286,0.5,0,4,0.0
4.833423768999637,279,5572.44,-91.1,-0.5,-120.8,0.03,-4.15,-1.95,0.0,-0.76,0.15,-268.5,66.9,297.0,2.76,-2.15,-0.15,0.0,0.7746612162745725,4.585400745845449,0.27079014846776195,0.5,0,4,0.0
4.84479285999987,280,5572.45,-91.1,-0.3,-121.2,0.08,-4.27,-1.77,0.01,-0.7,0.14,-267.6,94.6,283.0,2.74,-2.89,-0.15,0.0,0.7139327699440613,4.623007678989945,0.3248882229023077,0.5,0,4,0.0
4.8533972749992245,281,5572.46,-91.1,-0.2,-121.7,0.08,-4.33,-1.56,0.04,-0.7,0.09,-266.5,120.5,262.0,2.7,-3.57,-0.17,0.0,0.7068946173228369,4.603140232493466,0.32528784801306154,0.5,0,4,0.0
4.8648435309996785,282,5572.47,-91.1,0.0,-122.1,0.03,-4.32,-1.41,0.06,-0.7,0.04,-265.1,145.8,256.0,2.66,-4.27,0.0,0.0,0.7037044834303672,4.544381145986767,0.32190842226742067,0.5,0,4,0.0
4.873212352999872,283,5572.48,-91.1,0.0,-122.5,-0.23,-4.19,-1.24,0.09,-0.7,0.0,-263.5,171.6,248.0,2.61,-4.94,-0.11,0.0,0.7057619995437555,4.375682803860445,0.31345388803095176,0.5,0,4,0.0
4.885027508999883,284,5572.49,-91.1,0.1,-123.0,-0.66,-3.94,-1.02,0.12,-0.74,-0.05,-261.6,195.6,240.0,2.56,-5.59,-0.16,0.0,0.7513321502504734,4.123057118207314,0.26252606257774913,0.5,0,4,0.0
4.893407977999232,285,5572.5,-91.2,0.2,-123.3,-0.88,-3.6,-0.77,0.15,-0.79,-0.07,-259.5,219.2,236.0,2.5,-6.24,-0.09,0.0,0.8071554992688832,3.7851420052621543,0.2025686592881526,0.5,0,4,0.0
4.904747310999483,286,5572.51,-91.3,0.2,-123.7,-0.91,-3.17,-0.52,0.18,-0.85,-0.09,-257.1,243.1,245.0,2.43,-6.92,-0.22,0.0,0.8734987120768982,3.338772229428057,0.13350093755053472,0.5,0,4,0.0
4.91339473699918,287,5572.52,-91.4,0.3,-124.0,-0.7,-2.77,-0.37,0.2,-0.89,-0.1,-254.5,267.5,240.0,2.36,-7.55,-0.09,0.0,0.9176600677810929,2.88093734746176,0.08755279020941331,0.5,0,4,0.0
4.924824585999886,288,5572.53,-91.5,0.3,-124.2,-0.42,-2.3,-0.28,0.2,-0.89,-0.13,-251.7,288.7,210.0,2.28,-8.08,0.0,0.0,0.9214119599831555,2.3547399007109044,0.08212488004720375,0.5,0,4,0.0
4.933192699999381,289,5572.54,-91.5,0.3,-124.4,-0.39,-1.85,-0.28,0.2,-0.87,-0.14,-248.7,310.0,228.0,2.19,-8.74,-0.09,0.0,0.9036038955205982,1.9112822920751398,0.09793428561956585,0.5,0,4,0.0
4.944832969999879,290,5572.55,-91.5,0.4,-124.6,-0.54,-1.47,-0.21,0.18,-0.84,-0.14,-245.4,337.7,265.0,2.1,-9.52,-0.06,0.0,0.8704022058795576,1.580063289871643,0.1285132557553943,0.5,0,4,0.0
4.953475825999703,291,5572.56,-91.6,0.4,-124.7,-0.82,-1.15,-0.22,0.16,-0.83,-0.14,-241.8,361.3,224.0,2.0,-10.05,-0.16,0.0,0.856796358535679,1.4294404499663493,0.1392767210372874,0.5,0,4,0.0
4.964930176999587,292,5572.57,-91.7,0.4,-124.8,-1.05,-0.86,-0.25,0.14,-0.84,-0.14,-238.1,386.4,281.0,1.89,-10.92,-0.4,0.0,0.8630179604156566,1.3800724618656803,0.13039401677416362,0.5,0,4,0.0
4.973185948999344,293,5572.58,-91.8,0.4,-124.9,-1.33,-0.65,-0.23,0.12,-0.85,-0.15,-234.0,418.0,277.0,1.78,-11.66,0.04,0.0,0.8714355971613736,1.4980987951400269,0.1195368524278776,0.5,0,4,0.0
4.9850103839999065,294,5572.59,-92.0,0.4,-125.0,-1.4,-0.43,-0.19,0.12,-0.92,-0.18,-229.6,440.8,247.0,1.66,-12.28,0.01,0.0,0.9450925880568528,1.4768209099278082,0.04496226430175043,0.5,0,4,0.0
4.9933946809997,295,5572.6,-92.1,0.4,-125.0,-1.13,-0.2,-0.06,0.13,-0.94,-0.21,-225.0,466.3,252.0,1.53,-12.99,0.07,0.0,0.9719053451854249,1.1491301057756689,0.017786517029714788,0.5,0,4,0.0
5.004792978999831,296,5572.61,-92.2,0.4,-125.0,-0.68,-0.05,0.14,0.14,-0.95,-0.22,-220.2,495.2,307.0,1.4,-13.91,-0.15,0.0,0.9851395840184273,0.6960603422117942,0.0044612326327782,0.5,0,4,0.0
5.013295830999596,297,5572.62,-92.2,0.4,-125.0,-0.11,0.12,0.25,0.15,-0.97,-0.23,-215.0,523.4,229.0,1.25,-14.38,-0.09,0.0,1.0081170566953026,0.29832867780352595,0.018145915243215183,0.5,0,4,0.0
5.024931651999395,298,5572.63,-92.2,0.4,-125.0,0.36,0.3,0.33,0.15,-0.95,-0.24,-209.7,544.2,255.0,1.1,-15.15,0.03,0.0,0.9912618221237011,0.573149195236284,0.001264867058181407,0.5,0,4,0.0
5.033218110999769,299,5572.64,-92.2,0.3,-124.9,0.49,0.51,0.57,0.14,-0.9,-0.25,-204.1,563.5,180.0,0.95,-15.51,0.08,0.0,0.9445104552094699,0.908350152749478,0.04457676985892878,0.5,0,4,0.0
5.044966859999477,300,5572.65,-92.1,0.3,-124.9,0.38,0.81,0.87,0.13,-0.9,-0.24,-198.3,590.4,260.0,0.79,-16.37,-0.08,0.0,0.9404786015641186,1.2479583326377528,0.04763645103419445,0.5,0,4,0.0
5.053393827999571,301,5572.66,-92.1,0.2,-124.8,0.49,1.04,1.21,0.13,-0.91,-0.23,-192.2,609.0,197.0,0.62,-16.79,-0.25,0.0,0.9475758544834287,1.6690715982245938,0.039728414152586544,0.5,0,4,0.0
5.064679077999244,302,5572.67,-92.0,0.0,-124.6,0.55,1.2,1.28,0.13,-0.92,-0.21,-186.0,630.9,235.0,0.45,-17.5,-0.01,0.0,0.9525754563287887,1.8387223825254317,0.034034236061082024,0.5,0,4,0.0
5.073341809999874,303,5572.68,-92.0,0.0,-124.5,0.47,1.3,1.26,0.12,-0.88,-0.22,-179.4,662.4,241.0,0.27,-18.17,-0.39,0.0,0.9149863386958299,1.870427758562196,0.07019088662016004,0.5,0,4,0.0
5.084837933000017,304,5572.69,-91.9,-0.1,-124.4,0.03,1.4,1.29,0.12,-0.85,-0.21,-172.7,678.4,210.0,0.08,-18.7,-0.23,0.0,0.883742043811428,1.9039432764659772,0.09940647787447077,0.5,0,4,0.0
5.093099451999478,305,5572.7,-92.0,-0.2,-124.2,-0.34,1.51,1.34,0.12,-0.83,-0.21,-165.9,685.8,101.0,-0.09,-18.77,-0.13,0.0,0.8645229898620395,2.0472664701987378,0.11625302118738212,0.5,0,4,0.0
5.104959614999643,306,5572.71,-92.0,-0.4,-124.1,-0.67,1.57,1.34,0.14,-0.83,-0.2,-159.0,681.5,-163.0,-0.28,-17.84,0.08,0.0,0.8651589449343976,2.1701152043151994,0.11330472479272347,0.5,0,4,0.0
5.113329420999435,307,5572.72,-92.1,-0.5,-123.9,-0.52,1.6,1.38,0.22,-0.79,-0.23,-152.7,597.4,-790.0,-0.44,-14.64,0.71,0.0,0.8517041739947034,2.1759595584477207,0.12422430581776922,0.5,0,4,0.0
5.124618415999976,308,5572.73,-92.1,-0.6,-123.7,-0.06,1.94,1.67,0.35,-0.77,-0.29,-147.7,451.0,-1293.0,-0.55,-10.33,0.7,0.0,0.8941476388158724,2.560488234692751,0.08014522417666825,0.5,0,4,0.0
5.133428327999354,309,5572.74,-92.1,-0.8,-123.5,-0.91,2.45,1.59,0.21,-0.99,-0.3,-144.3,298.5,-1408.0,-0.63,-6.37,0.35,0.0,1.0555567251455509,3.0591992416317058,0.07963858490995002,0.5,0,4,0.0
5.144934748999731,310,5572.75,-92.3,-0.9,-123.2,-2.43,2.82,0.82,-0.02,-1.13,-0.25,-142.2,163.4,-1310.0,-0.67,-2.99,0.44,0.0,1.1574973002128341,3.8117843590633504,0.17794757677768858,0.5,0,4,0.0
5.15335643599974,311,5572.76,-92.6,-0.9,-122.9,-2.63,2.38,0.11,-0.12,-1.13,-0.12,-141.4,50.8,-1143.0,-0.68,-0.15,0.14,0.0,1.1426723064816087,3.548718078405215,0.1598601313855338,0.5,0,4,0.0
5.164825770999414,312,5572.77,-92.8,-1.0,-122.7,-1.44,1.58,0.0,-0.08,-1.05,-0.12,-141.5,-29.2,-771.0,-0.67,1.31,0.15,0.0,1.0598584811190597,2.137755832643195,0.07550537990252515,0.5,0,4,0.0
5.173382711999693,313,5572.78,-92.9,-1.0,-122.6,-0.13,1.04,0.37,0.03,-0.97,-0.21,-142.1,-68.4,-505.0,-0.65,2.29,0.15,0.0,0.9929249719893241,1.1114854924829203,0.008400433357333759,0.5,0,4,0.0
5.18479521900008,314,5572.79,-92.9,-1.0,-122.5,0.32,0.9,0.77,0.14,-0.95,-0.29,-143.0,-110.6,-499.0,-0.61,3.7,0.1,0.0,1.0030952098380292,1.226906679417795,0.01819925778191822,0.5,0,4,0.0
5.193137835000016,315,5572.8,-92.9,-1.1,-122.4,-0.01,0.96,0.89,0.21,-0.99,-0.32,-144.6,-174.5,-643.0,-0.56,5.67,0.23,0.0,1.0614141510268271,1.3091218430688565,0.0749878349913018,0.5,0,4,0.0
5.2048346649999075,316,5572.81,-93.0,-1.2,-122.3,-0.63,1.32,0.8,0.2,-1.1,-0.35,-146.8,-243.5,-609.0,-0.5,7.24,0.17,0.0,1.1715374513859982,1.6671232707871366,0.18140891264346337,0.5,0,4,0.0
5.213339754999652,317,5572.82,-93.1,-1.3,-122.2,-1.71,1.59,0.4,-0.01,-1.28,-0.27,-149.5,-285.9,-433.0,-0.42,8.13,0.24,0.0,1.3082048769210426,2.3690082313069323,0.3117148114149376,0.5,0,4,0.0
5.22476588399968,318,5572.83,-93.3,-1.3,-122.0,-2.48,1.51,-0.08,-0.12,-1.31,-0.15,-152.6,-313.5,-315.0,-0.33,8.81,-0.09,0.0,1.324009063413087,2.9046342282635176,0.32096861794884246,0.5,0,4,0.0
5.233366783999372,319,5572.84,-93.6,-1.3,-121.9,-2.5,1.23,-0.37,-0.08,-1.3,-0.11,-155.9,-334.6,-228.0,-0.24,9.28,0.06,0.0,1.3070960178961606,2.8106582858825084,0.29797446098327773,0.5,0,4,0.0
5.2447297899998375,320,5572.85,-93.9,-1.2,-121.8,-2.66,0.93,-0.69,-0.08,-1.28,-0.15,-159.3,-345.3,-115.0,-0.14,9.41,-0.06,0.0,1.291239714383042,2.9011377078656575,0.2764757943207561,0.5,0,4,0.0
5.253257035999923,321,5572.86,-94.2,-1.2,-121.7,-3.61,0.84,-1.24,-0.13,-1.34,-0.11,-162.8,-338.9,66.0,-0.05,8.92,-0.36,0.0,1.3507775538555562,3.9083628286022782,0.3292933611174047,0.5,0,4,0.0
5.264930592999917,322,5572.87,-94.6,-1.0,-121.6,-4.32,0.41,-2.28,-0.13,-1.51,0.0,-165.9,-308.7,253.0,0.02,7.94,-0.33,0.0,1.515585695366646,4.901928192048513,0.48421947257592457,0.5,0,4,0.0
5.273378758000035,323,5572.88,-95.1,-0.7,-121.6,-4.71,-0.11,-3.63,-0.19,-1.64,0.05,-168.8,-272.7,320.0,0.09,6.97,-0.25,0.0,1.6517263695903142,5.947528898626723,0.6079529438636009,0.5,1,5,3.0
5.284862480999436,324,5572.89,-95.5,-0.3,-121.7,-4.46,-0.57,-4.42,-0.23,-1.61,0.04,-171.3,-236.3,355.0,0.15,5.95,-0.27,0.0,1.6268374227316018,6.304990087224563,0.5714027170647908,0.5,0,5,3.0
5.293447243999253,325,5572.9,-95.9,0.0,-121.9,-2.76,-1.12,-4.17,-0.1,-1.42,0.04,-173.2,-162.6,1009.0,0.19,2.09,2.76,3.49,1.4240786495134317,5.124539003656817,0.3612710649696882,0.5,0,5,3.0
5.304945276999206,326,5572.91,-96.0,0.4,-122.0,-0.41,-0.95,-2.86,0.16,-1.12,-0.06,-173.5,29.5,1549.0,0.18,-2.83,2.95,3.49,1.1329607230614838,3.041414144768844,0.06875007574738556,0.5,0,5,3.0
5.313034371999493,327,5572.92,-96.0,0.5,-122.1,0.7,-0.18,-1.14,0.44,-0.9,-0.14,-172.3,155.6,1073.0,0.13,-4.88,3.62,3.49,1.0115334893121435,1.3498148021117564,0.05162361484191558,0.5,0,5,3.0
5.324902832999214,328,5572.93,-95.9,0.6,-122.0,1.35,1.22,0.47,0.78,-0.81,-0.33,-170.5,168.2,212.0,0.09,-4.03,3.49,3.49,1.1719214990774767,1.879308383421944,0.10658910702494917,0.5,0,5,3.0
5.333388491999358,329,5572.94,-95.7,0.5,-121.8,1.22,4.02,1.04,0.8,-0.91,-0.48,-169.2,110.0,-341.0,0.06,-2.24,3.85,3.49,1.3032651303552936,4.327863214104623,0.23317408353671065,0.5,0,5,3.0
5.344861020999815,330,5572.95,-95.6,0.4,-121.2,0.78,6.23,0.97,0.53,-1.04,-0.22,-168.5,49.6,-510.0,0.05,-0.62,3.82,3.49,1.187813116613889,6.35312521519921,0.11536762839940007,0.5,0,5,3.0
5.3533986729999015,331,5572.96,-95.5,0.4,-120.5,1.01,7.85,0.6,0.23,-1.06,-0.03,-168.4,3.0,-375.0,0.05,0.12,3.36,3.49,1.085080642164443,7.937417716108936,0.012382450870954909,0.5,0,5,3.0
5.364917018999222,332,5572.97,-95.4,0.5,-119.7,2.2,8.3,0.15,0.02,-1.15,0.16,-168.4,0.1,-102.0,0.05,-0.03,3.64,3.49,1.1612493272333895,8.587927573052768,0.08678011322110346,0.5,0,5,3.0
5.373370407999573,333,5572.98,-95.1,0.6,-118.9,3.59,8.18,-0.25,-0.07,-1.14,0.17,-168.4,-0.4,-40.0,0.05,0.0,3.42,3.49,1.154729405531876,8.936610095556368,0.07865498768919821,0.5,0,5,3.0
5.384774075999303,334,5572.99,-94.6,0.7,-118.0,4.27,7.95,-0.56,-0.14,-1.07,0.24,-168.4,0.1,-13.0,0.05,0.0,3.66,3.49,1.105486318323298,9.041515359717087,0.02882366247100765,0.5,0,5,3.0
5.393369023999185,335,5573.0,-94.2,0.8,-117.3,4.44,7.42,-0.8,-0.21,-0.96,0.24,-168.4,0.1,-6.0,0.05,0.0,3.39,3.49,1.011582918005242,8.683893136145793,0.06377814309010721,0.5,0,5,3.0
5.404857183999411,336,5573.01,-93.8,0.9,-116.6,3.58,6.82,-0.69,-0.27,-0.85,0.2,-168.4,0.3,-2.0,0.05,0.0,3.57,3.49,0.9140021881811881,7.733362787300232,0.1581316954558779,0.5,0,5,3.0
5.413271508999969,337,5573.02,-93.5,1.0,-115.9,2.3,6.02,-0.38,-0.29,-0.81,0.21,-168.4,-0.2,6.0,0.05,-0.02,3.53,3.49,0.8856071363759441,6.455602218228752,0.1827962123158995,0.5,0,5,3.0
5.424664475999634,338,5573.03,-93.3,1.1,-115.4,1.46,5.08,-0.09,-0.21,-0.82,0.18,-168.4,-0.5,-12.0,0.05,0.03,3.67,3.49,0.8653900854527974,5.286407097452862,0.19895299797426524,0.5,0,5,3.0
5.433313296999586,339,5573.04,-93.2,1.1,-114.9,1.1,4.38,0.19,-0.1,-0.83,0.14,-168.4,-0.5,-6.0,0.05,0.03,3.62,3.49,0.8476437931112337,4.520011061933367,0.2123653045095124,0.5,0,5,3.0
5.444745789999615,340,5573.05,-93.0,1.1,-114.5,0.87,3.94,0.48,-0.01,-0.86,0.06,-168.4,-3.9,-39.0,0.05,0.2,3.4,3.49,0.8621484790916237,4.06336067805948,0.19390340615853996,0.5,0,5,3.0
5.453385772999354,341,5573.06,-92.9,1.0,-114.1,0.62,3.73,0.73,0.0,-0.91,0.0,-168.6,-14.0,-93.0,0.06,0.53,3.36,3.49,0.91,3.8509998701635917,0.14313084754516037,0.5,0,5,0.0
5.464807763999488,342,5573.07,-92.8,1.0,-113.8,0.69,3.66,0.88,-0.03,-0.98,-0.02,-168.8,-21.4,-58.0,0.06,0.61,3.61,3.49,0.9806630410084801,3.8270223411942608,0.07101845040594668,0.5,0,5,0.0
5.473157578999235,343,5573.08,-92.7,0.8,-113.4,1.26,3.65,0.93,-0.05,-1.01,-0.01,-169.1,-56.5,-607.0,0.08,3.2,0.54,0.0,1.0112863096077194,3.9717754216471,0.03958727817057328,0.5,0,5,0.0
5.484927984999558,344,5573.09,-92.6,0.7,-113.0,1.45,3.44,0.93,-0.13,-0.99,-0.04,-170.6,-190.8,-1034.0,0.14,6.58,0.24,0.0,0.9992997548283498,3.8472067789501514,0.050542356290943946,0.5,0,5,0.0
5.493442099999811,345,5573.1,-92.4,0.7,-112.7,1.75,3.18,0.85,-0.22,-0.91,0.09,-173.2,-290.3,-900.0,0.22,8.77,0.23,0.0,0.9405317644821998,3.7279216729968994,0.10712413970435208,0.5,0,5,0.0
5.504750563999551,346,5573.11,-92.2,0.6,-112.4,1.46,2.64,0.88,-0.2,-0.84,0.09,-176.6,-353.0,-665.0,0.32,10.2,0.12,0.0,0.8681589716175258,3.142546737918149,0.17590699391764564,0.5,0,5,0.0
5.513378972999817,347,5573.12,-92.1,0.5,-112.2,0.85,1.94,1.0,-0.17,-0.82,0.07,-180.5,-396.1,-460.0,0.43,11.1,0.02,0.0,0.8403570669661795,2.3422425151977753,0.19963472059761211,0.5,0,5,0.0
5.5249010259994975,348,5573.13,-92.0,0.4,-112.0,0.14,1.43,1.2,-0.13,-0.78,0.03,-184.5,-412.0,-191.0,0.54,11.19,0.23,0.0,0.7913279977354524,1.8720309826495927,0.24369051403177244,0.5,0,5,0.0
5.533349564999298,349,5573.14,-92.1,0.3,-111.9,-0.49,0.97,1.42,-0.1,-0.81,0.0,-188.7,-410.4,-39.0,0.65,11.07,0.03,0.0,0.8161494961096283,1.78812751223172,0.2144916353444446,0.5,0,5,0.0
5.544924768999408,350,5573.15,-92.1,0.1,-111.8,-0.9,0.63,1.64,-0.08,-0.85,-0.05,-192.7,-398.8,92.0,0.76,10.61,0.0,0.0,0.8552192701290119,1.9739554199626697,0.1719134240985597,0.5,0,5,0.0
5.553383820999443,351,5573.16,-92.3,0.0,-111.7,-1.04,0.37,1.84,-0.06,-0.89,-0.09,-196.6,-379.7,168.0,0.86,10.04,0.04,0.0,0.8965489389877164,2.1457166634949734,0.12797208013505812,0.5,0,5,0.0
5.5647922149992155,352,5573.17,-92.4,-0.3,-111.7,-0.89,0.18,1.84,-0.05,-0.95,-0.1,-200.2,-351.0,283.0,0.95,9.07,-0.12,0.0,0.9565563234854495,2.0518528212325564,0.06660540172457852,0.5,0,5,0.0
5.573337111999535,353,5573.18,-92.5,-0.4,-111.7,-0.52,0.24,1.61,-0.04,-1.01,-0.16,-203.4,-310.8,364.0,1.04,7.96,-0.15,0.0,1.023376763464952,1.7088300090997934,0.00021073748982547436,0.5,0,5,0.0
5.584844852999595,354,5573.19,-92.6,-0.6,-111.6,0.24,0.21,1.41,-0.03,-1.01,-0.15,-206.2,-273.6,361.0,1.11,6.99,-0.23,0.0,1.021518477561713,1.445614056378811,0.0016145974451453604,0.5,0,5,0.0
5.593234198999198,355,5573.2,-92.5,-0.7,-111.6,1.15,0.2,1.14,-0.04,-0.98,-0.19,-208.7,-235.5,386.0,1.17,5.89,-0.15,0.0,0.9990495483208027,1.6315943123215402,0.023601856152334455,0.5,0,5,0.0
5.60489349799991,356,5573.21,-92.4,-0.8,-111.6,1.86,0.25,0.86,-0.07,-0.94,-0.2,-210.8,-193.3,411.0,1.22,4.73,-0.42,0.0,0.9635870484808313,2.0643885293229083,0.05788306887245964,0.5,0,5,0.0
5.613278947999788,357,5573.22,-92.2,-0.9,-111.6,2.36,0.18,0.55,-0.12,-0.9,-0.2,-212.4,-149.8,431.0,1.26,3.54,-0.16,0.0,0.9297311439335568,2.429917694079369,0.08990419395133953,0.5,0,5,0.0
5.6247421819998635,358,5573.23,-91.9,-0.9,-111.5,2.75,0.08,0.15,-0.18,-0.87,-0.17,-213.6,-105.9,431.0,1.29,2.35,-0.27,0.0,0.9045440840556087,2.755249534978638,0.11278942875270181,0.5,0,5,0.0
5.633292408999296,359,5573.24,-91.6,-0.9,-111.5,2.95,-0.18,-0.22,-0.24,-0.82,-0.12,-214.4,-62.0,435.0,1.31,1.15,-0.18,0.0,0.8627861844049195,2.963663273720549,0.15145638183532328,0.5,0,5,0.0
5.644744208999327,360,5573.25,-91.3,-0.9,-111.6,2.68,-0.61,-0.49,-0.27,-0.75,-0.1,-214.7,-18.1,443.0,1.31,-0.05,-0.24,0.0,0.8033679107357973,2.791881086292896,0.2066571623943566,0.5,0,5,0.0
5.653255573000024,361,5573.26,-91.1,-0.8,-111.7,2.16,-1.16,-0.58,-0.27,-0.67,-0.09,-214.6,16.1,348.0,1.3,-0.76,0.12,0.0,0.7279423054061359,2.5194443831924533,0.2764411123695375,0.5,0,5,0.0
5.664746445999299,362,5573.27,-90.9,-0.8,-111.8,1.43,-1.69,-0.57,-0.24,-0.64,-0.11,-214.3,30.5,164.0,1.29,-0.87,-0.07,0.0,0.6923149572268391,2.286022747043432,0.30582709133785757,0.5,0,5,0.0
5.673377709999841,363,5573.28,-90.8,-0.7,-112.0,0.3,-2.15,-0.55,-0.18,-0.64,-0.15,-214.0,31.1,39.0,1.29,-0.75,0.05,0.0,0.6815423684555495,2.2394195676558692,0.31026768650696424,0.5,0,5,0.0
5.684749254000053,364,5573.29,-90.8,-0.7,-112.3,-0.91,-2.36,-0.61,-0.1,-0.7,-0.18,-213.8,21.8,-66.0,1.28,-0.37,0.0,0.0,0.7296574538781879,2.6018839328455834,0.2569095490626393,0.5,0,5,0.0
5.69334244699985,365,5573.3,-91.0,-0.6,-112.5,-1.53,-2.38,-0.78,-0.06,-0.77,-0.19,-213.7,3.9,-158.0,1.28,0.18,0.08,0.0,0.795361553005927,2.934910560817825,0.18738134093620218,0.5,0,5,0.0
5.704828395999357,366,5573.31,-91.1,-0.5,-112.7,-1.77,-2.14,-0.88,-0.06,-0.84,-0.2,-213.7,-9.9,-105.0,1.28,0.33,0.0,0.0,0.865563400335296,2.9132284496757204,0.11483590373469654,0.5,0,5,0.0
5.713246335999429,367,5573.32,-91.3,-0.4,-112.9,-1.83,-1.88,-0.83,-0.04,-0.9,-0.2,-213.9,-15.9,-93.0,1.29,0.59,-0.04,0.0,0.9228217596047463,2.751763071196356,0.05642599357594125,0.5,0,5,0.0
5.7246431469993695,368,5573.33,-91.5,-0.4,-113.1,-1.85,-1.68,-0.82,-0.02,-1.0,-0.17,-214.1,-27.0,-109.0,1.3,0.9,-0.1,0.0,1.0145442326483356,2.6300760445279905,0.03459054987829502,0.5,0,5,0.0
5.733308842000042,369,5573.34,-91.7,-0.3,-113.3,-1.7,-1.67,-0.8,0.01,-1.09,-0.18,-214.5,-41.3,-150.0,1.31,1.38,0.14,0.0,1.1048076755707303,2.5137422302217067,0.12235691294467599,0.5,0,5,0.0
5.744860064000022,370,5573.35,-91.9,-0.2,-113.4,-1.13,-1.65,-0.95,0.07,-1.17,-0.14,-215.0,-60.9,-192.0,1.33,2.01,0.0,0.0,1.1804236527620071,2.2140234867769584,0.19401343233323376,0.5,0,5,0.0
5.753181958999448,371,5573.36,-92.0,-0.1,-113.6,-0.64,-1.76,-1.19,0.07,-1.18,-0.05,-215.8,-88.9,-281.0,1.35,2.97,0.24,0.0,1.1831314381758267,2.218851054036751,0.19278679339211224,0.5,0,5,0.0
5.764753017999283,372,5573.37,-92.0,0.0,-113.8,-0.9,-2.11,-1.0,0.06,-1.16,0.07,-217.0,-128.0,-372.0,1.39,4.14,0.13,0.0,1.1636580253665592,2.502418829852429,0.16984711297118782,0.5,0,5,0.0
5.773388593999698,373,5573.38,-92.2,0.0,-114.1,-2.19,-2.69,-0.21,0.17,-1.19,0.09,-218.6,-174.0,-445.0,1.44,5.46,0.39,0.0,1.2054459755625715,3.4750971209449673,0.2074023619038562,0.5,0,5,0.0
5.784689769999204,374,5573.39,-92.5,0.0,-114.3,-3.54,-2.46,0.93,0.29,-1.41,0.04,-220.6,-222.5,-462.0,1.51,6.76,0.3,0.0,1.4400694427700351,4.41,0.4331853125290934,0.5,0,5,0.0
5.79338246899988,375,5573.4,-92.8,-0.1,-114.5,-3.43,-1.87,2.08,0.28,-1.64,0.06,-223.2,-271.3,-491.0,1.58,8.16,0.14,0.0,1.6648123017325405,4.425855849437485,0.6447696080617669,0.5,1,6,3.0
5.804829932999382,376,5573.41,-93.1,-0.4,-114.7,-2.19,-1.38,3.38,0.32,-1.8,0.18,-226.3,-324.2,-517.0,1.67,9.58,0.15,0.0,1.837062873175548,4.25733484706101,0.8006797759146789,0.5,0,6,3.0
5.8132925879999675,377,5573.42,-93.2,-0.8,-114.8,0.82,-1.24,4.02,0.3,-1.91,0.25,-229.8,-350.4,-4.0,1.77,8.14,3.14,3.49,1.9495127596402133,4.286070461390013,0.8948670691317573,0.5,0,6,3.0
5.824848650999229,378,5573.43,-92.9,-1.2,-114.9,4.66,-1.29,3.4,0.03,-1.59,0.24,-232.6,-246.1,756.0,1.83,5.03,3.22,3.49,1.6082910184416253,5.910981306010027,0.5425724213745058,0.5,0,6,3.0
5.833310585999243,379,5573.44,-92.3,-1.5,-115.0,5.5,-1.92,2.84,-0.18,-1.1,0.25,-234.3,-142.0,855.0,1.86,2.67,3.13,3.49,1.142322196230118,6.480894999920921,0.07507152717973864,0.5,0,6,3.0
5.844770370999868,380,5573.45,-91.9,-1.7,-115.2,3.97,-2.74,2.33,-0.35,-0.84,0.28,-235.2,-63.2,780.0,1.87,0.72,3.23,3.49,0.952102935611481,5.356995426542756,0.11284477877012034,0.5,0,6,3.0
5.853391048000049,381,5573.46,-91.6,-2.0,-115.6,1.58,-3.69,2.01,-0.44,-0.83,0.24,-235.4,-7.0,545.0,1.87,-0.21,3.78,3.49,0.9695875411740809,4.489164732998779,0.09345296974337014,0.5,0,6,3.0
5.8648006479998,382,5573.47,-91.5,-2.2,-116.0,-0.52,-4.21,1.62,-0.44,-0.95,0.19,-235.4,5.6,173.0,1.87,-0.02,3.53,3.49,1.064048871058092,4.540803893585363,0.0009881929378281473,0.5,0,6,3.0
5.873287182999775,383,5573.48,-91.6,-2.3,-116.4,-0.94,-4.69,1.48,-0.37,-1.14,0.26,-235.3,0.6,56.0,1.87,-0.06,3.3,3.49,1.2264175471673584,5.007005092867392,0.1600897316661527,0.5,0,6,3.0
5.884829247999733,384,5573.49,-91.6,-2.5,-116.9,0.34,-5.13,1.42,-0.25,-1.26,0.26,-235.3,8.1,106.0,1.87,-0.51,3.22,3.49,1.3106105447462264,5.333751025310424,0.2393970746601204,0.5,0,6,3.0
5.893396627999209,385,5573.5,-91.5,-2.6,-117.4,1.5,-5.35,1.2,-0.12,-1.29,0.19,-235.1,32.7,238.0,1.86,-1.38,3.46,3.49,1.309427355755179,5.684408500451036,0.23344960795569158,0.5,0,6,3.0
5.904568477999419,386,5573.51,-91.3,-2.7,-118.0,1.65,-5.42,0.75,0.0,-1.22,0.12,-234.5,65.2,266.0,1.84,-2.09,3.52,3.49,1.2258874336577563,5.7150153105656685,0.14691149214110344,0.5,0,6,3.0
5.913307414999508,387,5573.52,-91.1,-2.8,-118.5,1.04,-5.27,0.21,0.09,-1.15,0.08,-233.7,90.2,309.0,1.81,-3.11,3.42,3.49,1.1562871615649808,5.375741809276185,0.07576499564736139,0.5,0,6,3.0
5.924803489999249,388,5573.53,-91.0,-2.8,-119.0,0.46,-5.0,-0.32,0.12,-1.09,0.04,-232.5,132.9,392.0,1.77,-4.31,3.34,3.49,1.0973149046650192,5.03130201836463,0.01645688397245193,0.5,0,6,3.0
5.933279113999561,389,5573.54,-91.0,-2.7,-119.5,0.31,-4.62,-0.78,0.12,-1.0,0.04,-230.8,176.5,410.0,1.72,-5.33,3.22,3.49,1.0079682534683323,4.6956256239185,0.07143197187975026,0.5,0,6,3.0
5.9447280419999515,390,5573.55,-90.9,-2.7,-119.9,0.56,-4.44,-1.08,0.1,-0.91,0.07,-228.8,213.7,385.0,1.66,-6.37,3.4,3.49,0.9181503144910425,4.6036507252396985,0.15802491263989926,0.5,0,6,3.0
5.953246701999888,391,5573.56,-90.8,-2.5,-120.4,0.81,-4.4,-1.26,0.09,-0.82,0.08,-226.4,248.8,352.0,1.59,-7.23,3.4,3.49,0.8287943049997387,4.647978055025647,0.24243330368857896,0.5,0,6,3.0
5.964756282999588,392,5573.57,-90.7,-2.4,-120.8,0.73,-4.23,-1.33,0.07,-0.76,0.05,-223.7,278.6,308.0,1.51,-7.95,3.49,3.49,0.7648529270389177,4.493851354907059,0.3002471880164119,0.5,0,6,3.0
5.973276658999566,393,5573.58,-90.6,-2.3,-121.2,0.45,-3.98,-1.27,0.06,-0.73,0.03,-220.8,305.8,285.0,1.43,-8.65,3.4,3.49,0.7330757123244501,4.201880531381158,0.32538391467626193,0.5,0,6,3.0
5.984814455999185,394,5573.59,-90.6,-2.2,-121.6,0.25,-3.69,-1.16,0.07,-0.75,0.03,-217.5,332.4,250.0,1.33,-9.37,3.52,3.49,0.7538567503179898,3.876106293692163,0.29851081914906774,0.5,0,6,0.0
5.993431050999789,395,5573.6,-90.6,-2.1,-122.0,0.31,-3.45,-1.11,0.06,-0.77,0.02,-214.0,352.0,203.0,1.24,-9.82,3.88,3.49,0.7725930364687479,3.637402919666723,0.27417904233834345,0.5,0,6,0.0
6.004630270999769,396,5573.61,-90.5,-2.0,-122.3,0.49,-3.22,-1.04,0.08,-0.76,0.0,-210.4,361.1,-53.0,1.14,-8.65,0.37,0.0,0.764198926981712,3.419078823308992,0.2769216887888717,0.5,0,6,0.0
6.0132967209992785,397,5573.62,-90.4,-1.8,-122.6,0.33,-2.95,-1.05,0.06,-0.8,-0.02,-207.5,256.2,-859.0,1.08,-5.18,0.17,0.0,0.8024961059095552,3.1486346247222783,0.23385201966380786,0.5,0,6,0.0
6.024790811999992,398,5573.63,-90.4,-1.7,-122.9,-0.36,-2.71,-1.3,-0.01,-0.81,0.0,-205.7,150.0,-881.0,1.05,-2.92,0.14,0.0,0.8100617260431455,3.027160385575895,0.2217606715396132,0.5,0,6,0.0
6.0332787990000725,399,5573.64,-90.5,-1.5,-123.2,-0.88,-2.67,-1.49,0.0,-0.76,0.0,-204.7,84.9,-635.0,1.03,-1.71,0.1,0.0,0.76,3.181729089661783,0.2663859496311036,0.5,0,6,0.0
6.044783235999603,400,5573.65,-90.6,-1.3,-123.4,-0.95,-2.7,-1.47,0.04,-0.73,0.0,-204.1,50.9,-390.0,1.01,-1.11,0.09,0.0,0.7310950690573695,3.2176699644307836,0.2893850629622595,0.5,0,6,0.0
6.05330736399992,401,5573.66,-90.7,-1.2,-123.7,-1.03,-2.74,-1.26,0.1,-0.73,-0.05,-203.7,36.1,-194.0,1.0,-0.9,0.02,0.0,0.7385120175054701,3.186863661972379,0.27632875222387565,0.5,0,6,0.0
6.064665660999708,402,5573.67,-90.8,-1.1,-124.0,-1.24,-2.59,-0.95,0.15,-0.75,-0.09,-203.3,35.5,-39.0,0.99,-1.08,-0.13,0.0,0.7701298591796061,3.0245991469945235,0.23981669233874492,0.5,0,6,0.0
6.0733373959992605,403,5573.68,-90.9,-1.0,-124.2,-1.41,-2.39,-0.73,0.18,-0.81,-0.11,-202.9,45.2,66.0,0.98,-1.44,0.19,0.0,0.8370185183136631,2.869337902722508,0.16946947254059408,0.5,0,6,0.0
6.0848157139998875,404,5573.69,-91.1,-0.9,-124.5,-1.35,-2.17,-0.58,0.19,-0.84,-0.13,-202.3,61.4,144.0,0.96,-1.96,-0.17,0.0,0.870976463516667,2.620648774635777,0.1328012967908383,0.5,0,6,0.0
6.093190408999362,405,5573.7,-91.2,-0.9,-124.7,-1.1,-1.94,-0.46,0.2,-0.87,-0.16,-201.6,83.7,206.0,0.94,-2.65,-0.07,0.0,0.9069178573608527,2.2771034232111638,0.09492270488771948,0.5,0,6,0.0
6.104668791999757,406,5573.71,-91.3,-0.8,-124.9,-0.8,-1.68,-0.3,0.19,-0.87,-0.18,-200.6,108.3,229.0,0.91,-3.29,-0.24,0.0,0.9085152722987104,1.884781154404935,0.0914587841508645,0.5,0,6,0.0
6.113315564000004,407,5573.72,-91.3,-0.8,-125.0,-0.54,-1.39,-0.15,0.17,-0.89,-0.19,-199.3,132.0,237.0,0.87,-3.96,-0.1,0.0,0.9257969539807311,1.4987327980664198,0.07269356041946695,0.5,0,6,0.0
6.124786153000059,408,5573.73,-91.4,-0.8,-125.1,-0.42,-1.1,0.01,0.15,-0.88,-0.2,-197.8,156.5,238.0,0.83,-4.58,-0.1,0.0,0.9148223871331528,1.177497346069196,0.08199476472170442,0.5,0,6,0.0
6.133342584999809,409,5573.74,-91.4,-0.8,-125.2,-0.36,-0.81,0.18,0.13,-0.9,-0.2,-196.1,179.7,235.0,0.77,-5.25,0.0,0.0,0.9310746479203481,0.9044888059008801,0.06442765385581894,0.5,0,6,0.0
6.144790387999819,410,5573.75,-91.5,-0.9,-125.3,-0.34,-0.52,0.36,0.11,-0.91,-0.19,-194.1,203.0,226.0,0.72,-5.85,-0.03,0.0,0.9361089680160104,0.7180529228406497,0.058205467084953555,0.5,0,6,0.0
6.153315781999481,411,5573.76,-91.5,-0.9,-125.3,-0.22,-0.31,0.54,0.1,-0.93,-0.19,-192.0,225.5,228.0,0.65,-6.47,-0.15,0.0,0.9544631999192007,0.6603786792439623,0.03905421047812796,0.5,0,6,0.0
6.16475601699949,412,5573.77,-91.5,-1.0,-125.4,0.01,-0.09,0.76,0.1,-0.92,-0.2,-189.5,249.2,238.0,0.59,-7.11,-0.18,0.0,0.94678403028357,0.7653757247260982,0.045798712511483486,0.5,0,6,0.0
6.173331365999729,413,5573.78,-91.5,-1.1,-125.3,0.25,0.14,0.92,0.1,-0.93,-0.2,-186.9,272.2,229.0,0.51,-7.74,0.0,0.0,0.9565040512198577,0.9635870484808314,0.03535711774369188,0.5,0,6,0.0
6.184708934999435,414,5573.79,-91.5,-1.2,-125.3,0.33,0.41,1.14,0.1,-0.91,-0.22,-184.0,296.6,248.0,0.43,-8.48,0.05,0.0,0.941541289588513,1.2556273332482053,0.04931348178753581,0.5,0,6,0.0
6.19326813599946,415,5573.8,-91.4,-1.3,-125.3,0.37,0.66,1.39,0.1,-0.9,-0.21,-180.8,322.9,241.0,0.34,-9.08,-0.2,0.0,0.9295697929687691,1.582592809284814,0.0600592788391342,0.5,0,6,0.0
6.204766892999942,416,5573.81,-91.4,-1.5,-125.2,0.34,0.95,1.69,0.1,-0.88,-0.2,-177.5,342.0,200.0,0.24,-9.58,-0.23,0.0,0.9079647570252933,1.9682987578109172,0.08003102848695776,0.5,0,6,0.0
6.213268874999812,417,5573.82,-91.3,-1.6,-125.1,0.43,1.17,1.84,0.11,-0.89,-0.18,-173.9,363.4,234.0,0.14,-10.26,-0.08,0.0,0.91465840618233,2.2224760966093653,0.07187063174332275,0.5,0,6,0.0
6.224746426999445,418,5573.83,-91.3,-1.8,-124.9,0.34,1.35,1.9,0.12,-0.88,-0.17,-170.1,386.6,201.0,0.04,-10.71,-0.19,0.0,0.904267659490264,2.3554405108174565,0.08061615086668095,0.5,0,6,0.0
6.233311641,419,5573.84,-91.3,-2.0,-124.8,0.03,1.41,1.93,0.12,-0.87,-0.15,-166.1,401.5,184.0,-0.06,-11.25,0.08,0.0,0.8909545442950498,2.390376539376171,0.09205068074065725,0.5,0,6,0.0
6.244734928000071,420,5573.85,-91.3,-2.2,-124.6,-0.33,1.37,1.84,0.11,-0.88,-0.14,-162.0,423.2,190.0,-0.18,-11.69,-0.12,0.0,0.8978307190111062,2.3176280978621224,0.08347101590410888,0.5,0,6,0.0
6.253231202999814,421,5573.86,-91.4,-2.4,-124.5,-0.71,1.29,1.66,0.11,-0.89,-0.15,-157.7,429.1,50.0,-0.3,-11.54,0.0,0.0,0.9092304438369846,2.218963722100927,0.07062986525666592,0.5,0,6,0.0
6.264468661999672,422,5573.87,-91.5,-2.5,-124.4,-1.07,1.16,1.39,0.09,-0.91,-0.16,-153.5,411.3,-185.0,-0.4,-10.49,0.09,0.0,0.9283318372220141,2.102997860198626,0.05049790243420371,0.5,0,6,0.0
6.273271140999896,423,5573.88,-91.6,-2.6,-124.3,-1.13,0.95,1.26,0.09,-0.87,-0.17,-149.8,348.5,-601.0,-0.49,-8.17,0.31,0.0,0.891010662113535,1.9408760908414529,0.08606269599182914,0.5,0,6,0.0
6.28476029400008,424,5573.89,-91.7,-2.8,-124.2,-1.08,0.89,1.25,0.04,-0.91,-0.19,-146.8,274.0,-673.0,-0.56,-6.2,0.48,0.0,0.9304837451562494,1.876432785899884,0.045657820690132356,0.5,0,6,0.0
6.293373041999985,425,5573.9,-91.9,-2.9,-124.1,-1.37,0.62,0.98,-0.08,-0.99,-0.18,-144.7,177.8,-960.0,-0.6,-3.05,0.61,0.0,1.0094057657849989,1.7949094684690925,0.032598915939844764,0.5,0,6,0.0
6.304464431999804,426,5573.91,-92.0,-3.0,-124.0,-0.89,0.83,1.08,-0.09,-0.94,-0.28,-143.7,57.1,-1141.0,-0.61,0.25,0.23,0.0,0.9849365461794988,1.6270832799829271,0.007967102407657745,0.5,0,6,0.0
6.313242346999687,427,5573.92,-92.0,-3.1,-123.9,-0.37,0.91,1.23,-0.11,-0.98,-0.29,-143.9,-36.7,-812.0,-0.6,1.67,0.1,0.0,1.0279105019407089,1.5741346829290053,0.04992223700549048,0.5,0,6,0.0
6.324628467999901,428,5573.93,-92.1,-3.2,-123.8,-0.51,1.33,1.29,-0.07,-1.04,-0.3,-144.6,-83.7,-609.0,-0.57,3.09,0.27,0.0,1.084665847162157,1.9217439996003631,0.10454403058239992,0.5,0,6,0.0
6.33326334100002,429,5573.94,-92.2,-3.3,-123.6,-0.55,1.62,1.16,0.06,-1.04,-0.28,-145.8,-137.7,-553.0,-0.53,4.47,0.13,0.0,1.078702924812944,2.067002660859439,0.09660948606852315,0.5,0,6,0.0
6.344748648999484,430,5573.95,-92.3,-3.4,-123.5,-1.76,1.8,0.74,0.0,-1.25,-0.23,-147.5,-184.6,-485.0,-0.48,5.69,-0.02,0.0,1.2709838708654015,2.6239664632003206,0.28311262347856103,0.5,0,6,0.0
6.353359162999368,431,5573.96,-92.5,-3.4,-123.3,-2.67,1.92,0.04,0.0,-1.28,-0.22,-149.7,-230.0,-472.0,-0.41,6.97,0.24,0.0,1.2987686476043376,3.288905593050673,0.3046794522131472,0.5,0,6,0.0
6.364717871999346,432,5573.97,-92.8,-3.4,-123.1,-2.95,2.06,-0.49,0.05,-1.3,-0.19,-152.3,-276.3,-449.0,-0.33,8.08,0.22,0.0,1.3147623359375642,3.631280765790495,0.3142596777354463,0.5,0,6,0.0
6.373325070999272,433,5573.98,-93.2,-3.3,-122.9,-3.26,2.0,-1.04,0.0,-1.36,-0.14,-155.3,-309.5,-321.0,-0.25,8.69,0.09,0.0,1.3671868928570081,3.9634833164780696,0.3593505499617924,0.5,0,6,0.0
6.38469078199978,434,5573.99,-93.5,-3.1,-122.7,-3.8,1.95,-1.79,-0.11,-1.45,-0.07,-158.5,-323.3,-163.0,-0.16,8.85,-0.13,0.0,1.4558502670261115,4.631047397727646,0.43905364564827787,0.5,0,6,0.0
6.3933015499997055,435,5574.0,-93.9,-2.9,-122.5,-4.06,1.53,-2.82,-0.17,-1.58,0.03,-161.0,-322.7,-8.0,-0.07,8.51,-0.02,0.0,1.5894024034208583,5.174640084102468,0.5611536664021641,0.5,1,7,3.0
6.404640654999639,436,5574.01,-94.3,-2.6,-122.4,-3.98,0.85,-4.17,-0.23,-1.74,0.13,-165.1,-297.7,192.0,0.0,7.7,-0.1,0.0,1.75994318090102,5.826817313079242,0.7170605550046794,0.5,0,7,3.0
6.413199523999538,437,5574.02,-94.7,-2.1,-122.4,-3.62,0.04,-5.32,-0.32,-1.72,0.14,-167.8,-243.4,746.0,0.06,4.7,2.57,3.49,1.7551068343551055,6.434935897116614,0.6979797242895895,0.5,0,7,3.0
6.424744013999771,438,5574.03,-95.0,-1.5,-122.5,-2.05,-0.92,-5.48,-0.27,-1.49,0.14,-169.0,-60.2,1572.0,0.07,-0.79,2.81,3.49,1.5207235120165665,5.922778064388367,0.45432447391202957,0.5,0,7,3.0
6.433336094999504,439,5574.04,-95.1,-1.0,-122.7,0.27,-1.27,-4.37,0.01,-1.18,0.03,-168.5,93.0,1225.0,0.04,-3.4,3.28,3.49,1.1804236527620071,4.55880466789267,0.11174412236432074,0.5,0,7,3.0
6.444642454999666,440,5574.05,-94.9,-0.7,-122.8,2.03,-0.77,-2.49,0.35,-0.93,-0.1,-167.2,132.8,463.0,0.0,-3.41,3.48,3.49,0.9986991538997118,3.30361922745343,0.06858076896801502,0.5,0,7,3.0
6.45326388400008,441,5574.06,-94.7,-0.6,-122.8,2.24,0.77,-0.6,0.65,-0.85,-0.23,-166.0,106.0,-117.0,-0.02,-2.21,3.79,3.49,1.0944861808172819,2.4434606606205063,0.026662132790564064,0.5,0,7,3.0
6.464625379999234,442,5574.07,-94.5,-0.6,-122.6,1.27,2.72,0.34,0.74,-0.92,-0.3,-165.3,54.2,-345.0,-0.03,-0.97,3.65,3.49,1.218195386627285,3.0210759672672918,0.1473639118285559,0.5,0,7,3.0
6.473139288999846,443,5574.08,-94.5,-0.6,-122.2,0.55,4.8,0.45,0.58,-0.98,-0.15,-165.0,15.5,-350.0,-0.03,-0.02,3.58,3.49,1.148607853011636,4.852319033204639,0.07622085064864881,0.5,0,7,3.0
6.484656228999484,444,5574.09,-94.4,-0.6,-121.7,0.4,6.32,0.41,0.37,-0.96,-0.04,-165.0,-1.2,-135.0,-0.03,-0.04,3.53,3.49,1.0296115772464878,6.345904190893525,0.04191991661416927,0.5,0,7,3.0
6.493334339999819,445,5574.1,-94.4,-0.6,-121.0,0.97,6.96,0.52,0.2,-1.07,0.1,-165.0,0.3,-57.0,-0.03,0.02,3.5,3.49,1.0931148155614763,7.046481391446372,0.021151655266802738,0.5,0,7,3.0
6.504717344999335,446,5574.11,-94.2,-0.5,-120.3,2.07,7.1,0.05,0.07,-1.19,0.2,-165.0,0.2,-15.0,-0.03,0.0,3.45,3.49,1.2087183294713453,7.395769060753587,0.1340200657931383,0.5,0,7,3.0
6.513303931999872,447,5574.12,-94.0,-0.5,-119.6,2.99,6.93,-0.58,-0.06,-1.16,0.24,-165.0,-0.1,-2.0,-0.03,-0.02,3.63,3.49,1.186086000254619,7.569768820776496,0.10915998184488385,0.5,0,7,3.0
6.524624822999613,448,5574.13,-93.6,-0.3,-118.9,3.63,6.55,-1.16,-0.18,-1.05,0.24,-165.0,0.2,-1.0,-0.03,0.0,3.54,3.49,1.0920164833920778,7.57792847683323,0.014788655682695717,0.5,0,7,3.0
6.533307979999336,449,5574.14,-93.2,-0.2,-118.3,3.93,6.01,-1.25,-0.27,-0.92,0.26,-165.0,0.2,0.0,-0.03,0.0,3.43,3.49,0.9934284070832684,7.288861365124185,0.08212343221359131,0.5,0,7,3.0
6.544655654999588,450,5574.15,-92.9,0.0,-117.7,3.49,5.35,-0.94,-0.3,-0.83,0.26,-165.0,0.5,4.0,-0.03,-0.03,3.46,3.49,0.9200543462209175,6.456485111885568,0.15238754321442338,0.5,0,7,3.0
6.5533929319999515,451,5574.16,-92.6,0.0,-117.3,2.59,4.42,-0.52,-0.26,-0.81,0.22,-165.0,0.0,-3.0,-0.03,0.0,3.56,3.49,0.8786922100485471,5.149262083056173,0.18987468579905797,0.5,0,7,3.0
6.564622555999449,452,5574.17,-92.4,0.0,-116.9,1.73,3.54,-0.22,-0.18,-0.81,0.17,-165.0,-0.1,-3.0,-0.03,0.0,3.65,3.49,0.8469946871143881,3.9462513858090693,0.2171407645585528,0.5,0,7,3.0
6.573158899999726,453,5574.18,-92.2,0.1,-116.6,1.16,2.9,0.0,-0.12,-0.83,0.11,-165.0,-0.2,0.0,-0.03,0.0,3.66,3.49,0.84581321815162,3.1233955881380124,0.2139557888508945,0.5,0,7,3.0
6.584307903000081,454,5574.19,-92.1,0.0,-116.3,0.77,2.46,0.24,-0.07,-0.86,0.05,-165.0,-0.5,-6.0,-0.03,0.03,3.57,3.49,0.864291617453276,2.5888414397177746,0.1915678417582538,0.5,0,7,0.0
6.593331822999971,455,5574.2,-92.0,0.0,-116.1,0.55,2.27,0.48,-0.03,-0.92,0.01,-165.0,-0.9,-3.0,-0.03,0.03,3.48,3.49,0.9205433178292046,2.384491560060551,0.13260981855467868,0.5,0,7,0.0
6.6047661399998105,456,5574.21,-91.9,0.0,-115.8,0.64,2.26,0.7,0.0,-0.99,0.0,-165.1,-24.9,-468.0,-0.02,2.12,0.65,0.0,0.99,2.4509589959850406,0.06189007365620558,0.5,0,7,0.0
6.613295391000065,457,5574.22,-91.8,0.0,-115.6,1.0,2.29,0.77,-0.02,-1.04,0.01,-166.2,-149.3,-961.0,0.01,5.4,0.2,0.0,1.040240356840668,2.614765763887848,0.01141672247922676,0.5,0,7,0.0
6.624684957999307,458,5574.23,-91.7,-0.1,-115.4,1.26,2.04,0.71,-0.12,-0.97,0.09,-168.4,-244.3,-873.0,0.08,7.59,0.42,0.0,0.9815294188153506,2.500659912902992,0.06872510729445314,0.5,0,7,0.0
6.633259376999376,459,5574.24,-91.6,-0.2,-115.2,1.15,1.57,0.74,-0.11,-0.86,0.09,-171.3,-311.6,-673.0,0.17,9.07,0.36,0.0,0.8716650732936361,2.082066281365701,0.1750176637598443,0.5,0,7,0.0
6.644681594999383,460,5574.25,-91.5,-0.3,-115.1,0.77,1.02,0.87,-0.08,-0.8,0.07,-174.8,-352.2,-443.0,0.27,9.91,0.12,0.0,0.8070315978944071,1.5460271666435879,0.23485811637589182,0.5,0,7,0.0
6.653304297999966,461,5574.26,-91.4,-0.4,-115.0,-0.05,0.62,1.04,-0.05,-0.79,0.02,-178.5,-377.5,-297.0,0.37,10.49,-0.22,0.0,0.7918333157931662,1.2118168178400563,0.24505527050759024,0.5,0,7,0.0
6.664693448999969,462,5574.27,-91.5,-0.5,-114.9,-0.73,0.43,1.08,-0.03,-0.83,-0.01,-182.3,-389.4,-117.0,0.48,10.52,-0.09,0.0,0.8306021911842034,1.3726616480400404,0.202160667214222,0.5,0,7,0.0
6.673290860999259,463,5574.28,-91.6,-0.6,-114.9,-1.12,0.27,1.38,-0.03,-0.83,-0.04,-186.2,-380.2,36.0,0.58,10.19,-0.02,0.0,0.8315046602394962,1.7976929659983654,0.19723303419575067,0.5,0,7,0.0
6.684591129999717,464,5574.29,-91.7,-0.8,-114.9,-1.13,0.17,1.7,-0.01,-0.87,-0.09,-189.9,-365.4,130.0,0.68,9.68,-0.1,0.0,0.8746999485537884,2.0483652018133873,0.1509569909638292,0.5,0,7,0.0
6.6933150289996775,465,5574.3,-91.9,-1.0,-114.8,-1.03,0.15,1.88,-0.01,-0.91,-0.11,-193.4,-342.2,209.0,0.77,8.99,-0.08,0.0,0.9166787877986488,2.148906698765677,0.10679858868458958,0.5,0,7,0.0
6.704757509999581,466,5574.31,-92.0,-1.2,-114.8,-0.99,0.11,1.91,0.0,-0.93,-0.11,-196.6,-315.6,254.0,0.85,8.22,-0.19,0.0,0.9364827814754525,2.1541355574800765,0.08525470310763017,0.5,0,7,0.0
6.7133001009997315,467,5574.32,-92.2,-1.3,-114.8,-0.81,0.24,1.64,0.0,-0.97,-0.16,-199.6,-283.1,321.0,0.93,7.23,-0.15,0.0,0.9831073186585481,1.8448035125725448,0.03785756260604389,0.5,0,7,0.0
6.724509136999586,468,5574.33,-92.2,-1.5,-114.8,-0.42,0.4,1.35,0.0,-0.95,-0.17,-202.1,-242.4,388.0,0.99,6.07,-0.06,0.0,0.965090669315583,1.4693195704134618,0.05475672771002871,0.5,0,7,0.0
6.733355180999752,469,5574.34,-92.3,-1.6,-114.7,-0.11,0.56,1.17,0.0,-0.91,-0.19,-204.3,-202.3,385.0,1.05,5.03,0.03,0.0,0.929623579735368,1.3017680284904833,0.0884193409444387,0.5,0,7,0.0
6.744709616999899,470,5574.35,-92.3,-1.7,-114.6,0.12,0.78,1.04,-0.02,-0.89,-0.2,-206.0,-166.6,365.0,1.09,4.08,-0.14,0.0,0.9124143795447329,1.305526713629407,0.10351597031237236,0.5,0,7,0.0
6.753282642999693,471,5574.36,-92.2,-1.8,-114.5,0.3,0.95,0.84,-0.04,-0.88,-0.2,-207.4,-128.8,376.0,1.13,3.03,-0.33,0.0,0.9033271832508972,1.3031116606031885,0.11035110327408393,0.5,0,7,0.0
6.764647191999757,472,5574.37,-92.2,-1.9,-114.4,0.52,1.01,0.54,-0.07,-0.89,-0.18,-208.5,-91.3,375.0,1.15,2.02,-0.23,0.0,0.9107140056021978,1.2578155667664477,0.10090499530432773,0.5,0,7,0.0
6.773288284000046,473,5574.38,-92.1,-1.9,-114.3,0.9,0.96,0.13,-0.12,-0.88,-0.15,-209.1,-54.7,356.0,1.16,1.08,0.0,0.0,0.9007219326740078,1.3223085872821063,0.1086791268678674,0.5,0,7,0.0
6.784540951000054,474,5574.39,-92.0,-1.9,-114.2,1.33,0.74,-0.31,-0.18,-0.85,-0.12,-209.4,-21.3,342.0,1.17,0.17,-0.09,0.0,0.8770974860299167,1.5532546475063256,0.12965750204171933,0.5,0,7,0.0
6.793284028999551,475,5574.4,-91.9,-1.8,-114.2,1.69,0.4,-0.72,-0.23,-0.8,-0.09,-209.4,5.7,251.0,1.16,-0.35,0.08,0.0,0.8372574275573792,1.8800265955565627,0.16610760930397173,0.5,0,7,0.0
6.804758487000072,476,5574.41,-91.7,-1.8,-114.2,1.54,0.0,-0.9,-0.25,-0.74,-0.09,-209.3,14.9,101.0,1.16,-0.38,0.09,0.0,0.7862569554541314,1.7837040113202638,0.2127659197790751,0.5,0,7,0.0
6.81333557599919,477,5574.42,-91.6,-1.7,-114.2,0.77,-0.43,-0.93,-0.23,-0.71,-0.11,-209.2,10.9,6.0,1.16,-0.25,0.03,0.0,0.7543871685016919,1.2816785868539742,0.23974299259688436,0.5,0,7,0.0
6.824740431999999,478,5574.43,-91.6,-1.6,-114.3,-0.48,-0.79,-0.89,-0.19,-0.72,-0.13,-209.1,3.8,-64.0,1.16,0.04,-0.04,0.0,0.7559100475585703,1.283199127181748,0.23345571126920583,0.5,0,7,0.0
6.833350822999819,479,5574.44,-91.7,-1.5,-114.4,-1.67,-1.07,-0.86,-0.13,-0.79,-0.13,-209.1,-4.5,-47.0,1.16,0.12,-0.1,0.0,0.8111103500757466,2.161804801548928,0.17469030057698887,0.5,0,7,0.0
6.844636666000042,480,5574.45,-91.9,-1.4,-114.5,-2.18,-1.29,-0.87,-0.07,-0.85,-0.16,-209.2,-5.8,-31.0,1.16,0.19,0.08,0.0,0.8677557259966654,2.678320369186629,0.1156840261629487,0.5,0,7,0.0
6.8533640819996435,481,5574.46,-92.1,-1.3,-114.6,-2.19,-1.29,-0.82,0.0,-0.9,-0.2,-209.3,-11.2,-64.0,1.16,0.42,0.08,0.0,0.9219544457292888,2.6706927940143173,0.06025560030171884,0.5,0,7,0.0
6.86474394599918,482,5574.47,-92.3,-1.3,-114.8,-2.06,-1.08,-0.66,0.04,-0.93,-0.21,-209.5,-22.5,-114.0,1.17,0.82,-0.08,0.0,0.9542536350467836,2.417767565337909,0.027397282764539455,0.5,0,7,0.0
6.873276992999308,483,5574.48,-92.5,-1.2,-114.8,-2.04,-0.61,-0.38,0.1,-0.98,-0.25,-209.8,-42.2,-186.0,1.18,1.44,0.06,0.0,1.016316879718132,2.1628915830434035,0.033972642668672615,0.5,0,7,0.0
6.8846502090000286,484,5574.49,-92.7,-1.2,-114.9,-1.66,0.01,-0.21,0.12,-1.04,-0.25,-210.4,-67.9,-254.0,1.2,2.24,0.01,0.0,1.0763363786474933,1.6732602905704779,0.09211229876607341,0.5,0,7,0.0
6.893333313999392,485,5574.5,-92.8,-1.2,-114.8,-0.95,0.41,-0.16,0.11,-1.07,-0.25,-211.3,-100.0,-294.0,1.23,3.08,-0.1,0.0,1.1043097391583576,1.046995701996909,0.11768394609139898,0.5,0,7,0.0
6.9046950349993494,486,5574.51,-92.9,-1.1,-114.8,-0.12,0.51,-0.37,0.07,-1.08,-0.25,-212.5,-131.2,-304.0,1.27,3.94,0.0,0.0,1.110765501804949,0.641404708432983,0.12165691456323047,0.5,0,7,0.0
6.913320841999848,487,5574.52,-92.9,-1.1,-114.8,0.0,0.29,-0.71,-0.01,-1.03,-0.2,-214.1,-163.4,-322.0,1.31,4.85,0.05,0.0,1.049285471165974,0.7669419795525604,0.05897334624577044,0.5,0,7,0.0
6.92453086399928,488,5574.53,-92.9,-1.0,-114.8,-1.21,-0.14,-0.81,-0.07,-1.02,-0.17,-216.0,-198.7,-343.0,1.37,5.81,-0.11,0.0,1.036436201606254,1.462805523642839,0.045201595152329466,0.5,0,7,0.0
6.933309827999437,489,5574.54,-93.1,-0.9,-114.8,-2.05,-0.56,-0.77,-0.12,-1.06,-0.18,-218.2,-234.7,-358.0,1.43,6.83,0.16,0.0,1.0818502669038816,2.2603097132915213,0.08880334724095795,0.5,0,7,0.0
6.944626128999516,490,5574.55,-93.3,-0.9,-114.9,-2.2,-0.68,-0.37,-0.12,-1.08,-0.18,-220.8,-269.0,-344.0,1.51,7.74,0.0,0.0,1.101453585041149,2.3322306918484714,0.10623853207066092,0.5,0,7,0.0
6.9532622509996145,491,5574.56,-93.6,-0.9,-114.9,-2.24,-0.91,0.24,-0.07,-1.16,-0.15,-223.7,-302.6,-346.0,1.59,8.66,0.08,0.0,1.171750826754562,2.429670759588632,0.1730050583083923,0.5,0,7,0.0
6.964570330999777,492,5574.57,-93.8,-1.0,-115.0,-2.09,-1.11,0.75,-0.04,-1.24,-0.13,-227.0,-337.2,-334.0,1.68,9.55,0.19,0.0,1.2474373731775075,2.482478600109173,0.24371777263671102,0.5,0,7,0.0
6.973267243000009,493,5574.58,-94.0,-1.1,-115.2,-1.89,-1.37,1.1,-0.01,-1.26,-0.09,-230.6,-369.2,-327.0,1.79,10.43,0.1,0.0,1.2632497773599647,2.5805038267749185,0.2543395732827849,0.5,0,7,0.0
6.98458548599956,494,5574.59,-94.2,-1.2,-115.3,-1.68,-1.48,1.48,0.05,-1.28,-0.06,-234.5,-402.3,-328.0,1.9,11.32,0.09,0.0,1.2823805987303458,2.6838777915546004,0.26800098676010276,0.5,0,7,0.0
6.993228436999743,495,5574.6,-94.4,-1.3,-115.4,-2.02,-1.47,2.06,0.12,-1.33,-0.03,-238.7,-427.1,-235.0,2.01,11.81,0.16,0.0,1.335739495560418,3.2380395303331304,0.3149326859183714,0.5,0,7,0.0
7.004542366999885,496,5574.61,-94.6,-1.6,-115.5,-2.43,-0.94,3.01,0.18,-1.44,-0.02,-243.1,-450.1,-272.0,2.14,12.62,0.01,0.0,1.4513442045221387,3.9810300174703532,0.42192664698249027,0.5,0,7,0.0
7.013253285999781,497,5574.62,-94.8,-1.9,-115.6,-1.25,-0.58,3.45,0.17,-1.67,0.12,-247.8,-472.8,-186.0,2.27,12.96,-0.05,0.0,1.6829141392239833,3.7150235530881903,0.6404266500506481,0.5,1,8,3.0
7.024567225999817,498,5574.63,-94.8,-2.3,-115.6,1.16,-0.66,3.05,0.02,-1.62,0.17,-252.6,-486.9,-184.0,2.4,13.48,-0.1,0.0,1.6290181091688332,3.329219127663422,0.5748000075955881,0.5,0,8,3.0
7.033152303999486,499,5574.64,-94.6,-2.5,-115.7,2.0,-1.17,2.14,-0.15,-1.38,0.27,-257.5,-474.6,407.0,2.53,11.27,2.53,3.49,1.414142849927121,3.15412428417144,0.3527262533867983,0.5,0,8,3.0
7.044732675999512,500,5574.65,-94.4,-2.7,-115.9,1.5,-2.42,1.26,-0.32,-1.1,0.34,-261.2,-313.6,1318.0,2.6,6.34,2.87,3.49,1.1949895397031725,3.1135189095298585,0.1309014842995928,0.5,0,8,3.0
7.053302654999243,501,5574.66,-94.3,-2.8,-116.2,0.12,-3.74,0.52,-0.42,-1.05,0.38,-263.1,-148.4,1470.0,2.64,2.21,3.05,3.49,1.1930213744941873,3.7778830050704326,0.12635465270879553,0.5,0,8,3.0
7.064716357999714,502,5574.67,-94.3,-2.9,-116.6,-0.05,-5.02,-0.04,-0.47,-1.02,0.35,-263.6,-9.8,1338.0,2.64,-1.15,3.33,3.49,1.1763502879669814,5.020408349925332,0.1074898948579579,0.5,0,8,3.0
7.073296427999594,503,5574.68,-94.3,-2.9,-117.2,0.5,-5.9,-0.06,-0.45,-0.98,0.3,-263.1,76.3,868.0,2.61,-2.7,3.33,3.49,1.1193301568348815,5.921452524507817,0.04946036845134083,0.5,0,8,3.0
7.08454410899958,504,5574.69,-94.1,-3.0,-117.8,1.46,-6.46,0.11,-0.35,-0.98,0.24,-262.0,121.0,544.0,2.58,-3.67,3.15,3.49,1.0679419459877022,6.623843295247857,0.0018892855479215598,0.5,0,8,3.0
7.093265554999562,505,5574.7,-93.9,-3.0,-118.4,2.31,-6.76,0.33,-0.21,-0.94,0.19,-260.6,150.1,341.0,2.54,-4.29,3.48,3.49,0.9817331613019904,7.151405456272214,0.0863361088289607,0.5,0,8,3.0
7.10465928999929,506,5574.71,-93.6,-3.1,-119.1,2.51,-6.96,0.5,-0.07,-0.92,0.15,-259.0,165.6,225.0,2.49,-4.81,3.65,3.49,0.9347726996441434,7.4156388800965765,0.1306306390770715,0.5,0,8,3.0
7.1133030959999815,507,5574.72,-93.3,-3.2,-119.8,2.14,-6.87,0.58,0.02,-0.95,0.09,-257.1,203.4,387.0,2.43,-6.1,3.06,3.49,0.9544631999192006,7.218926512993465,0.108721336025974,0.5,0,8,3.0
7.124646867999218,508,5574.73,-93.1,-3.3,-120.5,1.48,-6.43,0.42,0.07,-1.04,0.01,-254.7,251.2,414.0,2.36,-7.27,3.15,3.49,1.042401074443038,6.611482435883801,0.020367792272093732,0.5,0,8,3.0
7.1333221319991935,509,5574.74,-92.9,-3.4,-121.1,1.28,-5.6,0.12,0.13,-1.06,0.0,-251.9,286.8,350.0,2.28,-8.13,3.32,3.49,1.0679419459877022,5.745676635523443,0.005069617687118999,0.5,0,8,3.0
7.144736331999411,510,5574.75,-92.8,-3.4,-121.6,1.07,-5.01,-0.23,0.15,-1.07,0.03,-248.8,316.0,307.0,2.2,-8.94,3.66,3.49,1.0808792717042917,5.128147813782282,0.017646804535634386,0.5,0,8,3.0
7.153340985999421,511,5574.76,-92.7,-3.4,-122.1,0.83,-4.41,-0.61,0.16,-1.01,0.02,-245.4,344.6,283.0,2.1,-9.66,3.6,3.49,1.0227903010881556,4.528697384458361,0.03963332275889164,0.5,0,8,3.0
7.164715379999507,512,5574.77,-92.6,-3.3,-122.5,0.58,-3.89,-0.83,0.15,-0.92,0.01,-241.9,362.9,184.0,2.0,-10.01,3.25,3.49,0.9322016949137134,4.019626848352966,0.12761749035466707,0.5,0,8,3.0
7.173297256999831,513,5574.78,-92.5,-3.2,-122.9,0.4,-3.6,-0.93,0.1,-0.86,0.05,-238.2,378.0,190.0,1.9,-10.52,3.2,3.49,0.8672369918309527,3.7396390200124934,0.18873054956867918,0.5,0,8,3.0
7.184629646999383,514,5574.79,-92.4,-3.2,-123.2,0.23,-3.52,-0.96,0.04,-0.85,0.07,-234.3,395.4,149.0,1.79,-10.88,3.19,3.49,0.8538149682454624,3.6558036052282676,0.1981095216910861,0.5,0,8,3.0
7.193274675999419,515,5574.8,-92.4,-3.1,-123.6,0.18,-3.52,-1.02,0.0,-0.84,0.04,-230.2,401.9,90.0,1.68,-11.02,3.31,3.49,0.8409518416651455,3.669223351064909,0.20675319530597502,0.5,0,8,0.0
7.204842955999993,516,5574.81,-92.3,-3.0,-123.9,0.2,-3.42,-1.02,-0.01,-0.84,0.01,-226.2,410.9,89.0,1.57,-11.24,3.34,3.49,0.8401190391843288,3.574464994932808,0.20343427783105572,0.5,0,8,0.0
7.2133061709992035,517,5574.82,-92.3,-2.8,-124.3,0.4,-3.34,-1.12,0.0,-0.86,0.0,-222.1,397.1,-373.0,1.46,-9.44,0.63,0.0,0.86,3.5454195802471675,0.1798822506750769,0.5,0,8,0.0
7.224716396999611,518,5574.83,-92.2,-2.7,-124.6,0.3,-3.22,-1.17,0.0,-0.91,-0.03,-218.9,277.3,-952.0,1.39,-6.09,0.25,0.0,0.910494371207203,3.4390841804178045,0.1268001218785163,0.5,0,8,0.0
7.2333696239993515,519,5574.84,-92.1,-2.6,-124.9,0.08,-3.12,-1.38,-0.05,-0.92,-0.02,-217.0,188.5,-854.0,1.35,-4.25,0.21,0.0,0.9215747392371386,3.4125064102503893,0.11340535877160918,0.5,0,8,0.0
7.244690885999262,520,5574.85,-92.1,-2.5,-125.3,0.22,-3.07,-1.44,0.0,-0.87,-0.04,-215.4,125.6,-578.0,1.31,-2.96,0.05,0.0,0.8709190547921202,3.398072983324519,0.16077982235229515,0.5,0,8,0.0
7.253163989999848,521,5574.86,-92.1,-2.3,-125.6,0.62,-3.04,-1.35,0.05,-0.85,-0.06,-214.4,100.3,-298.0,1.29,-2.6,0.08,0.0,0.8535806933149319,3.383563210581413,0.17455582015289384,0.5,0,8,0.0
7.264564708999387,522,5574.87,-92.0,-2.2,-125.9,0.83,-3.0,-1.27,0.1,-0.81,-0.1,-213.4,95.4,-107.0,1.26,-2.62,0.0,0.0,0.8222530024268687,3.3618149859859927,0.20176584082013782,0.5,0,8,0.0
7.273327446999247,523,5574.88,-91.9,-2.1,-126.2,0.58,-2.72,-1.12,0.14,-0.82,-0.15,-212.4,103.3,44.0,1.24,-2.96,-0.09,0.0,0.8452810183601663,2.998199459675757,0.17516306838910334,0.5,0,8,0.0
7.28470740099965,524,5574.89,-91.8,-2.0,-126.4,0.37,-2.31,-1.04,0.18,-0.83,-0.18,-211.3,122.3,150.0,1.2,-3.57,-0.06,0.0,0.8681589716175258,2.5601953050499877,0.14923941282910902,0.5,0,8,0.0
7.29330303200004,525,5574.9,-91.8,-1.9,-126.6,0.31,-1.78,-0.97,0.2,-0.85,-0.2,-209.9,144.7,207.0,1.16,-4.23,-0.24,0.0,0.8958236433584459,2.0507071950914884,0.11914324626642503,0.5,0,8,0.0
7.30474818499988,526,5574.91,-91.8,-1.8,-126.8,0.4,-1.2,-0.88,0.22,-0.88,-0.2,-208.3,169.8,232.0,1.11,-4.91,-0.12,0.0,0.9288702815786497,1.5409088227406578,0.08437467588529668,0.5,0,8,0.0
7.313166250999529,527,5574.92,-91.7,-1.7,-126.9,0.54,-0.58,-0.78,0.22,-0.9,-0.21,-206.4,193.3,229.0,1.06,-5.52,-0.21,0.0,0.9500000000000001,1.1119352499134112,0.06198005831466735,0.5,0,8,0.0
7.3243699009999546,528,5574.93,-91.7,-1.6,-126.9,0.6,0.06,-0.66,0.21,-0.92,-0.22,-204.4,214.6,222.0,1.0,-6.11,-0.04,0.0,0.9689685237405806,0.8939798655450804,0.04215130388260502,0.5,0,8,0.0
7.3333505410000726,529,5574.94,-91.6,-1.6,-126.9,0.79,0.58,-0.61,0.19,-0.93,-0.23,-202.0,237.9,230.0,0.94,-6.72,-0.24,0.0,0.976678043164686,1.154382952057072,0.03375294876932977,0.5,0,8,0.0
7.345398716999625,530,5574.95,-91.5,-1.5,-126.8,0.93,1.04,-0.47,0.17,-0.91,-0.22,-199.4,264.6,259.0,0.86,-7.51,-0.16,0.0,0.9515250916292224,1.47220922426128,0.05772778229869746,0.5,0,8,0.0
7.353326413999639,531,5574.96,-91.4,-1.5,-126.7,0.98,1.4,-0.33,0.15,-0.9,-0.22,-196.7,288.4,234.0,0.78,-8.11,0.12,0.0,0.938562730988185,1.7404884371922729,0.06927634008094019,0.5,0,8,0.0
7.364685535999342,532,5574.97,-91.3,-1.4,-126.5,1.04,1.62,-0.32,0.13,-0.9,-0.21,-193.7,309.2,215.0,0.7,-8.63,0.01,0.0,0.9332738076256079,1.9515122341404882,0.07307395817464701,0.5,0,8,0.0
7.3732680159992015,533,5574.98,-91.2,-1.4,-126.3,0.85,1.79,-0.19,0.1,-0.85,-0.22,-190.4,332.1,220.0,0.61,-9.25,-0.05,0.0,0.8836854644046149,1.9906531591414913,0.12020905536772719,0.5,0,8,0.0
7.384693029999653,534,5574.99,-91.2,-1.4,-126.1,0.5,1.94,0.05,0.08,-0.83,-0.23,-187.2,353.8,238.0,0.51,-9.97,-0.05,0.0,0.8649855490122363,2.0040209579742423,0.13613079134490358,0.5,0,8,0.0
7.393294345999493,535,5575.0,-91.2,-1.4,-126.1,0.5,1.94,0.05,0.08,-0.83,-0.23,-184.8,370.8,320.0,0.4,-10.82,0.08,0.0,0.8649855490122363,2.0040209579742423,0.13340817551800555,0.5,0,8,0.0
7.404645119999259,536,5575.01,-91.1,-1.4,-125.7,-0.14,1.97,0.52,0.06,-0.83,-0.21,-179.0,410.5,287.0,0.29,-11.36,-0.2,0.0,0.8582540416450132,2.042278139725341,0.13733688922752418,0.5,0,8,0.0
7.413140052999552,537,5575.02,-91.2,-1.5,-125.5,-0.34,1.85,0.67,0.07,-0.83,-0.22,-174.8,427.9,234.0,0.17,-11.92,0.11,0.0,0.8615103017375938,1.9967473550752486,0.13139901655224473,0.5,0,8,0.0
7.4245817040000475,538,5575.03,-91.2,-1.6,-125.4,-0.55,1.95,0.83,0.06,-0.8,-0.26,-170.4,449.6,191.0,0.05,-12.35,-0.24,0.0,0.8433267456923207,2.18949765928169,0.1465909211455675,0.5,0,8,0.0
7.4332978570000705,539,5575.04,-91.3,-1.7,-125.1,-0.8,2.14,1.16,0.05,-0.76,-0.24,-165.8,461.7,178.0,-0.07,-12.86,0.03,0.0,0.798561206170197,2.5622646233361612,0.18752933145433737,0.5,0,8,0.0
7.444655613999203,540,5575.05,-91.4,-1.8,-124.9,-0.88,2.22,1.41,0.06,-0.79,-0.19,-161.0,486.7,197.0,-0.2,-13.4,-0.14,0.0,0.8147392220827473,2.7732471941750885,0.16792428923095137,0.5,0,8,0.0
7.4533351149993905,541,5575.06,-91.5,-1.9,-124.7,-0.69,2.27,1.5,0.12,-0.82,-0.17,-156.1,494.1,83.0,-0.34,-13.44,-0.14,0.0,0.8459905436823747,2.8069556462473715,0.1339395082786975,0.5,0,8,0.0
7.464573492999989,542,5575.07,-91.6,-2.1,-124.5,-0.75,2.39,1.4,0.2,-0.85,-0.15,-151.2,487.3,-92.0,-0.47,-12.87,0.18,0.0,0.8860022573334675,2.8695992751602097,0.09204923873505255,0.5,0,8,0.0
7.473193189000085,543,5575.08,-91.7,-2.2,-124.2,-1.05,2.45,1.16,0.26,-0.87,-0.15,-146.6,437.4,-483.0,-0.58,-10.91,0.36,0.0,0.9203260291874831,2.9069915720552064,0.056570957543416234,0.5,0,8,0.0
7.484642892999545,544,5575.09,-91.8,-2.3,-124.0,-1.21,2.63,1.11,0.31,-0.85,-0.19,-142.9,324.7,-1117.0,-0.67,-6.8,0.52,0.0,0.9244998647917694,3.100499959683922,0.05134917950034734,0.5,0,8,0.0
7.493304629999329,545,5575.1,-91.9,-2.4,-123.7,-1.03,3.02,1.08,0.28,-0.89,-0.27,-140.9,152.8,-1527.0,-0.7,-2.05,0.41,0.0,0.9712878049270464,3.3686347382879016,0.004470014577768966,0.5,0,8,0.0
7.5047181029995045,546,5575.11,-92.0,-2.5,-123.3,-1.3,3.74,0.99,0.08,-1.0,-0.32,-140.4,-0.2,-1355.0,-0.7,1.26,0.4,0.0,1.0529957264870546,4.081384568991264,0.07569314884259448,0.5,0,8,0.0
7.517334329999358,547,5575.12,-92.2,-2.5,-122.9,-1.68,4.17,0.66,-0.08,-1.05,-0.27,-141.1,-87.8,-957.0,-0.67,3.24,0.23,0.0,1.0871062505569544,4.543886002091162,0.10760759945424436,0.5,0,8,0.0
7.525336697999592,548,5575.13,-92.4,-2.6,-122.5,-1.58,4.37,0.48,-0.15,-1.11,-0.24,-142.4,-148.2,-663.0,-0.63,4.57,0.08,0.0,1.145512985522207,4.671584313699155,0.16269404773110707,0.5,0,8,0.0
7.53334131199972,549,5575.14,-92.6,-2.6,-122.1,-1.86,4.09,0.08,-0.3,-1.26,-0.11,-144.2,-188.4,-473.0,-0.57,5.57,0.07,0.0,1.299884610263542,4.4937845965288545,0.3107243590229931,0.5,0,8,0.0
7.544627029999901,550,5575.15,-92.8,-2.6,-121.7,-1.75,3.6,-0.23,-0.24,-1.28,-0.07,-146.3,-222.9,-377.0,-0.51,6.44,0.12,0.0,1.3041855696180662,4.009413922258465,0.30872481200996704,0.5,0,8,0.0
7.553367019999314,551,5575.16,-93.0,-2.6,-121.3,-1.47,3.08,-0.58,-0.17,-1.32,-0.04,-148.7,-253.2,-311.0,-0.44,7.18,0.09,0.0,1.3315029102484155,3.461748113309228,0.32932130958751005,0.5,0,8,0.0
7.564432238999871,552,5575.17,-93.1,-2.5,-121.1,-2.05,2.6,-1.04,-0.17,-1.33,-0.05,-151.4,-271.8,-184.0,-0.37,7.47,0.18,0.0,1.341752585240662,3.4704610644696765,0.3327795648881615,0.5,0,8,0.0
7.5732933769995725,553,5575.18,-93.4,-2.4,-120.8,-3.26,2.17,-1.65,-0.17,-1.37,0.0,-154.2,-272.4,-36.0,-0.29,7.33,-0.18,0.0,1.380507153186828,4.2495882153451054,0.364103450177641,0.5,0,8,0.0
7.584642695999719,554,5575.19,-93.8,-2.2,-120.7,-4.11,1.64,-2.33,-0.12,-1.48,0.12,-156.8,-262.7,69.0,-0.22,6.97,-0.05,0.0,1.4896979559628858,5.001059887663814,0.4638283678946249,0.5,0,8,0.0
7.593273507999584,555,5575.2,-94.2,-1.9,-120.5,-4.51,1.01,-3.31,-0.11,-1.73,0.25,-159.3,-245.9,147.0,-0.16,6.44,-0.01,0.0,1.7514279888136994,5.684742738242426,0.7110472327305297,0.5,1,9,3.0
7.60470050099957,556,5575.21,-94.7,-1.5,-120.5,-4.59,0.08,-4.3,-0.19,-1.8,0.28,-161.7,-224.0,210.0,-0.1,5.76,-0.1,0.0,1.8315294155431956,6.290031796422018,0.7753256862708253,0.5,0,9,3.0
7.6133201669999835,557,5575.22,-95.1,-1.1,-120.6,-3.3,-0.62,-4.3,-0.16,-1.63,0.2,-163.6,-174.2,732.0,-0.05,2.83,2.7,3.49,1.65,5.455675943455586,0.581920345313077,0.5,0,9,3.0
7.624623047999194,558,5575.23,-95.3,-0.7,-120.7,-0.64,-0.75,-2.97,0.05,-1.3,0.08,-164.2,2.7,1428.0,-0.06,-2.04,3.12,3.49,1.3034185820372517,3.1293769347906943,0.23063214880332228,0.5,0,9,3.0
7.6334043459992245,559,5575.24,-95.2,-0.5,-120.8,1.5,0.09,-1.3,0.39,-1.16,-0.05,-163.2,121.8,978.0,-0.1,-3.86,3.26,3.49,1.2248265183282079,1.9869826370655583,0.148999283392393,0.5,0,9,3.0
7.644595742999627,560,5575.25,-95.0,-0.5,-120.7,2.52,1.91,-0.15,0.61,-1.03,-0.21,-161.8,144.2,300.0,-0.14,-3.61,3.6,3.49,1.2153600289626114,3.1655963103339633,0.13674213814626057,0.5,0,9,3.0
7.653347060999295,561,5575.26,-94.7,-0.4,-120.4,2.34,3.92,0.13,0.63,-0.97,-0.22,-160.6,109.8,-214.0,-0.16,-2.27,3.62,3.49,1.1773699503554522,4.567154475162845,0.09677701834831942,0.5,0,9,3.0
7.664440904000003,562,5575.27,-94.5,-0.4,-119.9,1.78,5.98,0.01,0.48,-0.92,-0.14,-159.8,58.5,-367.0,-0.18,-1.09,3.68,3.49,1.047091209016674,6.2393028456711415,0.03283168853064966,0.5,0,9,3.0
7.673307463999663,563,5575.28,-94.4,-0.3,-119.2,1.46,7.15,-0.29,0.31,-1.01,0.03,-159.5,18.2,-377.0,-0.18,-0.06,3.71,3.49,1.056929515152264,7.3033006236906335,0.022533514747158367,0.5,0,9,3.0
7.684587506999378,564,5575.29,-94.2,-0.2,-118.5,1.69,7.38,-0.77,0.12,-1.07,0.14,-159.5,-0.7,-154.0,-0.18,-0.03,3.55,3.49,1.0857716150277645,7.610085413449707,0.006182413425775302,0.5,0,9,3.0
7.697319166999478,565,5575.3,-94.0,-0.1,-117.8,2.03,6.83,-1.21,-0.04,-1.06,0.23,-159.5,0.0,-54.0,-0.18,0.0,3.33,3.49,1.0854031509075326,7.227302401311294,0.0056976703194324685,0.5,0,9,3.0
7.705385157999444,566,5575.31,-93.8,0.0,-117.1,2.78,6.03,-1.31,-0.12,-0.97,0.23,-159.5,0.0,-17.0,-0.18,0.0,3.41,3.49,1.0040916292848974,6.767968676050444,0.0741015742771387,0.5,0,9,3.0
7.713070159999916,567,5575.32,-93.5,0.2,-116.6,2.61,5.36,-0.94,-0.2,-0.88,0.17,-159.5,-0.1,-9.0,-0.18,0.0,3.65,3.49,0.918313671900838,6.035337604475826,0.15668194102797406,0.5,0,9,3.0
7.724360470999272,568,5575.33,-93.3,0.3,-116.1,1.84,4.88,-0.43,-0.26,-0.88,0.1,-159.5,-0.1,-1.0,-0.18,0.0,3.43,3.49,0.9230384607371461,5.23305837918898,0.1489180091478327,0.5,0,9,3.0
7.733310263999556,569,5575.34,-93.1,0.3,-115.6,1.33,4.42,0.04,-0.27,-0.9,0.07,-159.5,-0.3,-7.0,-0.18,0.03,3.66,3.49,0.9422313940853383,4.61593977430382,0.12713057428364782,0.5,0,9,3.0
7.744588744999419,570,5575.35,-93.0,0.3,-115.2,1.21,3.92,0.44,-0.24,-0.93,0.07,-159.5,-3.3,-30.0,-0.18,0.15,3.42,3.49,0.9630160954002794,4.126027144845269,0.10421895550933258,0.5,0,9,3.0
7.753320912999698,571,5575.36,-92.9,0.3,-114.8,1.29,3.46,0.77,-0.17,-0.93,0.04,-159.6,-8.0,-38.0,-0.18,0.27,3.39,3.49,0.9462557793746891,3.772081653411018,0.1185596861042244,0.5,0,9,3.0
7.7646314869998605,572,5575.37,-92.8,0.2,-114.5,1.34,3.19,1.09,-0.11,-0.92,0.01,-159.7,-11.5,-36.0,-0.18,0.35,3.44,3.49,0.92660671268883,3.6276438634463557,0.13544457773428187,0.5,0,9,3.0
7.773328086999754,573,5575.38,-92.6,0.0,-114.2,1.61,3.12,1.32,-0.07,-0.91,0.0,-159.9,-15.4,-28.0,-0.17,0.42,3.49,3.49,0.9126883367283709,3.7508532362650504,0.1463756946208461,0.5,0,9,0.0
7.784345712999311,574,5575.39,-92.4,0.0,-113.9,2.08,3.12,1.44,-0.04,-0.9,0.0,-160.0,-13.9,-5.0,-0.17,0.39,3.43,3.49,0.9008884503644167,4.016764867402621,0.15501206936510437,0.5,0,9,0.0
7.793302417999257,575,5575.4,-92.1,-0.2,-113.5,2.33,3.07,1.44,-0.02,-0.87,-0.01,-160.3,-42.6,-544.0,-0.15,2.82,0.97,0.0,0.8702873088813832,4.114292162693359,0.18190094663117518,0.5,0,9,0.0
7.8043711469999835,576,5575.41,-91.9,-0.3,-113.2,1.96,3.09,1.3,-0.07,-0.88,-0.02,-161.7,-187.8,-1128.0,-0.1,6.69,0.46,0.0,0.8830062287436029,3.8832589406322104,0.16579838623357634,0.5,0,9,0.0
7.81321797199962,577,5575.42,-91.8,-0.4,-112.9,1.16,2.57,1.07,-0.22,-0.82,0.1,-164.3,-296.4,-955.0,-0.01,8.94,0.39,0.0,0.8548684109265003,3.015858086846926,0.19005747996966527,0.5,0,9,0.0
7.824168432999613,578,5575.43,-91.7,-0.5,-112.7,0.58,1.77,1.03,-0.2,-0.75,0.07,-167.8,-360.6,-703.0,0.08,10.46,0.13,0.0,0.7793587107359486,2.1284266489592727,0.26025583655701257,0.5,0,9,0.0
7.83336803399925,579,5575.44,-91.7,-0.6,-112.6,0.0,1.13,1.07,-0.16,-0.76,0.04,-171.7,-408.6,-498.0,0.19,11.49,0.17,0.0,0.7776888838089432,1.5562133529821673,0.25668715021433763,0.5,0,9,0.0
7.844419029999699,580,5575.45,-91.7,-0.7,-112.5,-0.7,0.55,1.16,-0.12,-0.78,0.01,-176.0,-429.9,-265.0,0.31,11.83,0.16,0.0,0.7892401408950257,1.462224332994086,0.24023317526569,0.5,0,9,0.0
7.8533601339995585,581,5575.46,-91.8,-0.9,-112.5,-1.3,0.03,1.31,-0.1,-0.82,-0.01,-180.4,-439.8,-126.0,0.43,11.96,0.03,0.0,0.8261355820929153,1.8458060569843193,0.19927097938644445,0.5,0,9,0.0
7.8643945049998365,582,5575.47,-92.0,-1.1,-112.5,-1.57,-0.26,1.47,-0.09,-0.87,-0.08,-184.7,-428.8,88.0,0.54,11.36,0.23,0.0,0.8782938005018593,2.16642562761799,0.14417050575795043,0.5,0,9,0.0
7.873307586999545,583,5575.48,-92.1,-1.3,-112.5,-1.35,-0.39,1.63,-0.07,-0.91,-0.12,-188.8,-406.1,183.0,0.65,10.72,-0.33,0.0,0.9205433178292046,2.152092005468168,0.09988256866199308,0.5,0,9,0.0
7.884614255999622,584,5575.49,-92.2,-1.4,-112.5,-0.99,-0.48,1.72,-0.06,-0.94,-0.14,-192.7,-376.5,278.0,0.75,9.81,-0.1,0.0,0.9522604685693931,2.0417884317431128,0.06680210956336852,0.5,0,9,0.0
7.8933249809997506,585,5575.5,-92.3,-1.6,-112.6,-0.56,-0.44,1.69,-0.05,-0.95,-0.15,-196.2,-342.4,317.0,0.85,8.9,-0.23,0.0,0.9630680142129111,1.833930205869351,0.054874672641453515,0.5,0,9,0.0
7.904415592999612,586,5575.51,-92.4,-1.8,-112.6,-0.21,-0.32,1.47,-0.04,-0.96,-0.16,-199.4,-306.2,371.0,0.93,7.79,-0.1,0.0,0.9740636529508736,1.5190128373387763,0.04300145322542115,0.5,0,9,0.0
7.9132099219996235,587,5575.52,-92.4,-1.9,-112.6,0.01,-0.11,1.02,-0.04,-0.96,-0.18,-202.1,-260.1,439.0,1.0,6.49,-0.25,0.0,0.977547952787995,1.0259629622944486,0.03872681032053371,0.5,0,9,0.0
7.924542927999937,588,5575.53,-92.4,-2.0,-112.6,0.18,0.16,0.51,-0.07,-0.95,-0.2,-204.4,-214.4,439.0,1.05,5.31,-0.16,0.0,0.973344748791506,0.564003546088143,0.042071414030682264,0.5,0,9,0.0
7.9332872859995405,589,5575.54,-92.3,-2.0,-112.6,0.35,0.42,0.06,-0.09,-0.92,-0.21,-206.3,-171.5,438.0,1.1,4.11,-0.07,0.0,0.9479451460923254,0.5499999999999999,0.06612159639526571,0.5,0,9,0.0
7.945314726999641,590,5575.55,-92.3,-2.0,-112.5,0.79,0.58,-0.42,-0.13,-0.9,-0.19,-207.7,-127.9,443.0,1.13,2.92,-0.25,0.0,0.9289779329994874,1.0662551289442879,0.08338703329834174,0.5,0,9,0.0
7.953364121999584,591,5575.56,-92.2,-1.9,-112.5,1.32,0.52,-0.96,-0.17,-0.86,-0.16,-208.7,-81.6,458.0,1.15,1.65,-0.08,0.0,0.8911228871485682,1.7130090484291085,0.1188172375662756,0.5,0,9,0.0
7.964325495999219,592,5575.57,-92.0,-1.8,-112.4,1.67,0.22,-1.45,-0.21,-0.79,-0.14,-209.2,-36.3,454.0,1.16,0.42,-0.17,0.0,0.8293370846646133,2.222566084506825,0.1769909792492259,0.5,0,9,0.0
7.973298997999336,593,5575.58,-91.9,-1.6,-112.5,1.6,-0.25,-1.68,-0.24,-0.71,-0.11,-209.2,5.9,397.0,1.16,-0.54,-0.09,0.0,0.757495874576225,2.333430950339007,0.24385554555086197,0.5,0,9,0.0
7.985332741999628,594,5575.59,-91.7,-1.4,-112.5,0.82,-0.81,-1.62,-0.24,-0.67,-0.11,-209.0,30.9,265.0,1.15,-1.04,-0.06,0.0,0.7201388754955533,1.9881901317529973,0.27558829373890303,0.5,0,9,0.0
7.993310438999288,595,5575.6,-91.7,-1.3,-112.6,-0.48,-1.36,-1.39,-0.2,-0.7,-0.11,-208.6,44.0,160.0,1.14,-1.31,0.19,0.0,0.7362744053679986,2.0030227157973024,0.2542637085891286,0.5,0,9,0.0
8.00434120799946,596,5575.61,-91.8,-1.2,-112.8,-1.59,-1.77,-1.21,-0.14,-0.77,-0.12,-208.1,48.1,52.0,1.12,-1.26,-0.08,0.0,0.7917701686727026,2.6692882946583345,0.1947925863787362,0.5,0,9,0.0
8.013289145999806,597,5575.62,-92.0,-1.1,-113.0,-2.08,-2.02,-1.04,-0.08,-0.83,-0.14,-207.6,40.1,-60.0,1.11,-0.91,0.06,0.0,0.8455175929571187,3.0803246582138057,0.1382242588524336,0.5,0,9,0.0
8.024431967000055,598,5575.63,-92.2,-1.0,-113.2,-2.26,-2.06,-0.81,-0.03,-0.87,-0.17,-207.4,20.5,-191.0,1.11,-0.17,0.06,0.0,0.8869611039949836,3.163431680943971,0.09484513285827734,0.5,0,9,0.0
8.03326821599967,599,5575.64,-92.5,-0.9,-113.4,-2.21,-1.74,-0.57,0.01,-0.89,-0.2,-207.4,-7.8,-220.0,1.11,0.44,0.01,0.0,0.9122499657440388,2.8699477347157387,0.06816514568703769,0.5,0,9,0.0
8.044533330999911,600,5575.65,-92.7,-0.9,-113.5,-2.1,-1.12,-0.28,0.07,-0.93,-0.21,-207.6,-23.4,-164.0,1.12,0.8,0.0,0.0,0.9559811713627001,2.3964139876073167,0.02394526126700891,0.5,0,9,0.0
8.053359972999715,601,5575.66,-92.9,-0.9,-113.6,-1.78,-0.36,-0.06,0.1,-0.99,-0.23,-207.9,-40.2,-192.0,1.13,1.37,0.01,0.0,1.0212737145349429,1.8170305445974209,0.04052033626712914,0.5,0,9,0.0
8.064335011999901,602,5575.67,-93.0,-0.9,-113.6,-1.02,0.35,0.09,0.13,-1.03,-0.24,-208.5,-65.0,-235.0,1.15,2.08,0.14,0.0,1.0655515003977987,1.0821275340735028,0.08310215968738521,0.5,0,9,0.0
8.073280243999761,603,5575.68,-93.1,-0.9,-113.6,-0.09,0.7,0.08,0.15,-1.07,-0.25,-209.3,-90.1,-240.0,1.17,2.74,0.07,0.0,1.1090085662428402,0.7102816342831905,0.12402804102177822,0.5,0,9,0.0
8.084400511999775,604,5575.69,-93.0,-0.9,-113.5,0.33,0.69,-0.06,0.08,-1.06,-0.2,-210.4,-114.6,-249.0,1.21,3.44,0.13,0.0,1.0816653826391969,0.7672027111526654,0.09475116026977226,0.5,0,9,0.0
8.093289718999586,605,5575.7,-93.0,-0.9,-113.4,-0.5,0.4,0.0,0.03,-1.07,-0.18,-211.7,-141.2,-263.0,1.25,4.18,0.17,0.0,1.0854492157627642,0.6403124237432849,0.0965642935254728,0.5,0,9,0.0
8.104535684999973,606,5575.71,-93.2,-0.9,-113.4,-1.03,0.19,0.08,-0.03,-1.14,-0.16,-213.3,-171.0,-301.0,1.29,5.06,0.13,0.0,1.1515641536623134,1.0504284840006957,0.1594256467965215,0.5,0,9,0.0
8.113295870999536,607,5575.72,-93.3,-0.9,-113.4,-0.9,0.12,0.47,-0.09,-1.13,-0.16,-215.3,-205.2,-338.0,1.35,6.02,0.16,0.0,1.1448143954370944,1.022399139279763,0.1496223707998765,0.5,0,9,0.0
8.124356547999923,608,5575.73,-93.4,-1.0,-113.4,-0.58,0.13,1.04,-0.1,-1.14,-0.17,-217.6,-241.3,-348.0,1.42,6.98,0.2,0.0,1.1569356075426152,1.1978731151503486,0.15850871124728927,0.5,0,9,0.0
8.13335767999979,609,5575.74,-93.4,-1.1,-113.3,-0.58,0.01,1.34,-0.14,-1.16,-0.16,-220.2,-274.5,-322.0,1.49,7.82,0.05,0.0,1.1793218390244455,1.460171222836555,0.17727704387453724,0.5,0,9,0.0
8.144546902000002,610,5575.75,-93.5,-1.3,-113.4,-1.17,-0.33,1.52,-0.15,-1.13,-0.15,-223.2,-304.6,-317.0,1.58,8.68,0.14,0.0,1.149739100839838,1.94632987954252,0.14474041957613126,0.5,0,9,0.0
8.153335840999716,611,5575.76,-93.7,-1.4,-113.4,-2.16,-0.44,1.87,-0.07,-1.19,-0.14,-226.4,-337.1,-319.0,1.67,9.54,0.18,0.0,1.2002499739637573,2.8906919586839415,0.1913462668460495,0.5,0,9,0.0
8.164525201999822,612,5575.77,-94.0,-1.7,-113.4,-2.7,-0.21,2.19,0.0,-1.36,-0.04,-230.0,-367.2,-302.0,1.77,10.34,-0.06,0.0,1.360588108135596,3.482843665742119,0.34465071299753025,0.5,0,9,0.0
8.173285172999385,613,5575.78,-94.2,-1.9,-113.4,-2.41,-0.07,2.57,0.02,-1.46,0.0,-233.9,-396.9,-295.0,1.88,11.13,0.05,0.0,1.4601369798755184,3.5239040849603156,0.43531559304270373,0.5,0,9,0.0
8.184261848999995,614,5575.79,-94.4,-2.1,-113.4,-1.55,0.24,3.13,0.03,-1.49,0.05,-238.0,-416.8,-177.0,1.99,11.4,-0.08,0.0,1.491140503104922,3.500999857183659,0.4569927339466653,0.5,0,9,0.0
8.193274197999926,615,5575.8,-94.5,-2.5,-113.3,-0.42,0.3,3.4,0.05,-1.53,0.13,-242.2,-426.8,-157.0,2.11,11.82,0.14,0.0,1.536326788154135,3.438953329139551,0.49213543861596065,0.5,0,9,0.0
8.204483679000077,616,5575.81,-94.4,-2.8,-113.3,0.55,-0.17,2.84,-0.04,-1.45,0.2,-246.6,-440.5,-105.0,2.23,12.01,0.21,0.0,1.4642745644174797,2.8977577538503803,0.4116815505817193,0.5,0,9,0.0
8.21327728199958,617,5575.82,-94.4,-3.0,-113.3,0.24,-1.12,1.94,-0.19,-1.27,0.24,-251.0,-445.2,-91.0,2.35,12.26,0.07,0.0,1.3063690137170278,2.2529092303064497,0.24870047988364208,0.5,0,9,0.0
8.224314077999225,618,5575.83,-94.4,-3.2,-113.5,-0.84,-2.23,1.09,-0.3,-1.19,0.3,-255.6,-455.1,-59.0,2.48,12.34,0.22,0.0,1.2633685131425432,2.6204198136939816,0.2015859797229742,0.5,0,9,0.0
8.233369603999563,619,5575.84,-94.5,-3.3,-113.8,-1.3,-3.45,0.38,-0.34,-1.17,0.34,-260.1,-446.7,59.0,2.6,11.98,-0.13,0.0,1.2649505919204906,3.70633241898241,0.1991046973309032,0.5,0,9,0.0
8.244468068999595,620,5575.85,-94.6,-3.3,-114.2,-0.9,-4.55,0.05,-0.32,-1.16,0.34,-264.5,-433.4,125.0,2.71,11.55,-0.12,0.0,1.250439922587247,4.6384264573236464,0.18090214743770616,0.5,0,9,0.0
8.25331672899938,621,5575.86,-94.6,-3.4,-114.7,-0.04,-5.39,-0.02,-0.26,-1.1,0.32,-268.7,-412.1,199.0,2.82,10.9,-0.04,0.0,1.174734012447073,5.390185525564031,0.10309231255158169,0.5,0,9,0.0
8.264495112000077,622,5575.87,-94.6,-3.4,-115.3,0.7,-6.17,0.01,-0.18,-1.02,0.28,-272.6,-381.8,307.0,2.93,9.87,-0.3,0.0,1.0729398864801327,6.2095893584036626,0.0012722228529484791,0.5,0,9,0.0
8.273340997999185,623,5575.88,-94.4,-3.5,-115.9,1.04,-6.73,0.07,-0.11,-0.95,0.2,-276.1,-336.4,419.0,3.02,8.56,-0.16,0.0,0.9770363350459388,6.810242286438861,0.09273870200962064,0.5,0,9,0.0
8.28430952599956,624,5575.89,-94.3,-3.5,-116.6,1.05,-6.91,0.05,-0.05,-0.92,0.13,-279.1,-291.7,418.0,3.09,7.43,-0.47,0.0,0.9304837451562493,6.98949926675724,0.13650546606132385,0.5,0,9,0.0
8.293276347999381,625,5575.9,-94.1,-3.6,-117.3,0.93,-6.72,-0.03,0.0,-0.93,0.07,-281.8,-250.3,431.0,3.16,6.24,-0.19,0.0,0.9326306878931232,6.78411379621539,0.13167135285796094,0.5,0,9,0.0
8.304426062999482,626,5575.91,-94.0,-3.6,-117.9,1.1,-6.28,-0.09,0.03,-0.95,0.04,-283.9,-203.0,466.0,3.21,4.92,-0.22,0.0,0.9513148795220224,6.376244976473222,0.1107274180044805,0.5,0,9,0.0
8.313200406999385,627,5575.92,-93.8,-3.6,-118.5,1.58,-5.68,-0.34,0.06,-0.99,0.02,-285.6,-155.6,463.0,3.25,3.67,-0.2,0.0,0.9920181449953422,5.905455105239562,0.06862366948053755,0.5,0,9,0.0
8.324319813999864,628,5575.93,-93.6,-3.6,-119.1,1.63,-5.04,-0.68,0.08,-0.97,0.0,-286.9,-108.9,470.0,3.28,2.37,-0.23,0.0,0.9732933781753578,5.340496231624923,0.08560146757451148,0.5,0,9,0.0
8.333320631999413,629,5575.94,-93.5,-3.6,-119.5,1.01,-4.48,-0.97,0.1,-0.95,0.0,-287.6,-60.2,488.0,3.3,1.01,-0.17,0.0,0.95524865872714,4.693761817561688,0.10157326328227456,0.5,0,9,0.0
8.344466486999409,630,5575.95,-93.4,-3.5,-120.0,0.51,-4.01,-1.32,0.12,-0.94,0.0,-287.9,-12.6,459.0,3.3,-0.16,-0.38,0.0,0.9476286192385707,4.252364048385322,0.10700943671542695,0.5,0,9,0.0
8.353389407999202,631,5575.96,-93.3,-3.3,-120.4,0.27,-3.56,-1.58,0.12,-0.9,0.0,-287.8,21.3,349.0,3.29,-0.92,-0.12,0.0,0.9079647570252933,3.904215670272328,0.14373983295013026,0.5,0,9,0.0
8.364466197999718,632,5575.97,-93.2,-3.2,-120.7,0.21,-3.24,-1.75,0.1,-0.87,0.0,-287.4,49.2,306.0,3.28,-1.69,-0.11,0.0,0.875728268357257,3.6883871814114095,0.17245679518580326,0.5,0,9,0.0
