host_time_s,seq,device_time_s,roll,pitch,yaw,gyro_x,gyro_y,gyro_z,accel_x,accel_y,accel_z,belt_length,belt_velocity,belt_acceleration,motor_belt_length,motor_pos,motor_vel,motor_iq_meas,motor_iq_set,acc_mag,gyro_mag,acc_residual,threshold,heel_strike,hs_count,torque_cmd_nm
3.0680264479997277,2,4586.79,-58.0,-3.8,-116.8,0.38,-0.36,0.04,-0.05,-0.85,0.5,-128.3,0.0,0.0,0.0,-1.03,0.0,0.0,0.0,0.9874208829065749,0.5249761899362675,0.0,0.28,0,0,0.0
3.0754202179996355,3,4586.8,-57.9,-3.8,-116.9,0.49,-0.38,0.0,-0.05,-0.84,0.51,-128.3,0.1,0.0,0.0,-1.03,0.0,0.07,0.0,0.9839715443040006,0.6200806399170998,0.0033803518305228764,0.28,0,0,0.0
3.0873014329999933,4,4586.81,-57.9,-3.8,-116.9,0.54,-0.43,-0.06,-0.05,-0.84,0.51,-128.3,0.0,2.0,0.0,-1.03,0.0,-0.06,0.0,0.9839715443040006,0.6928924880528003,0.0033127447939124144,0.28,0,0,0.0
3.0955576429996654,5,4586.82,-57.8,-3.8,-116.9,0.61,-0.47,-0.1,-0.05,-0.83,0.51,-128.3,0.0,0.0,0.0,-1.03,0.0,-0.11,0.0,0.9754486147409304,0.776530746332687,0.011598960869843022,0.28,0,0,0.0
3.1076080989996626,6,4586.83,-57.8,-3.7,-117.0,0.61,-0.5,-0.11,-0.06,-0.82,0.51,-128.3,0.0,0.0,0.0,-1.03,0.0,-0.01,0.0,0.9675226095549395,0.7963667496825818,0.019134466734717193,0.28,0,0,0.0
3.115548346999276,7,4586.84,-57.7,-3.7,-117.0,0.58,-0.5,-0.09,-0.05,-0.81,0.51,-128.3,0.0,-1.0,0.0,-1.03,0.0,-0.03,0.0,0.9584883932526257,0.7710382610480494,0.027605309376290355,0.28,0,0,0.0
3.127374271000008,8,4586.85,-57.6,-3.6,-117.1,0.58,-0.55,-0.11,-0.06,-0.82,0.51,-128.3,-0.1,0.0,0.0,-1.03,0.0,-0.03,0.0,0.9675226095549395,0.8068457101577724,0.018199671212496993,0.28,0,0,0.0
3.1355053849993055,9,4586.86,-57.6,-3.6,-117.1,0.62,-0.6,-0.14,-0.07,-0.81,0.52,-128.3,0.1,-1.0,0.0,-1.03,0.0,-0.08,0.0,0.9650906693155832,0.8740709353364863,0.020218979222816236,0.28,0,0,0.0
3.147299218999251,10,4586.87,-57.5,-3.6,-117.1,0.63,-0.67,-0.21,-0.07,-0.82,0.53,-128.3,0.0,0.0,0.0,-1.03,0.0,-0.08,0.0,0.9788769074812216,0.9433451118228154,0.00630408623603429,0.28,0,0,0.0
3.1553418539997438,11,4586.88,-57.4,-3.5,-117.2,0.65,-0.78,-0.29,-0.07,-0.83,0.53,-128.3,0.0,0.0,0.0,-1.03,0.0,0.21,0.0,0.98726896031426,1.055935604097144,0.002046207265064104,0.28,0,0,0.0
3.1672176709998894,12,4586.89,-57.4,-3.4,-117.2,0.75,-0.91,-0.37,-0.05,-0.82,0.52,-128.3,0.0,0.0,0.0,-1.03,0.0,0.0,0.0,0.9722653958667868,1.2359207094308275,0.012698210038760926,0.28,0,0,0.0
3.1750146689992107,13,4586.9,-57.3,-3.3,-117.3,0.83,-1.04,-0.44,-0.06,-0.83,0.52,-128.3,0.0,0.0,0.0,-1.03,0.0,0.0,0.0,0.9812746812182612,1.4014635207525026,0.0036151461935408635,0.28,0,0,0.0
3.186971381999683,14,4586.91,-57.2,-3.2,-117.4,0.95,-1.2,-0.52,-0.05,-0.82,0.5,-128.3,0.0,0.0,0.0,-1.03,0.0,0.05,0.0,0.961717214153932,1.6164467204334325,0.022709160992712696,0.28,0,0,0.0
3.195277365999573,15,4586.92,-57.1,-3.1,-117.4,1.09,-1.31,-0.55,-0.06,-0.82,0.52,-128.3,0.0,1.0,0.0,-1.03,0.0,-0.08,0.0,0.9728309205612247,1.790726109710807,0.011363545493711547,0.28,0,0,0.0
3.207464090999565,16,4586.93,-57.0,-3.0,-117.5,1.21,-1.47,-0.58,-0.06,-0.82,0.52,-128.3,0.0,-1.0,0.0,-1.03,0.0,0.0,0.0,0.9728309205612247,1.9903266063638902,0.011136274583837369,0.28,0,0,0.0
3.2154359419992034,17,4586.94,-56.9,-2.9,-117.6,1.31,-1.6,-0.65,-0.06,-0.83,0.52,-128.3,0.0,0.0,0.0,-1.03,0.0,0.0,0.0,0.9812746812182612,2.167625428896792,0.0026386636482648163,0.28,0,0,0.0
3.227624489999471,18,4586.95,-56.7,-2.7,-117.7,1.54,-1.75,-0.73,-0.05,-0.83,0.51,-128.3,0.0,0.0,0.0,-1.03,0.0,-0.02,0.0,0.9754486147409304,2.4427443582986736,0.00829543552308376,0.28,0,0,0.0
3.2355497299995477,19,4586.96,-56.6,-2.6,-117.8,1.79,-1.88,-0.79,-0.04,-0.83,0.5,-128.3,0.0,0.0,0.0,-1.03,0.0,0.01,0.0,0.9697937925146768,2.713411137295637,0.013671252594350536,0.28,0,0,0.0
3.2473574739997275,20,4586.97,-56.4,-2.4,-118.0,1.89,-1.91,-0.84,-0.03,-0.82,0.51,-128.3,0.0,1.0,0.0,-1.03,0.0,0.01,0.0,0.966126285741155,2.815279737432854,0.01699198418051484,0.28,0,0,0.0
3.255441274999612,21,4586.98,-56.2,-2.2,-118.1,1.87,-1.91,-0.89,-0.03,-0.82,0.52,-128.3,0.0,0.0,0.0,-1.03,0.0,-0.03,0.0,0.9714422267947795,2.817285927981042,0.011442522264352495,0.28,0,0,0.0
3.267308337999566,22,4586.99,-56.0,-2.0,-118.2,1.9,-1.89,-0.97,-0.02,-0.81,0.54,-128.3,-0.1,-1.0,0.0,-1.03,0.0,0.0,0.0,0.9737042672187486,2.850087717948344,0.008996872203575812,0.28,0,0,0.0
3.275489216999631,23,4587.0,-55.8,-1.8,-118.3,1.9,-1.84,-1.02,-0.01,-0.81,0.55,-128.3,-0.3,-1.0,0.0,-1.03,0.0,0.15,0.0,0.9791322688993557,2.834783942384322,0.0034974931125093534,0.28,0,0,0.0
3.2872855339992384,24,4587.01,-55.6,-1.6,-118.4,1.85,-1.8,-1.04,-0.01,-0.8,0.55,-128.3,0.0,0.0,0.0,-1.03,0.0,-0.08,0.0,0.9708758932015977,2.782822308376875,0.011518791434061981,0.28,0,0,0.0
3.2953560619998825,25,4587.02,-55.4,-1.4,-118.4,1.79,-1.78,-1.08,0.0,-0.8,0.52,-128.3,0.0,2.0,0.0,-1.03,0.0,0.01,0.0,0.9541488353501251,2.7457057380571577,0.027680932299823935,0.28,0,0,0.0
3.3074211240000295,26,4587.03,-55.3,-1.2,-118.5,1.85,-1.75,-1.13,0.0,-0.8,0.54,-128.3,0.0,-1.0,0.0,-1.03,0.0,-0.03,0.0,0.9651942809610924,2.7860186646898115,0.016302776955079534,0.28,0,0,0.0
3.3154070649998175,27,4587.04,-55.1,-1.0,-118.6,1.81,-1.79,-1.21,-0.01,-0.8,0.55,-128.3,0.0,0.0,0.0,-1.03,0.0,-0.07,0.0,0.9708758932015977,2.8185634638943293,0.010408741420282697,0.28,0,0,0.0
3.3274197239998102,28,4587.05,-54.9,-0.8,-118.7,1.65,-1.85,-1.22,-0.02,-0.83,0.57,-128.3,0.0,1.0,0.0,-1.03,0.0,0.01,0.0,1.0070749723828905,2.7628608361624005,0.025274531005789802,0.28,0,0,0.0
3.335451889000069,29,4587.06,-54.8,-0.6,-118.8,1.64,-1.83,-1.21,-0.03,-0.84,0.58,-128.3,0.1,2.0,0.0,-1.03,0.0,0.04,0.0,1.0212247548899311,2.7390874392760813,0.03863582724257386,0.28,0,0,0.0
3.3473301119993266,30,4587.07,-54.6,-0.4,-118.8,1.72,-1.83,-1.17,-0.02,-0.84,0.6,-128.3,0.1,-1.0,0.0,-1.03,0.0,0.1,0.0,1.0324727599312244,2.770595603836836,0.048886155638189877,0.28,0,0,0.0
3.3553953699993144,31,4587.08,-54.4,-0.2,-118.9,1.75,-1.8,-1.17,0.0,-0.84,0.62,-128.3,0.0,1.0,0.0,-1.03,0.0,-0.08,0.0,1.0440306508910548,2.7697292286431177,0.05923516566605991,0.28,0,0,0.0
3.367375094999261,32,4587.09,-54.2,0.0,-119.0,1.65,-1.71,-1.16,0.02,-0.8,0.61,-128.3,0.0,0.0,0.0,-1.03,0.0,0.07,0.0,1.0062305898749055,2.644276838759512,0.02100640255691244,0.28,0,0,0.0
3.3753357339992363,33,4587.1,-54.1,0.1,-119.1,1.44,-1.53,-1.07,0.05,-0.78,0.6,-128.3,0.0,-1.0,0.0,-1.03,0.0,-0.06,0.0,0.9853425800197615,2.3578379927382627,0.00011602484773298727,0.28,0,0,0.0
3.3876694269993095,34,4587.11,-53.9,0.3,-119.1,1.26,-1.24,-0.99,0.08,-0.79,0.58,-128.3,0.1,0.0,0.0,-1.03,0.0,0.02,0.0,0.9833107342035884,2.026153992173349,0.0018775045490713183,0.28,0,0,0.0
3.3954985559994384,35,4587.12,-53.8,0.5,-119.2,1.13,-0.92,-0.91,0.09,-0.8,0.57,-128.3,0.1,0.0,0.0,-1.03,0.0,-0.05,0.0,0.9864076236526156,1.717963911145982,0.0011949972019567046,0.28,0,0,0.0
3.407246533000034,36,4587.13,-53.7,0.7,-119.2,1.05,-0.61,-0.87,0.09,-0.82,0.57,-128.3,0.1,1.0,0.0,-1.03,0.0,0.0,0.0,1.00269636480841,1.4938206050259182,0.017134063590596105,0.28,0,0,0.0
3.415419407999252,37,4587.14,-53.6,0.8,-119.1,1.04,-0.33,-0.83,0.09,-0.83,0.58,-128.3,0.0,-3.0,0.0,-1.03,0.01,-0.11,0.0,1.0165628362280414,1.3709121051329294,0.030380524310023027,0.28,0,0,0.0
3.4273621859993,38,4587.15,-53.5,0.9,-119.1,1.03,-0.11,-0.82,0.07,-0.84,0.58,-128.3,0.0,0.0,0.0,-1.03,0.0,0.0,0.0,1.0231813133555558,1.3211358749197601,0.036259021408786674,0.28,0,0,0.0
3.4353799969994725,39,4587.16,-53.4,1.0,-119.1,1.05,0.09,-0.86,0.05,-0.84,0.59,-128.3,0.0,1.0,0.0,-1.03,0.01,0.0,0.0,1.0277159140540735,1.3602205703487946,0.03997774966515821,0.28,0,0,0.0
3.4473397299998396,40,4587.17,-53.3,1.1,-119.0,0.99,0.25,-0.81,0.04,-0.8,0.6,-128.3,-0.1,0.0,0.0,-1.03,0.0,-0.04,0.0,1.0007996802557444,1.3033418584546421,0.01280028554949253,0.28,0,0,0.0
3.4553989369997,41,4587.18,-53.2,1.1,-118.9,0.77,0.34,-0.76,0.03,-0.78,0.61,-128.3,0.0,-1.0,0.0,-1.03,0.0,-0.07,0.0,0.9906563480844405,1.134063490286148,0.0026038143106248413,0.28,0,0,0.0
3.4673401169993667,42,4587.19,-53.1,1.2,-118.9,0.48,0.42,-0.73,0.02,-0.76,0.62,-128.3,0.0,0.0,0.0,-1.03,0.0,0.09,0.0,0.9810198774744576,0.9693812459502195,0.006892003173370798,0.28,0,0,0.0
3.475331296999684,43,4587.2,-53.1,1.2,-118.8,0.23,0.39,-0.72,0.02,-0.76,0.62,-128.3,0.0,0.0,0.0,-1.03,0.0,-0.01,0.0,0.9810198774744576,0.8505292469985968,0.006754163109903399,0.28,0,0,0.0
3.487292307999269,44,4587.21,-53.0,1.2,-118.7,0.05,0.37,-0.7,0.02,-0.76,0.61,-128.3,0.0,-2.0,0.0,-1.03,0.01,-0.07,0.0,0.9747307320486002,0.7933473388119481,0.012782442365045665,0.28,0,0,0.0
3.495415494999179,45,4587.22,-53.0,1.3,-118.6,-0.04,0.34,-0.66,0.02,-0.77,0.6,-128.3,-0.1,2.0,0.0,-1.03,0.0,0.02,0.0,0.9763708311906906,0.7435052118176443,0.010919496358496206,0.28,0,0,0.0
3.507252743999743,46,4587.23,-53.0,1.3,-118.6,-0.02,0.33,-0.62,0.02,-0.78,0.59,-128.3,0.0,-1.0,0.0,-1.03,0.0,-0.02,0.0,0.9782126558167197,0.7026378868236469,0.008896118297817779,0.28,0,0,0.0
3.5154030499998044,47,4587.24,-53.0,1.3,-118.5,-0.01,0.34,-0.57,0.01,-0.78,0.58,-128.3,0.1,0.0,0.0,-1.03,0.0,0.02,0.0,0.97205966895042,0.6637770710110436,0.014748123060835172,0.28,0,0,0.0
3.527305337999678,48,4587.25,-53.0,1.4,-118.4,-0.05,0.35,-0.52,0.01,-0.79,0.59,-128.3,-0.2,2.0,0.0,-1.03,-0.02,0.02,0.0,0.9860527369263776,0.6288083968904996,0.0007399539831799418,0.28,0,0,0.0
3.535355650999918,49,4587.26,-53.0,1.4,-118.4,-0.13,0.37,-0.51,0.01,-0.8,0.59,-128.3,0.3,0.0,0.0,-1.03,0.0,0.09,0.0,0.9940824915468535,0.6433506042586733,0.007144004624550004,0.28,0,0,0.0
3.547332783999991,50,4587.27,-53.1,1.4,-118.3,-0.18,0.4,-0.52,0.02,-0.81,0.59,-128.3,-0.1,0.0,0.0,-1.03,-0.01,-0.08,0.0,1.002297361066066,0.680294054067798,0.015051696660887237,0.28,0,0,0.0
3.555354031999741,51,4587.28,-53.1,1.4,-118.3,-0.15,0.45,-0.57,0.02,-0.83,0.6,-128.3,0.1,-1.0,0.0,-1.03,0.0,0.09,0.0,1.02435345462394,0.7415524256584964,0.036365634414386006,0.28,0,0,0.0
3.5672756569993,52,4587.29,-53.1,1.4,-118.2,-0.13,0.48,-0.58,0.02,-0.81,0.6,-128.3,0.0,0.0,0.0,-1.03,0.0,0.11,0.0,1.00821624664553,0.7640026177965623,0.019823857907256603,0.28,0,0,0.0
3.5753681809992486,53,4587.3,-53.1,1.4,-118.1,-0.15,0.49,-0.6,0.01,-0.81,0.6,-128.3,0.0,0.0,0.0,-1.03,0.0,0.04,0.0,1.0080674580602234,0.7890500617831546,0.019281567935510946,0.28,0,0,0.0
3.5872693999999683,54,4587.31,-53.1,1.5,-118.0,-0.12,0.47,-0.63,0.01,-0.8,0.6,-128.3,0.1,-1.0,0.0,-1.03,0.01,-0.07,0.0,1.0000499987500626,0.7951100552753688,0.011038826452843153,0.28,0,0,0.0
3.5954919629994038,55,4587.32,-53.1,1.5,-118.0,-0.12,0.47,-0.63,0.01,-0.8,0.6,-128.3,0.0,3.0,0.0,-1.03,-0.01,-0.07,0.0,1.0000499987500626,0.7951100552753688,0.010818049923786321,0.28,0,0,0.0
3.607578459999786,56,4587.33,-53.1,1.5,-118.0,-0.09,0.44,-0.6,0.01,-0.78,0.6,-128.3,0.1,0.0,0.0,-1.03,0.0,0.11,0.0,0.9841239759298622,0.7494664769020694,0.005005813438485829,0.28,0,0,0.0
3.6155009119993338,57,4587.34,-53.1,1.5,-117.8,-0.17,0.46,-0.48,0.0,-0.8,0.61,-128.3,0.2,0.0,0.0,-1.03,0.0,-0.08,0.0,1.0060318086422517,0.6862215385719105,0.016563978888425646,0.28,0,0,0.0
3.627283919999172,58,4587.35,-53.1,1.5,-117.8,-0.17,0.46,-0.48,0.0,-0.8,0.61,-128.3,0.0,-2.0,0.0,-1.03,0.0,0.0,0.0,1.0060318086422517,0.6862215385719105,0.016232699310657184,0.28,0,0,0.0
3.6352796979999766,59,4587.36,-53.1,1.5,-117.7,-0.01,0.33,-0.35,0.01,-0.8,0.61,-128.3,0.4,3.0,0.0,-1.03,-0.01,-0.1,0.0,1.006081507632458,0.4811444689487763,0.015956750334846226,0.28,0,0,0.0
3.647261674999754,60,4587.37,-53.1,1.5,-117.7,0.0,0.31,-0.27,0.01,-0.78,0.6,-128.3,0.0,-1.0,0.0,-1.03,0.0,-0.05,0.0,0.9841239759298622,0.41109609582188933,0.0058807657403946445,0.28,0,0,0.0
3.6553288939994673,61,4587.38,-53.1,1.5,-117.6,0.0,0.32,-0.2,0.01,-0.78,0.6,-128.3,0.1,2.0,0.0,-1.03,-0.01,0.09,0.0,0.9841239759298622,0.37735924528226417,0.005763150425586727,0.28,0,0,0.0
3.6672643459996834,62,4587.39,-53.1,1.5,-117.6,-0.03,0.34,-0.17,0.01,-0.79,0.6,-128.3,0.2,-2.0,0.0,-1.03,0.0,-0.03,0.0,0.9920685460188726,0.3813135192987524,0.0021377912701552315,0.28,0,0,0.0
3.675317026999437,63,4587.4,-53.1,1.5,-117.6,-0.03,0.34,-0.17,0.01,-0.79,0.6,-128.3,0.1,0.0,0.0,-1.03,0.0,0.03,0.0,0.9920685460188726,0.3813135192987524,0.0020950354447520914,0.28,0,0,0.0
3.6873914059997333,64,4587.41,-53.1,1.5,-117.5,-0.07,0.37,-0.17,0.01,-0.79,0.61,-128.3,0.0,-2.0,0.0,-1.03,0.0,-0.05,0.0,0.9981482855768475,0.41315856520227195,0.008011279502672441,0.28,0,0,0.0
3.6954089149994616,65,4587.42,-53.1,1.4,-117.5,-0.11,0.4,-0.18,0.01,-0.8,0.61,-128.3,0.0,0.0,0.0,-1.03,0.0,0.05,0.0,1.006081507632458,0.4522167621838005,0.015625611527117278,0.28,0,0,0.0
3.707320437999442,66,4587.43,-53.1,1.4,-117.5,-0.09,0.43,-0.18,0.02,-0.8,0.6,-128.3,0.1,3.0,0.0,-1.03,0.0,0.03,0.0,1.000199980003999,0.47476309881876877,0.009549202220684894,0.28,0,0,0.0
3.715393079000023,67,4587.44,-53.2,1.4,-117.4,-0.11,0.49,-0.19,0.02,-0.8,0.6,-128.3,0.0,2.0,0.0,-1.03,-0.01,0.01,0.0,1.000199980003999,0.536935750346352,0.009358218176271249,0.28,0,0,0.0
3.727284036999663,68,4587.45,-53.2,1.4,-117.4,-0.11,0.49,-0.19,0.02,-0.8,0.6,-128.3,0.1,-2.0,0.0,-1.03,0.0,0.01,0.0,1.000199980003999,0.536935750346352,0.009171053812745855,0.28,0,0,0.0
3.735256608999407,69,4587.46,-53.2,1.3,-117.3,-0.11,0.5,-0.17,0.0,-0.8,0.6,-128.3,0.1,0.0,0.0,-1.03,0.0,-0.07,0.0,1.0,0.5394441583704471,0.008791652332572064,0.28,0,0,0.0
3.7472971289998895,70,4587.47,-53.2,1.3,-117.3,-0.11,0.5,-0.17,0.0,-0.8,0.6,-128.3,-0.1,-3.0,0.0,-1.03,0.0,-0.1,0.0,1.0,0.5394441583704471,0.00861581928592059,0.28,0,0,0.0
3.755362977999539,71,4587.48,-53.2,1.3,-117.2,-0.08,0.37,-0.11,0.0,-0.79,0.6,-128.3,0.3,0.0,0.0,-1.03,0.0,0.06,0.0,0.9920181449953424,0.39420806688854043,0.0006212849956377386,0.28,0,0,0.0
3.7673081429993545,72,4587.49,-53.2,1.3,-117.1,-0.09,0.3,-0.09,0.0,-0.79,0.6,-128.3,-0.1,0.0,0.0,-1.03,0.0,0.05,0.0,0.9920181449953424,0.32588341473600646,0.0006088592957249617,0.28,0,0,0.0
3.7753080529992076,73,4587.5,-53.2,1.3,-117.1,-0.09,0.3,-0.09,0.0,-0.79,0.6,-128.3,0.1,2.0,0.0,-1.03,0.0,-0.05,0.0,0.9920181449953424,0.32588341473600646,0.0005966821098104536,0.28,0,0,0.0
3.7873969089996535,74,4587.51,-53.2,1.2,-117.1,-0.12,0.24,-0.07,0.0,-0.78,0.6,-128.3,0.0,0.0,0.0,-1.03,0.0,0.01,0.0,0.9840731680114035,0.27730849247724093,0.007201328976645827,0.28,0,0,0.0
3.7954691669992826,75,4587.52,-53.2,1.2,-117.1,-0.18,0.2,-0.05,0.0,-0.79,0.61,-128.3,0.0,-3.0,0.0,-1.03,0.01,0.08,0.0,0.9980981915623333,0.2736786436680802,0.006687220682798256,0.28,0,0,0.0
3.8072478219992263,76,4587.53,-53.2,1.2,-117.1,-0.25,0.12,-0.03,0.0,-0.79,0.6,-128.3,0.0,1.0,0.0,-1.03,0.0,-0.07,0.0,0.9920181449953424,0.27892651361962706,0.0005950306334912003,0.28,0,0,0.0
3.81538965099935,77,4587.54,-53.2,1.2,-117.0,-0.27,0.1,-0.03,0.0,-0.8,0.6,-128.3,0.0,0.0,0.0,-1.03,0.0,-0.14,0.0,1.0,0.28948229652260254,0.008405347925385831,0.28,0,0,0.0
3.8273404169995047,78,4587.55,-53.3,1.1,-117.0,-0.27,0.09,-0.05,0.0,-0.8,0.6,-128.3,0.0,3.0,0.0,-1.03,-0.01,0.0,0.0,1.0,0.2889636655359978,0.008237240966878168,0.28,0,0,0.0
3.834931657999732,79,4587.56,-53.3,1.1,-117.0,-0.27,0.06,-0.05,0.0,-0.81,0.6,-128.3,0.0,0.0,0.0,-1.03,0.0,-0.02,0.0,1.0080178569846867,0.28106938645110396,0.01592999599253353,0.28,0,0,0.0
3.847004231000028,80,4587.57,-53.3,1.1,-117.0,-0.27,0.06,-0.05,0.0,-0.81,0.6,-128.3,0.0,0.0,0.0,-1.03,0.0,-0.03,0.0,1.0080178569846867,0.28106938645110396,0.015611396072682915,0.28,0,0,0.0
3.8550940739996804,81,4587.58,-53.3,1.1,-117.0,-0.26,0.06,-0.04,0.0,-0.81,0.6,-128.3,0.1,2.0,0.0,-1.03,0.0,0.01,0.0,1.0080178569846867,0.2698147512646409,0.015299168151229225,0.28,0,0,0.0
3.866734417999396,82,4587.59,-53.4,1.1,-117.0,-0.26,0.03,-0.03,0.0,-0.81,0.59,-128.3,0.2,0.0,0.0,-1.03,0.0,0.0,0.0,1.0020977996183806,0.2634387974463898,0.009191528569224672,0.28,0,0,0.0
3.878749011999389,83,4587.6,-53.4,1.1,-117.0,-0.19,0.02,0.0,0.01,-0.81,0.59,-128.3,0.0,0.0,0.0,-1.03,0.0,0.15,0.0,1.0021476937058729,0.191049731745428,0.009056594203582513,0.28,0,0,0.0
3.886736347999431,84,4587.61,-53.4,1.1,-117.0,-0.1,0.01,0.07,0.0,-0.8,0.58,-128.3,0.1,-1.0,0.0,-1.03,0.0,0.1,0.0,0.9881295461628501,0.12247448713915891,0.004862322272651487,0.28,0,0,0.0
3.896938523999779,85,4587.62,-53.4,1.1,-117.0,-0.05,0.0,0.07,0.0,-0.81,0.59,-128.3,0.1,0.0,0.0,-1.03,0.0,-0.01,0.0,1.0020977996183806,0.08602325267042628,0.008923812559221478,0.28,0,0,0.0
3.906947110999681,86,4587.63,-53.4,1.1,-117.0,-0.05,0.0,0.07,0.0,-0.81,0.59,-128.3,0.1,2.0,0.0,-1.03,-0.02,0.07,0.0,1.0020977996183806,0.08602325267042628,0.008745336308037088,0.28,0,0,0.0
3.9148658089998207,87,4587.64,-53.4,1.0,-117.0,-0.03,-0.01,0.07,0.0,-0.8,0.59,-128.3,0.0,-1.0,0.0,-1.03,0.0,-0.04,0.0,0.994032192637643,0.07681145747868609,0.000666134740753388,0.28,0,0,0.0
3.9269861599996148,88,4587.65,-53.4,1.0,-117.0,-0.03,-0.01,0.07,0.0,-0.8,0.59,-128.3,0.3,1.0,0.0,-1.03,0.0,-0.04,0.0,0.994032192637643,0.07681145747868609,0.0006528120459383668,0.28,0,0,0.0
3.937079767999421,89,4587.66,-53.4,1.0,-117.0,0.02,-0.02,0.06,0.0,-0.81,0.58,-128.2,0.0,2.0,0.0,-1.03,-0.01,-0.01,0.0,0.9962429422585638,0.066332495807108,0.002806290433521985,0.28,0,0,0.0
3.9468246409996937,90,4587.67,-53.4,1.0,-117.0,0.05,-0.12,0.02,0.0,-0.8,0.59,-128.2,0.2,0.0,0.0,-1.03,0.0,0.01,0.0,0.994032192637643,0.13152946437965904,0.0005836299963490887,0.28,0,0,0.0
3.9586443979997057,91,4587.68,-53.4,1.0,-117.0,0.05,-0.12,0.02,0.0,-0.8,0.59,-128.2,0.0,0.0,0.0,-1.03,0.0,0.04,0.0,0.994032192637643,0.13152946437965904,0.0005719573964221292,0.28,0,0,0.0
3.97066139799972,92,4587.69,-53.4,1.0,-117.1,0.14,-0.19,0.09,0.0,-0.79,0.59,-128.2,0.3,4.0,0.0,-1.03,-0.02,0.04,0.0,0.9860020283954796,0.2525866188063018,0.007309042708826485,0.28,0,0,0.0
3.9826911939999263,93,4587.7,-53.4,1.0,-117.1,0.14,-0.19,0.09,0.0,-0.79,0.59,-128.2,0.0,-1.0,0.0,-1.03,0.0,-0.04,0.0,0.9860020283954796,0.2525866188063018,0.007162861854649982,0.28,0,0,0.0
3.99080189399956,94,4587.71,-53.4,1.0,-117.1,0.15,-0.21,0.15,0.0,-0.8,0.59,-128.2,0.0,-4.0,0.0,-1.03,0.01,-0.15,0.0,0.994032192637643,0.298496231131986,0.0008499563397631471,0.28,0,0,0.0
3.998814886999753,95,4587.72,-53.4,1.0,-117.2,0.2,-0.27,0.19,0.0,-0.79,0.59,-128.2,0.0,1.0,0.0,-1.03,-0.01,0.01,0.0,0.9860020283954796,0.38600518131237566,0.007036603744352221,0.28,0,0,0.0
4.0066456459999245,96,4587.73,-53.4,1.0,-117.2,0.2,-0.27,0.19,0.0,-0.79,0.59,-128.2,0.1,0.0,0.0,-1.03,0.0,-0.12,0.0,0.9860020283954796,0.38600518131237566,0.006895871669465148,0.28,0,0,0.0
4.016824316999191,97,4587.74,-53.3,1.0,-117.2,0.21,-0.27,0.2,0.01,-0.79,0.59,-128.2,0.0,-1.0,0.0,-1.03,0.0,-0.06,0.0,0.9860527369263776,0.396232255123179,0.006708259875795708,0.28,0,0,0.0
4.0267309079999904,98,4587.75,-53.3,1.0,-117.2,0.21,-0.27,0.2,0.01,-0.79,0.59,-128.2,0.0,0.0,0.0,-1.03,0.0,0.04,0.0,0.9860527369263776,0.396232255123179,0.0065740946782797405,0.28,0,0,0.0
4.038674503999573,99,4587.76,-53.3,1.0,-117.3,0.21,-0.27,0.19,0.02,-0.79,0.58,-128.2,0.1,-1.0,0.0,-1.03,0.0,0.1,0.0,0.9802550688468793,0.391279950930277,0.01212432750262249,0.28,0,0,0.0
4.050730248999571,100,4587.77,-53.3,1.0,-117.3,0.25,-0.22,0.13,0.01,-0.81,0.59,-128.2,0.0,2.0,0.0,-1.03,0.0,-0.01,0.0,1.0021476937058729,0.3574912586343895,0.009572931409243646,0.28,0,0,0.0
4.058742657000039,101,4587.78,-53.3,1.0,-117.3,0.25,-0.22,0.13,0.01,-0.81,0.59,-128.2,0.0,0.0,0.0,-1.03,0.0,0.16,0.0,1.0021476937058729,0.3574912586343895,0.00938147278105872,0.28,0,0,0.0
4.066697116999421,102,4587.79,-53.2,1.0,-117.4,0.35,-0.27,0.12,0.01,-0.81,0.6,-128.2,0.0,0.0,0.0,-1.03,0.0,0.1,0.0,1.0080674580602234,0.45803929962395146,0.014995212392701074,0.28,0,0,0.0
4.077076075999685,103,4587.8,-53.2,1.0,-117.4,0.35,-0.27,0.12,0.01,-0.81,0.6,-128.2,0.0,2.0,0.0,-1.03,0.0,-0.01,0.0,1.0080674580602234,0.45803929962395146,0.014695308144847097,0.28,0,0,0.0
4.087077928999861,104,4587.81,-53.2,1.0,-117.4,0.42,-0.31,0.09,0.01,-0.81,0.59,-128.2,0.0,0.0,0.0,-1.03,0.0,-0.07,0.0,1.0021476937058729,0.5297169055259611,0.008600032914686695,0.28,0,0,0.0
4.09876560199973,105,4587.82,-53.1,1.0,-117.5,0.38,-0.33,0.04,0.01,-0.8,0.59,-128.2,0.0,3.0,0.0,-1.03,-0.01,-0.07,0.0,0.9940824915468535,0.5048762224545735,0.0005241341405539668,0.28,0,0,0.0
4.110791050999978,106,4587.83,-53.1,1.0,-117.5,0.38,-0.33,0.04,0.01,-0.8,0.59,-128.2,0.0,0.0,0.0,-1.03,0.0,-0.01,0.0,0.9940824915468535,0.5048762224545735,0.0005136514577428475,0.28,0,0,0.0
4.118805090999558,107,4587.84,-53.1,1.0,-117.5,0.38,-0.3,0.03,0.01,-0.79,0.59,-128.2,0.2,1.0,0.0,-1.03,-0.01,0.04,0.0,0.9860527369263776,0.4850773134253962,0.007365781099478275,0.28,0,0,0.0
4.126799977999326,108,4587.85,-53.0,1.1,-117.5,0.35,-0.3,0.04,0.01,-0.78,0.6,-128.2,0.0,1.0,0.0,-1.03,0.0,-0.13,0.0,0.9841239759298622,0.4627094120503709,0.009108651254073785,0.28,0,0,0.0
4.138841168999534,109,4587.86,-53.0,1.1,-117.5,0.35,-0.3,0.04,0.01,-0.78,0.6,-128.2,0.0,-1.0,0.0,-1.03,0.0,0.1,0.0,0.9841239759298622,0.4627094120503709,0.008926478228992285,0.28,0,0,0.0
4.146748309999566,110,4587.87,-52.9,1.1,-117.6,0.36,-0.27,0.05,0.02,-0.78,0.6,-128.2,0.0,-2.0,0.0,-1.03,0.0,0.07,0.0,0.9842763839491426,0.45276925690687087,0.00859858880551767,0.28,0,0,0.0
4.156914246999804,111,4587.88,-52.9,1.1,-117.6,0.36,-0.27,0.05,0.02,-0.78,0.6,-128.2,-0.1,0.0,0.0,-1.03,0.0,-0.07,0.0,0.9842763839491426,0.45276925690687087,0.00842661702940728,0.28,0,0,0.0
4.166884726999342,112,4587.89,-52.8,1.1,-117.7,0.32,-0.26,0.02,0.03,-0.77,0.58,-128.2,0.0,1.0,0.0,-1.03,0.0,-0.13,0.0,0.9644687656943588,0.4127953488110059,0.027669550578507285,0.28,0,0,0.0
4.1751132709996455,113,4587.9,-52.8,1.1,-117.7,0.32,-0.26,0.02,0.03,-0.77,0.58,-128.2,0.1,0.0,0.0,-1.03,0.0,-0.13,0.0,0.9644687656943588,0.4127953488110059,0.027116159566937137,0.28,0,0,0.0
4.186687245999565,114,4587.91,-52.8,1.2,-117.7,0.36,-0.25,0.0,0.03,-0.77,0.59,-128.2,0.0,-1.0,0.0,-1.03,0.0,-0.04,0.0,0.9705153270299238,0.4382921400162225,0.020648206266744684,0.28,0,0,0.0
4.196918978999747,115,4587.92,-52.8,1.2,-117.7,0.32,-0.22,0.0,0.02,-0.78,0.59,-128.2,0.0,0.0,0.0,-1.03,0.0,0.1,0.0,0.9782126558167197,0.388329756778952,0.012691859930349825,0.28,0,0,0.0
4.206910642999901,116,4587.93,-52.7,1.2,-117.7,0.35,-0.23,-0.03,0.02,-0.78,0.58,-128.2,0.0,0.0,0.0,-1.03,0.0,0.01,0.0,0.9722139682189307,0.41988093550434036,0.018316736577576043,0.28,0,0,0.0
4.217003456999919,117,4587.94,-52.7,1.2,-117.7,0.48,-0.3,-0.09,0.02,-0.78,0.59,-128.2,0.1,1.0,0.0,-1.03,0.0,0.01,0.0,0.9782126558167197,0.573149195236284,0.012071688000191316,0.28,0,0,0.0
4.227050760999191,118,4587.95,-52.7,1.2,-117.7,0.48,-0.3,-0.09,0.02,-0.78,0.59,-128.2,-0.1,-1.0,0.0,-1.03,0.0,-0.07,0.0,0.9782126558167197,0.573149195236284,0.011830254240187466,0.28,0,0,0.0
4.235467661999792,119,4587.96,-52.6,1.3,-117.8,0.43,-0.32,-0.11,0.01,-0.78,0.59,-128.2,-0.3,0.0,0.0,-1.03,0.0,0.1,0.0,0.9780593029055038,0.5471745608121781,0.011743935008375228,0.28,0,0,0.0
4.247390599000028,120,4587.97,-52.5,1.3,-117.8,0.43,-0.33,-0.12,0.01,-0.77,0.59,-128.2,0.0,0.0,0.0,-1.03,0.0,0.04,0.0,0.9701030873056739,0.5551576352712805,0.0193061475960411,0.28,0,0,0.0
4.255472811999425,121,4587.98,-52.5,1.3,-117.8,0.43,-0.33,-0.12,0.01,-0.77,0.59,-128.2,0.0,2.0,0.0,-1.03,0.0,0.07,0.0,0.9701030873056739,0.5551576352712805,0.018920024644120237,0.28,0,0,0.0
4.267440147999878,122,4587.99,-52.4,1.4,-117.8,0.57,-0.42,-0.21,0.0,-0.78,0.59,-128.2,-0.1,-3.0,0.0,-1.03,0.01,-0.01,0.0,0.9780081799248921,0.7385120175054702,0.010794633384404007,0.28,0,0,0.0
4.275473969999439,123,4588.0,-52.4,1.4,-117.9,0.61,-0.47,-0.16,0.01,-0.77,0.6,-128.2,0.0,0.0,0.0,-1.03,0.0,0.04,0.0,0.9762171889492625,0.7865112840894274,0.012333911872832948,0.28,0,0,0.0
4.287317368000004,124,4588.01,-52.3,1.5,-117.9,0.64,-0.49,-0.14,0.01,-0.77,0.6,-128.2,-0.3,0.0,0.0,-1.03,0.0,0.07,0.0,0.9762171889492625,0.8181075723888637,0.012087233635376338,0.28,0,0,0.0
4.295514650999394,125,4588.02,-52.2,1.5,-117.9,0.66,-0.55,-0.17,0.01,-0.78,0.59,-128.2,0.0,0.0,0.0,-1.03,0.0,-0.1,0.0,0.9780593029055038,0.8757853618324527,0.010040217285552266,0.28,0,0,0.0
4.3075746639997305,126,4588.03,-52.2,1.5,-118.0,0.67,-0.6,-0.23,0.01,-0.78,0.59,-128.2,-0.3,-2.0,0.0,-1.03,0.01,0.03,0.0,0.9780593029055038,0.9283318372220141,0.009839412939841252,0.28,0,0,0.0
4.317698891999498,127,4588.04,-52.1,1.6,-118.0,0.72,-0.65,-0.3,0.0,-0.79,0.6,-128.2,-0.3,1.0,0.0,-1.03,0.0,0.04,0.0,0.9920181449953424,1.015332457867865,0.004037040566997385,0.28,0,0,0.0
4.327740772999277,128,4588.05,-52.0,1.6,-118.0,0.8,-0.73,-0.34,0.01,-0.79,0.61,-128.2,-0.1,1.0,0.0,-1.03,0.0,0.0,0.0,0.9981482855768475,1.1351211389098521,0.009963837525532537,0.28,0,0,0.0
4.335381473999405,129,4588.06,-52.0,1.7,-118.1,0.81,-0.82,-0.4,0.01,-0.79,0.61,-128.3,-0.2,1.0,0.0,-1.03,0.0,0.0,0.0,0.9981482855768475,1.2200409829181968,0.009764560775021858,0.28,0,0,0.0
4.347793338999509,130,4588.07,-51.9,1.8,-118.1,0.79,-0.9,-0.37,0.02,-0.78,0.6,-128.3,-0.2,0.0,0.0,-1.03,0.0,-0.16,0.0,0.9842763839491426,1.2533953885346796,0.004025194035629398,0.28,0,0,0.0
4.355429453999932,131,4588.08,-51.8,1.9,-118.2,0.82,-0.97,-0.37,0.02,-0.79,0.6,-128.3,-0.3,-1.0,0.0,-1.03,0.01,0.14,0.0,0.9922197337283712,1.3229512462672235,0.0038397926287272455,0.28,0,0,0.0
4.367457880999609,132,4588.09,-51.7,2.0,-118.2,0.9,-0.98,-0.38,0.02,-0.78,0.61,-128.3,0.0,6.0,0.0,-1.03,-0.01,-0.08,0.0,0.9904039579888602,1.3837629854855924,0.001983536551431797,0.28,0,0,0.0
4.375395720999222,133,4588.1,-51.6,2.1,-118.3,0.9,-0.97,-0.38,0.02,-0.77,0.61,-128.3,-0.1,-2.0,0.0,-1.03,0.01,-0.08,0.0,0.98254770876533,1.3766989503882103,0.005755258418656317,0.28,0,0,0.0
4.387918576999255,134,4588.11,-51.5,2.1,-118.3,0.86,-0.99,-0.37,0.03,-0.76,0.62,-128.3,-0.2,2.0,0.0,-1.03,0.0,0.11,0.0,0.9812746812182612,1.3625710990623572,0.0068877202464106,0.28,0,0,0.0
4.395427146999282,135,4588.12,-51.4,2.2,-118.4,0.84,-0.97,-0.37,0.05,-0.76,0.62,-128.3,-0.2,-1.0,0.0,-1.03,0.0,0.04,0.0,0.982089608946149,1.3354400023962139,0.005951336668152285,0.28,0,0,0.0
4.407698130999961,136,4588.13,-51.4,2.3,-118.4,0.81,-0.96,-0.39,0.06,-0.75,0.61,-128.3,-0.2,0.0,0.0,-1.03,0.0,-0.1,0.0,0.968607247546703,1.3152186130069783,0.01904502410624631,0.28,0,0,0.0
4.415424733999316,137,4588.14,-51.3,2.4,-118.5,0.76,-0.9,-0.4,0.07,-0.76,0.62,-128.3,-0.2,-3.0,0.0,-1.03,0.03,0.11,0.0,0.9833107342035884,1.244025723206719,0.004254706700373756,0.28,0,0,0.0
4.427858282999296,138,4588.15,-51.2,2.5,-118.5,0.63,-0.79,-0.41,0.07,-0.76,0.62,-128.3,-0.8,-2.0,0.0,-1.03,0.02,-0.23,0.0,0.9833107342035884,1.0904586191139947,0.004169612566366276,0.28,0,0,0.0
4.43530696399921,139,4588.16,-51.1,2.6,-118.6,0.49,-0.73,-0.4,0.07,-0.77,0.62,-128.3,-0.4,0.0,0.0,-1.03,0.01,0.02,0.0,0.9910600385445879,0.96591925128346,0.003508097939140531,0.28,0,0,0.0
4.447884752999926,140,4588.17,-51.1,2.7,-118.6,0.57,-0.64,-0.37,0.07,-0.76,0.61,-128.3,-0.7,1.0,0.0,-1.03,0.0,0.01,0.0,0.9770363350459388,0.9334880824091971,0.010305293448318431,0.28,0,0,0.0
4.455474798999603,141,4588.18,-51.0,2.8,-118.6,0.64,-0.6,-0.32,0.08,-0.76,0.61,-128.3,-0.1,1.0,0.0,-1.03,0.0,-0.06,0.0,0.9778036612735708,0.9338094023943002,0.009347207876272745,0.28,0,0,0.0
4.467528178000066,142,4588.19,-51.0,2.9,-118.6,0.64,-0.55,-0.33,0.07,-0.77,0.61,-128.3,0.0,0.0,0.0,-1.03,0.0,-0.08,0.0,0.9848350115628506,0.9060905032059435,0.00226954043525307,0.28,0,0,0.0
4.475483177999195,143,4588.2,-50.9,3.0,-118.6,0.63,-0.48,-0.37,0.07,-0.76,0.61,-128.3,-0.2,0.0,0.0,-1.03,0.0,0.0,0.0,0.9770363350459388,0.8741853350405736,0.00986685261312159,0.28,0,0,0.0
4.487563233999936,144,4588.21,-50.9,3.0,-118.7,0.58,-0.4,-0.34,0.06,-0.76,0.62,-128.3,-0.6,0.0,0.0,-1.03,0.0,0.12,0.0,0.9826494797230597,0.7823042886243179,0.004168633777280606,0.28,0,0,0.0
4.495479674999842,145,4588.22,-50.8,3.1,-118.7,0.52,-0.32,-0.37,0.05,-0.77,0.62,-128.3,-0.3,2.0,0.0,-1.03,0.0,-0.01,0.0,0.9898484732523458,0.7139327699440614,0.0029697525569654104,0.28,0,0,0.0
4.5075584399992294,146,4588.23,-50.8,3.1,-118.7,0.54,-0.28,-0.41,0.04,-0.77,0.62,-128.3,-0.2,0.0,0.0,-1.03,0.0,-0.07,0.0,0.9893937537704592,0.7335529974037323,0.002464732413577253,0.28,0,0,0.0
4.517391339999449,147,4588.24,-50.7,3.2,-118.7,0.56,-0.25,-0.46,0.04,-0.76,0.62,-128.3,0.0,1.0,0.0,-1.03,0.0,0.08,0.0,0.9816312953446421,0.7666159403508384,0.005191771491995123,0.28,0,0,0.0
4.527291972000057,148,4588.25,-50.6,3.2,-118.6,0.49,-0.23,-0.47,0.05,-0.75,0.63,-128.3,0.0,3.0,0.0,-1.03,0.0,0.07,0.0,0.9807650075323854,0.7168681887209113,0.005936898118166778,0.28,0,0,0.0
4.5370526110000355,149,4588.26,-50.6,3.3,-118.6,0.29,-0.23,-0.51,0.05,-0.75,0.64,-128.3,-0.2,0.0,0.0,-1.03,0.01,0.0,0.0,0.9872183142547548,0.630158710167526,0.0005060804321186385,0.28,0,0,0.0
4.547199535999425,150,4588.27,-50.5,3.3,-118.6,0.2,-0.21,-0.5,0.06,-0.74,0.65,-128.3,-0.1,0.0,0.0,-1.03,0.0,0.09,0.0,0.9867623827447011,0.578013840664737,4.9145943623596366e-05,0.28,0,0,0.0
4.554935252999712,151,4588.28,-50.5,3.4,-118.6,0.16,-0.18,-0.48,0.07,-0.74,0.64,-128.3,0.0,0.0,0.0,-1.03,0.0,-0.11,0.0,0.9808669634563089,0.5370288632839021,0.00572934787787327,0.28,0,0,0.0
4.566906476999975,152,4588.29,-50.5,3.4,-118.6,0.09,-0.14,-0.46,0.07,-0.74,0.65,-128.3,-0.2,0.0,0.0,-1.03,0.0,0.04,0.0,0.987420882906575,0.48918299234540036,0.0008080801409450222,0.28,0,0,0.0
4.577396330999363,153,4588.3,-50.5,3.5,-118.6,0.07,-0.13,-0.48,0.07,-0.76,0.66,-128.3,0.0,0.0,0.0,-1.03,0.0,-0.07,0.0,1.0090094152187083,0.5021951811795887,0.021948680204016746,0.28,0,0,0.0
4.587247004999881,154,4588.31,-50.4,3.5,-118.5,0.0,-0.09,-0.48,0.06,-0.75,0.65,-128.3,0.0,0.0,0.0,-1.03,0.0,0.0,0.0,0.9942836617384397,0.4883646178829912,0.007078468189273157,0.28,0,0,0.0
4.595014447999347,155,4588.32,-50.4,3.6,-118.5,-0.03,-0.08,-0.4,0.06,-0.75,0.64,-128.3,0.0,1.0,0.0,-1.03,0.0,-0.03,0.0,0.9877752780870759,0.4090232267243512,0.0005586828471511041,0.28,0,0,0.0
4.607274744999813,156,4588.33,-50.4,3.6,-118.5,-0.04,-0.04,-0.34,0.07,-0.75,0.63,-128.3,0.0,0.0,0.0,-1.03,0.0,0.08,0.0,0.9819877799647,0.34467375879228174,0.005124238969720252,0.28,0,0,0.0
4.615098258999751,157,4588.34,-50.4,3.7,-118.5,-0.03,0.0,-0.32,0.07,-0.76,0.62,-128.3,0.0,0.0,0.0,-1.03,0.0,0.0,0.0,0.9833107342035884,0.32140317359976395,0.003725259036215234,0.28,0,0,0.0
4.627219127999524,158,4588.35,-50.4,3.7,-118.5,-0.05,0.04,-0.37,0.07,-0.78,0.62,-128.3,0.0,0.0,0.0,-1.03,0.0,-0.04,0.0,0.9988493379884676,0.37549966711037175,0.011577077853690776,0.28,0,0,0.0
4.637323513999945,159,4588.36,-50.5,3.7,-118.4,-0.05,0.1,-0.39,0.07,-0.78,0.63,-128.3,-0.2,-1.0,0.0,-1.03,0.0,-0.01,0.0,1.005087060905671,0.4057092555020159,0.01745850475547628,0.28,0,0,0.0
4.64713838499938,160,4588.37,-50.5,3.7,-118.4,0.0,0.12,-0.41,0.07,-0.78,0.64,-128.3,0.0,-2.0,0.0,-1.03,0.01,-0.03,0.0,1.0113851887386922,0.4272001872658765,0.023281499936727568,0.28,0,0,0.0
4.65717195399975,161,4588.38,-50.4,3.8,-118.4,0.06,0.16,-0.41,0.08,-0.77,0.63,-128.3,-0.1,0.0,0.0,-1.03,0.0,0.1,0.0,0.9980981915623331,0.44418464629025617,0.009794612705161132,0.28,0,0,0.0
4.6672731869994095,162,4588.39,-50.4,3.8,-118.3,0.04,0.21,-0.42,0.08,-0.77,0.64,-128.3,0.0,1.0,0.0,-1.03,0.0,0.08,0.0,1.0044401425669924,0.4712748667179271,0.015813832435624064,0.28,0,0,0.0
4.678974305999873,163,4588.4,-50.4,3.8,-118.3,-0.08,0.23,-0.44,0.07,-0.77,0.65,-128.3,-0.1,-3.0,0.0,-1.03,0.01,0.08,0.0,1.010099005048515,0.5028916384272063,0.021043241018803727,0.28,0,0,0.0
4.6866975289995025,164,4588.41,-50.4,3.8,-118.2,-0.13,0.27,-0.42,0.07,-0.77,0.66,-128.3,0.0,-3.0,0.0,-1.03,0.01,0.0,0.0,1.0165628362280417,0.5159457335805773,0.026956930754363784,0.28,0,0,0.0
4.697117003999665,165,4588.42,-50.4,3.9,-118.2,-0.09,0.29,-0.39,0.07,-0.77,0.65,-128.3,0.1,1.0,0.0,-1.03,0.0,-0.02,0.0,1.010099005048515,0.4942671342502959,0.020083237583340408,0.28,0,0,0.0
4.707260836999922,166,4588.43,-50.4,3.9,-118.1,-0.06,0.33,-0.36,0.07,-0.77,0.65,-128.3,0.0,-1.0,0.0,-1.03,0.0,-0.07,0.0,1.010099005048515,0.49203658400570177,0.0196815728316736,0.28,0,0,0.0
4.717173710999305,167,4588.44,-50.4,3.9,-118.1,-0.03,0.36,-0.34,0.06,-0.78,0.66,-128.3,0.0,0.0,0.0,-1.03,0.0,-0.06,0.0,1.023523326553919,0.4960846701924985,0.032443776450336026,0.28,0,0,0.0
4.727373471999272,168,4588.45,-50.4,3.9,-118.0,0.01,0.35,-0.33,0.05,-0.78,0.66,-128.3,-0.1,-1.0,0.0,-1.03,0.0,0.0,0.0,1.022985825903761,0.4811444689487763,0.03126815028417451,0.28,0,0,0.0
4.737178918999234,169,4588.46,-50.4,3.9,-118.0,0.06,0.31,-0.3,0.05,-0.77,0.66,-128.3,0.1,0.0,0.0,-1.03,0.0,0.0,0.0,1.0153817016275208,0.43554563480765135,0.023190745487775666,0.28,0,0,0.0
4.747254368999165,170,4588.47,-50.4,3.9,-117.9,0.12,0.23,-0.27,0.06,-0.76,0.65,-128.3,-0.1,1.0,0.0,-1.03,0.0,-0.01,0.0,1.0018482919085105,0.3744329045369811,0.009464189053390082,0.28,0,0,0.0
4.757005785999354,171,4588.48,-50.4,3.9,-117.9,0.12,0.19,-0.24,0.06,-0.76,0.64,-128.3,0.1,3.0,0.0,-1.03,0.0,-0.01,0.0,0.9953893710503443,0.3287856444554719,0.0029451628313194034,0.28,0,0,0.0
4.7670459679993655,172,4588.49,-50.3,3.9,-117.9,0.12,0.18,-0.2,0.05,-0.76,0.63,-128.3,0.0,3.0,0.0,-1.03,0.0,0.0,0.0,0.9884331034521254,0.2946183972531247,0.0039308826715614975,0.28,0,0,0.0
4.777131236000059,173,4588.5,-50.3,3.9,-117.8,0.15,0.17,-0.16,0.05,-0.76,0.63,-128.3,0.0,-3.0,0.0,-1.03,0.0,0.02,0.0,0.9884331034521254,0.27748873851023215,0.0038522650181302964,0.28,0,0,0.0
4.787284725000063,174,4588.51,-50.3,3.9,-117.8,0.16,0.14,-0.11,0.05,-0.76,0.64,-128.3,0.0,-1.0,0.0,-1.03,0.0,0.01,0.0,0.994836670011716,0.23937418407171648,0.0025002755106311447,0.28,0,0,0.0
4.799036531999263,175,4588.52,-50.3,3.9,-117.8,0.13,0.11,-0.1,0.04,-0.78,0.64,-128.3,0.0,0.0,0.0,-1.03,0.0,0.01,0.0,1.009752444909147,0.197484176581315,0.017067729399900866,0.28,0,0,0.0
4.806769893999444,176,4588.53,-50.3,3.8,-117.8,0.22,0.08,-0.08,0.05,-0.76,0.63,-128.3,0.0,0.0,0.0,-1.03,0.0,0.01,0.0,0.9884331034521254,0.24738633753705963,0.004166579815978344,0.28,0,0,0.0
4.817411918999824,177,4588.54,-50.3,3.8,-117.8,0.17,0.04,-0.09,0.04,-0.77,0.65,-128.3,0.0,-1.0,0.0,-1.03,0.0,-0.01,0.0,1.0084641788382966,0.19646882704388502,0.015547205658788976,0.28,0,0,0.0
4.827279642999201,178,4588.55,-50.2,3.8,-117.8,0.25,0.03,-0.04,0.06,-0.74,0.64,-128.3,0.0,1.0,0.0,-1.03,0.0,0.02,0.0,0.9802040603874278,0.25495097567963926,0.01245865453623829,0.28,0,0,0.0
4.838751562999278,179,4588.56,-50.2,3.8,-117.8,0.24,-0.02,0.0,0.07,-0.74,0.64,-128.3,0.0,0.0,0.0,-1.03,0.0,0.07,0.0,0.9808669634563089,0.2408318915758459,0.011559836438010063,0.28,0,0,0.0
4.847409697999865,180,4588.57,-50.2,3.8,-117.8,0.17,0.02,0.02,0.07,-0.75,0.64,-128.3,-0.1,-4.0,0.0,-1.03,0.0,0.01,0.0,0.9884331034521254,0.17233687939614087,0.003913822513349596,0.28,0,0,0.0
4.855298689999472,181,4588.58,-50.1,3.8,-117.8,0.07,0.06,0.01,0.07,-0.74,0.63,-128.3,0.0,2.0,0.0,-1.03,0.0,-0.11,0.0,0.9743715923609432,0.09273618495495704,0.017615826932441236,0.28,0,0,0.0
4.867399232000025,182,4588.59,-50.1,3.8,-117.8,-0.07,0.02,-0.07,0.06,-0.79,0.64,-128.3,0.0,-1.0,0.0,-1.03,0.0,-0.07,0.0,1.0184792585025972,0.10099504938362078,0.025962002425028552,0.28,0,0,0.0
4.875381898999876,183,4588.6,-50.1,3.8,-117.8,0.0,0.0,-0.1,0.05,-0.77,0.64,-128.3,0.1,0.0,0.0,-1.03,0.02,-0.09,0.0,1.002496882788171,0.1,0.009780034176390284,0.28,0,0,0.0
4.887656104999223,184,4588.61,-50.1,3.8,-117.8,0.06,-0.09,-0.06,0.06,-0.77,0.64,-128.3,0.0,0.0,0.0,-1.03,0.0,-0.11,0.0,1.0030453628824572,0.1236931687685298,0.010121943985262893,0.28,0,0,0.0
4.8953830459995515,185,4588.62,-50.1,3.8,-117.8,0.07,-0.1,0.01,0.06,-0.77,0.63,-128.3,0.0,1.0,0.0,-1.03,0.0,-0.01,0.0,0.9966945369570358,0.12247448713915891,0.0036956956986446965,0.28,0,0,0.0
4.90757335499984,186,4588.63,-50.1,3.8,-117.8,0.13,-0.13,0.04,0.06,-0.77,0.63,-128.3,0.0,-1.0,0.0,-1.03,0.02,0.02,0.0,0.9966945369570358,0.1881488772222678,0.0036217817846717626,0.28,0,0,0.0
4.917459174999749,187,4588.64,-50.1,3.9,-117.8,0.13,-0.12,0.07,0.07,-0.76,0.64,-128.3,0.0,0.0,0.0,-1.03,0.0,-0.11,0.0,0.9960421677820673,0.1902629759044045,0.0029100243575092,0.28,0,0,0.0
4.927512818999276,188,4588.65,-50.1,3.9,-117.8,0.07,-0.08,0.08,0.08,-0.76,0.63,-128.3,0.0,0.0,0.0,-1.03,0.0,0.06,0.0,0.9904039579888602,0.13304134695650072,0.0026736217269840434,0.28,0,0,0.0
4.935531308999998,189,4588.66,-50.1,3.9,-117.8,0.01,-0.03,0.06,0.08,-0.77,0.63,-128.3,0.0,0.0,0.0,-1.03,0.0,-0.01,0.0,0.9980981915623331,0.06782329983125268,0.004920199609559139,0.28,0,0,0.0
4.947489536999456,190,4588.67,-50.1,3.9,-117.8,-0.06,0.01,0.03,0.07,-0.78,0.64,-128.3,0.0,-1.0,0.0,-1.03,0.0,0.05,0.0,1.0113851887386922,0.06782329983125268,0.017843052850199825,0.28,0,0,0.0
4.955461396999453,191,4588.68,-50.1,3.9,-117.8,-0.05,0.01,0.01,0.07,-0.78,0.64,-128.3,0.0,-1.0,0.0,-1.03,0.0,0.0,0.0,1.0113851887386922,0.05196152422706632,0.017486191793195882,0.28,0,0,0.0
4.967458194999381,192,4588.69,-50.1,3.9,-117.8,0.0,0.0,0.0,0.07,-0.78,0.64,-128.3,-0.2,-1.0,0.0,-1.03,0.0,0.1,0.0,1.0113851887386922,0.0,0.017136467957331925,0.28,0,0,0.0
4.977569915999993,193,4588.7,-50.1,3.9,-117.8,0.02,-0.01,0.04,0.07,-0.77,0.64,-128.3,0.0,1.0,0.0,-1.03,0.0,-0.07,0.0,1.0036931802099684,0.045825756949558406,0.009255570240035982,0.28,0,0,0.0
4.987623472999985,194,4588.71,-50.1,3.9,-117.8,0.03,-0.02,0.08,0.06,-0.77,0.64,-128.3,0.1,1.0,0.0,-1.03,0.0,-0.11,0.0,1.0030453628824572,0.08774964387392122,0.008435597854274168,0.28,0,0,0.0
4.995565569000064,195,4588.72,-50.1,3.9,-117.8,0.04,-0.04,0.1,0.07,-0.77,0.63,-128.3,0.0,2.0,0.0,-1.03,0.0,0.09,0.0,0.9973464794142505,0.11489125293076058,0.0026819800983460818,0.28,0,0,0.0
5.007662961999813,196,4588.73,-50.1,3.9,-117.8,0.05,-0.09,0.1,0.06,-0.78,0.63,-128.3,-0.2,-1.0,0.0,-1.03,-0.02,0.02,0.0,1.0044401425669924,0.14352700094407325,0.00958013038606631,0.28,0,0,0.0
5.015414917999806,197,4588.74,-50.1,3.9,-117.9,0.07,-0.11,0.1,0.06,-0.77,0.63,-128.3,0.0,-3.0,0.0,-1.03,0.0,0.06,0.0,0.9966945369570358,0.16431676725154984,0.0017978342805874403,0.28,0,0,0.0
5.027290684000036,198,4588.75,-50.1,3.8,-117.9,0.07,-0.17,0.12,0.06,-0.77,0.63,-128.3,0.1,4.0,0.0,-1.03,0.0,-0.03,0.0,0.9966945369570358,0.2195449840010015,0.0017618775949757026,0.28,0,0,0.0
5.035176577999664,199,4588.76,-50.1,3.9,-117.9,0.14,-0.21,0.13,0.07,-0.76,0.63,-128.3,-0.2,-1.0,0.0,-1.03,0.0,0.01,0.0,0.9896464014990405,0.2839013913315678,0.005180532705759244,0.28,0,0,0.0
5.047290386999521,200,4588.77,-50.1,3.9,-117.9,0.13,-0.22,0.17,0.07,-0.76,0.63,-128.3,0.0,-3.0,0.0,-1.03,0.0,-0.05,0.0,0.9896464014990405,0.3069201850644561,0.005076922051644006,0.28,0,0,0.0
5.057086257999799,201,4588.78,-50.1,3.9,-118.0,0.09,-0.21,0.21,0.07,-0.76,0.64,-128.3,0.0,1.0,0.0,-1.03,0.0,0.1,0.0,0.9960421677820673,0.31032241298365804,0.001292467346755144,0.28,0,0,0.0
5.067100657999617,202,4588.79,-50.1,3.9,-118.0,0.06,-0.2,0.23,0.06,-0.76,0.63,-128.3,0.0,4.0,0.0,-1.03,0.0,0.04,0.0,0.9889893831583836,0.31064449134018135,0.005645110931390085,0.28,0,0,0.0
5.077257991999431,203,4588.8,-50.1,3.8,-118.0,0.07,-0.24,0.21,0.05,-0.75,0.65,-128.3,0.1,0.0,0.0,-1.03,0.0,-0.07,0.0,0.9937303457175896,0.32649655434629016,0.0008860654047404548,0.28,0,0,0.0
5.086934128999928,204,4588.81,-50.1,3.8,-118.1,0.11,-0.19,0.26,0.06,-0.75,0.64,-128.3,0.0,0.0,0.0,-1.03,0.0,0.0,0.0,0.9877752780870759,0.34029399054347115,0.006704310374548994,0.28,0,0,0.0
5.097295488999407,205,4588.82,-50.1,3.8,-118.1,0.06,-0.21,0.24,0.07,-0.75,0.62,-128.3,0.0,-1.0,0.0,-1.03,0.0,-0.07,0.0,0.975602378020882,0.32449961479175904,0.018499666231928003,0.28,0,0,0.0
5.107161174999419,206,4588.83,-50.1,3.8,-118.1,-0.02,-0.19,0.24,0.06,-0.76,0.62,-128.3,0.0,0.0,0.0,-1.03,0.0,-0.04,0.0,0.9826494797230597,0.30675723300355934,0.01122351323915527,0.28,0,0,0.0
5.117204288999346,207,4588.84,-50.1,3.8,-118.2,-0.03,-0.17,0.24,0.06,-0.77,0.63,-128.3,0.0,0.0,0.0,-1.03,0.0,-0.07,0.0,0.9966945369570358,0.2956349099818897,0.0027651131149244446,0.28,0,0,0.0
5.1272852849997435,208,4588.85,-50.1,3.8,-118.2,0.06,-0.21,0.26,0.07,-0.77,0.64,-128.3,0.0,-1.0,0.0,-1.03,0.0,0.04,0.0,1.0036931802099684,0.3395585369269929,0.009568481240499915,0.28,0,0,0.0
5.135081734999403,209,4588.86,-50.1,3.8,-118.2,0.11,-0.24,0.28,0.07,-0.77,0.63,-128.3,0.0,0.0,0.0,-1.03,0.0,0.1,0.0,0.9973464794142505,0.38483762809787714,0.0031573448358862555,0.28,0,0,0.0
5.147261766999691,210,4588.87,-50.1,3.8,-118.3,0.13,-0.19,0.3,0.07,-0.76,0.63,-128.3,0.0,-1.0,0.0,-1.03,0.0,0.01,0.0,0.9896464014990405,0.3781534080237808,0.004451878417737309,0.28,0,0,0.0
5.157217185999798,211,4588.88,-50.1,3.8,-118.3,0.08,-0.16,0.3,0.07,-0.76,0.63,-128.3,0.0,1.0,0.0,-1.03,-0.01,0.01,0.0,0.9896464014990405,0.3492849839314596,0.004362840849382543,0.28,0,0,0.0
5.167272445999515,212,4588.89,-50.1,3.8,-118.3,0.01,-0.15,0.29,0.07,-0.76,0.64,-128.3,0.0,0.0,0.0,-1.03,0.0,0.01,0.0,0.9960421677820673,0.3266496594212215,0.001992266924971453,0.28,0,0,0.0
5.177320015999612,213,4588.9,-50.1,3.8,-118.4,0.0,-0.16,0.29,0.07,-0.76,0.63,-128.3,0.2,4.0,0.0,-1.03,0.01,0.01,0.0,0.9896464014990405,0.33120990323358385,0.0043154293708942415,0.28,0,0,0.0
5.187291761999404,214,4588.91,-50.1,3.8,-118.4,0.0,-0.15,0.3,0.07,-0.76,0.63,-128.3,-0.2,-1.0,0.0,-1.03,0.0,-0.19,0.0,0.9896464014990405,0.33541019662496846,0.00422912078347637,0.28,0,0,0.0
5.198953593999249,215,4588.92,-50.1,3.8,-118.4,0.04,-0.1,0.32,0.08,-0.76,0.62,-128.3,0.0,1.0,0.0,-1.03,0.0,0.2,0.0,0.9840731680114034,0.33763886032268264,0.00960630718569111,0.28,0,0,0.0
5.206946715999948,216,4588.93,-50.1,3.8,-118.4,0.05,-0.07,0.32,0.08,-0.76,0.63,-128.3,0.0,0.0,0.0,-1.03,0.0,-0.12,0.0,0.9904039579888602,0.3313608305156178,0.003210006864069692,0.28,0,0,0.0
5.218964858999243,217,4588.94,-50.1,3.8,-118.5,-0.04,-0.05,0.3,0.06,-0.78,0.63,-128.3,0.0,1.0,0.0,-1.03,0.0,-0.08,0.0,1.0044401425669924,0.30675723300355934,0.010609654159781323,0.28,0,0,0.0
5.226944713999728,218,4588.95,-50.1,3.7,-118.5,-0.08,-0.02,0.27,0.06,-0.78,0.62,-128.3,0.0,1.0,0.0,-1.03,0.0,-0.07,0.0,0.9981983770774225,0.2823118842698621,0.004280530896807244,0.28,0,0,0.0
5.238781580999785,219,4588.96,-50.1,3.7,-118.5,-0.04,-0.02,0.25,0.06,-0.78,0.63,-128.3,0.0,0.0,0.0,-1.03,0.0,-0.07,0.0,1.0044401425669924,0.2539685019840059,0.010311850458649574,0.28,0,0,0.0
5.247065336999185,220,4588.97,-50.1,3.7,-118.5,-0.02,-0.09,0.23,0.06,-0.79,0.64,-128.3,0.0,2.0,0.0,-1.03,0.0,0.08,0.0,1.0184792585025972,0.24779023386727736,0.023863947066369295,0.28,0,0,0.0
5.257119440999304,221,4588.98,-50.1,3.7,-118.6,0.03,-0.13,0.22,0.07,-0.78,0.64,-128.3,0.0,0.0,0.0,-1.03,0.0,0.12,0.0,1.0113851887386922,0.25729360660537215,0.016434479756414988,0.28,0,0,0.0
5.26699697299955,222,4588.99,-50.1,3.7,-118.6,0.07,-0.14,0.24,0.07,-0.78,0.65,-128.3,0.0,-3.0,0.0,-1.03,0.0,-0.06,0.0,1.017742600071354,0.2865309756378881,0.022336053267295375,0.28,0,0,0.0
5.277235304999522,223,4589.0,-50.1,3.7,-118.6,0.07,-0.14,0.24,0.07,-0.78,0.65,-128.3,-0.1,1.0,0.0,-1.03,-0.01,0.01,0.0,1.017742600071354,0.2865309756378881,0.02188933220194944,0.28,0,0,0.0
5.28719668299982,224,4589.01,-50.1,3.7,-118.6,-0.05,-0.13,0.22,0.06,-0.78,0.66,-128.3,0.0,0.0,0.0,-1.03,0.0,-0.01,0.0,1.023523326553919,0.2603843313258307,0.027116657510824038,0.28,0,0,0.0
5.297183530999973,225,4589.02,-50.1,3.7,-118.7,-0.1,-0.12,0.19,0.08,-0.78,0.66,-128.3,0.0,0.0,0.0,-1.03,0.0,0.11,0.0,1.0248902380255165,0.24596747752497686,0.027913897602773075,0.28,0,0,0.0
5.307272489999377,226,4589.03,-50.1,3.7,-118.7,-0.13,-0.1,0.2,0.09,-0.78,0.65,-128.3,0.0,0.0,0.0,-1.03,0.0,-0.13,0.0,1.0193134944657607,0.2586503431275513,0.021890410962156936,0.28,0,0,0.0
5.3172924079999575,227,4589.04,-50.2,3.7,-118.7,-0.2,-0.05,0.23,0.09,-0.79,0.64,-128.3,0.0,0.0,0.0,-1.03,0.0,0.0,0.0,1.0206860437960343,0.30886890422961005,0.022797701086581967,0.28,0,0,0.0
5.327295688000049,228,4589.05,-50.2,3.7,-118.7,-0.22,0.02,0.29,0.09,-0.8,0.65,-128.3,0.0,0.0,0.0,-1.03,0.0,-0.04,0.0,1.034698023579827,0.36455452267116367,0.03607348725296722,0.28,0,0,0.0
5.337363946999176,229,4589.06,-50.2,3.6,-118.7,-0.16,0.06,0.35,0.09,-0.81,0.66,-128.3,0.1,0.0,0.0,-1.03,0.0,0.03,0.0,1.0487134975769121,0.3894868418830089,0.049087182025051246,0.28,0,0,0.0
5.3474250819999725,230,4589.07,-50.2,3.6,-118.8,-0.11,0.1,0.42,0.08,-0.8,0.66,-128.3,-0.1,0.0,0.0,-1.03,0.0,0.12,0.0,1.0401922899156675,0.44553338819890925,0.039754654876530404,0.28,0,0,0.0
5.357649197999308,231,4589.08,-50.3,3.6,-118.8,-0.16,0.14,0.46,0.07,-0.8,0.67,-128.3,0.1,0.0,0.0,-1.03,0.0,0.0,0.0,1.0458489374665925,0.5067543783727971,0.04450307637890627,0.28,0,0,0.0
5.367576026999814,232,4589.09,-50.3,3.5,-118.8,-0.24,0.17,0.48,0.07,-0.81,0.67,-128.3,-0.1,3.0,0.0,-1.03,0.0,0.0,0.0,1.0535179163165664,0.5629387178015028,0.051128614124302585,0.28,0,0,0.0
5.375341088999448,233,4589.1,-50.3,3.5,-118.8,-0.3,0.2,0.47,0.06,-0.81,0.67,-128.3,-0.1,2.0,0.0,-1.03,0.0,-0.07,0.0,1.0529007550571898,0.5923681287847954,0.04950122380762756,0.28,0,0,0.0
5.387560722999297,234,4589.11,-50.3,3.5,-118.8,-0.3,0.2,0.48,0.06,-0.81,0.67,-128.3,0.2,6.0,0.0,-1.03,-0.02,0.02,0.0,1.0529007550571898,0.6003332407921453,0.048511199331475074,0.28,0,0,0.0
5.395246870999472,235,4589.12,-50.4,3.4,-118.8,-0.28,0.19,0.47,0.07,-0.82,0.66,-128.3,-0.1,1.0,0.0,-1.03,0.0,0.09,0.0,1.0549407566304376,0.5791372894228104,0.04954017688662837,0.28,0,0,0.0
5.407592764999208,236,4589.13,-50.4,3.4,-118.9,-0.27,0.19,0.45,0.07,-0.81,0.66,-128.3,0.0,-2.0,0.0,-1.03,0.0,0.09,0.0,1.0471867073258714,0.558121850495033,0.0409504050304208,0.28,0,0,0.0
5.415438060999804,237,4589.14,-50.4,3.3,-118.9,-0.29,0.22,0.45,0.07,-0.81,0.65,-128.3,0.1,0.0,0.0,-1.03,0.0,-0.1,0.0,1.0409130607308184,0.5787918451395113,0.03398322326666037,0.28,0,0,0.0
5.4274084569997285,238,4589.15,-50.5,3.3,-118.9,-0.33,0.26,0.44,0.07,-0.8,0.65,-128.3,0.0,1.0,0.0,-1.03,0.0,-0.04,0.0,1.0331505214633538,0.6083584469702052,0.025696270319211845,0.28,0,0,0.0
5.437586057999397,239,4589.16,-50.5,3.2,-118.9,-0.43,0.31,0.46,0.06,-0.8,0.65,-128.3,0.0,0.0,0.0,-1.03,0.0,0.01,0.0,1.0325211862233143,0.7018546858146635,0.024565596377588816,0.28,0,0,0.0
5.447287801999664,240,4589.17,-50.6,3.2,-118.9,-0.49,0.36,0.48,0.06,-0.79,0.65,-128.3,-0.1,2.0,0.0,-1.03,-0.01,0.02,0.0,1.0247926619565542,0.7746612162745725,0.016500330668612007,0.28,0,0,0.0
5.457508563999909,241,4589.18,-50.6,3.1,-118.9,-0.52,0.39,0.51,0.07,-0.78,0.65,-128.3,0.0,0.0,0.0,-1.03,0.0,0.02,0.0,1.017742600071354,0.826196102629394,0.00926126340774358,0.28,0,0,0.0
5.4677775169993765,242,4589.19,-50.7,3.1,-118.9,-0.58,0.42,0.54,0.06,-0.78,0.64,-128.3,0.0,0.0,0.0,-1.03,0.0,0.12,0.0,1.0107423014794623,0.8968834929911466,0.0022157455195348508,0.28,0,0,0.0
5.4754855519995544,243,4589.2,-50.7,3.0,-118.9,-0.71,0.44,0.57,0.06,-0.77,0.64,-128.3,0.1,2.0,0.0,-1.03,-0.01,-0.06,0.0,1.0030453628824572,1.011236866416568,0.005371569215920857,0.28,0,0,0.0
5.487335250999422,244,4589.21,-50.8,2.9,-118.9,-0.84,0.45,0.61,0.05,-0.77,0.64,-128.3,0.0,0.0,0.0,-1.03,0.0,-0.06,0.0,1.002496882788171,1.1314592347937242,0.005801648324002873,0.28,0,0,0.0
5.495540608999363,245,4589.22,-50.9,2.8,-118.9,-0.92,0.46,0.65,0.05,-0.76,0.63,-128.3,0.0,-1.0,0.0,-1.03,0.0,0.02,0.0,0.9884331034521254,1.2167579874403949,0.019468119106847537,0.28,0,0,0.0
5.507701970999733,246,4589.23,-51.0,2.8,-118.9,-0.99,0.48,0.68,0.05,-0.77,0.62,-128.3,0.1,0.0,0.0,-1.03,0.0,0.09,0.0,0.9898484732523458,1.2934063553268942,0.017691694320494555,0.28,0,0,0.0
5.515526168999713,247,4589.24,-51.1,2.7,-118.9,-1.1,0.56,0.7,0.05,-0.77,0.61,-128.3,0.1,5.0,0.0,-1.03,-0.02,-0.1,0.0,0.9836157786453,1.419013742005341,0.02344590114898948,0.28,0,0,0.0
5.52764346099957,248,4589.25,-51.2,2.6,-118.9,-1.25,0.58,0.68,0.04,-0.77,0.61,-128.3,0.1,2.0,0.0,-1.03,-0.01,0.09,0.0,0.9831581764904364,1.5366522052826397,0.023425433237776017,0.28,0,0,0.0
5.537541317999967,249,4589.26,-51.3,2.5,-118.9,-1.37,0.63,0.67,0.03,-0.77,0.62,-128.3,1.2,5.0,0.0,-1.03,-0.03,0.0,0.0,0.9890399385262457,1.650060604947588,0.01719279777792726,0.28,0,0,0.0
5.547424275999219,250,4589.27,-51.5,2.4,-118.9,-1.47,0.64,0.66,0.03,-0.77,0.61,-128.3,0.7,0.0,0.0,-1.03,-0.02,-0.03,0.0,0.9828021163998376,1.7338108316653233,0.02296200750624877,0.28,0,0,0.0
5.557802134999292,251,4589.28,-51.6,2.3,-118.9,-1.56,0.65,0.67,0.03,-0.77,0.61,-128.3,0.5,-3.0,0.0,-1.03,0.0,-0.03,0.0,0.9828021163998376,1.8179658962697842,0.022502767356123887,0.28,0,0,0.0
5.567546880999544,252,4589.29,-51.8,2.2,-118.9,-1.64,0.69,0.67,0.03,-0.77,0.61,-128.3,1.5,5.0,0.0,-1.03,-0.04,-0.01,0.0,0.9828021163998376,1.901210140936556,0.022052712009001385,0.28,0,0,0.0
5.575237641000058,253,4589.3,-52.0,2.1,-118.9,-1.74,0.72,0.68,0.04,-0.77,0.61,-128.2,1.2,-3.0,0.0,-1.03,-0.02,-0.04,0.0,0.9831581764904364,2.002098898656108,0.021262718880034615,0.28,0,0,0.0
5.587573676999455,254,4589.31,-52.1,2.0,-118.8,-1.86,0.78,0.68,0.04,-0.78,0.61,-128.2,0.8,-4.0,0.0,-1.03,0.0,-0.23,0.0,0.9910095862301233,2.1284736315021617,0.013143082957540853,0.28,0,0,0.0
5.597111271999893,255,4589.32,-52.3,1.9,-118.8,-1.96,0.83,0.66,0.04,-0.78,0.6,-128.2,0.5,-2.0,0.0,-1.03,0.0,-0.17,0.0,0.9848857801796105,2.228474814755599,0.01888155122789259,0.28,0,0,0.0
5.607235004999893,256,4589.33,-52.5,1.8,-118.8,-2.01,0.87,0.64,0.04,-0.78,0.6,-128.2,0.8,5.0,0.0,-1.03,-0.03,0.07,0.0,0.9848857801796105,2.281797537030838,0.0185039202033348,0.28,0,0,0.0
5.617422128999351,257,4589.34,-52.7,1.7,-118.8,-2.08,0.9,0.63,0.03,-0.79,0.59,-128.2,2.0,9.0,0.0,-1.03,-0.06,0.04,0.0,0.986458311334037,2.352296749987127,0.016592761267929967,0.28,0,0,0.0
5.627279730999362,258,4589.35,-53.0,1.6,-118.7,-2.18,0.94,0.62,0.01,-0.79,0.59,-128.2,3.4,9.0,0.0,-1.03,-0.09,0.0,0.0,0.9860527369263776,2.4536503418376467,0.01665836896207762,0.28,0,0,0.0
5.637193625999316,259,4589.36,-53.2,1.5,-118.7,-2.24,0.93,0.64,0.01,-0.79,0.59,-128.1,3.5,5.0,-0.010000000000000009,-1.04,-0.09,-0.19,0.0,0.9860527369263776,2.5084058682757067,0.016325201582836124,0.28,0,0,0.0
5.647311918999549,260,4589.37,-53.4,1.4,-118.6,-2.26,0.88,0.65,0.0,-0.79,0.59,-128.1,3.9,2.0,-0.010000000000000009,-1.04,-0.1,0.08,0.0,0.9860020283954796,2.5108763410411115,0.01604839191145957,0.28,0,0,0.0
5.657411119999779,261,4589.38,-53.6,1.3,-118.6,-2.25,0.84,0.67,0.0,-0.8,0.59,-128.1,4.6,6.0,-0.010000000000000009,-1.04,-0.12,0.06,0.0,0.994032192637643,2.4933912649241394,0.007857863115910302,0.28,0,0,0.0
5.667255133999788,262,4589.39,-53.8,1.2,-118.6,-2.32,0.76,0.66,0.0,-0.8,0.59,-128.0,8.6,45.0,-0.010000000000000009,-1.04,-0.33,0.0,0.0,0.994032192637643,2.5289523522597257,0.00770070585359206,0.28,0,0,0.0
5.677235331999327,263,4589.4,-54.1,1.1,-118.6,-2.33,0.67,0.66,0.0,-0.8,0.58,-127.8,18.1,78.0,-0.020000000000000018,-1.05,-0.6,-0.28,0.0,0.9881295461628501,2.5126480055909144,0.013331285281817262,0.28,0,0,0.0
5.6872655379993375,264,4589.41,-54.3,0.9,-118.6,-2.3,0.6,0.65,0.0,-0.81,0.58,-127.6,26.7,77.0,-0.020000000000000018,-1.05,-0.81,0.0,0.0,0.9962429422585638,2.4642443060703214,0.005113531402381466,0.28,0,0,0.0
5.697282180000002,265,4589.42,-54.5,0.9,-118.6,-2.25,0.57,0.66,0.0,-0.81,0.56,-127.3,35.6,93.0,-0.030000000000000027,-1.06,-1.09,-0.02,0.0,0.9847334664770971,2.4130893062628247,0.016290547040171188,0.28,0,0,0.0
5.707293593000031,266,4589.43,-54.8,0.8,-118.5,-2.33,0.58,0.63,0.0,-0.82,0.57,-126.8,46.8,97.0,-0.050000000000000044,-1.08,-1.38,-0.07,0.0,0.9986490875177325,2.482377892263787,0.0023274274795450633,0.28,0,0,0.0
5.717283662999762,267,4589.44,-55.0,0.7,-118.5,-2.39,0.58,0.58,0.0,-0.82,0.56,-126.3,56.8,103.0,-0.06000000000000005,-1.09,-1.68,0.03,0.0,0.9929753269845127,2.5268359661837967,0.00784116425250958,0.28,0,0,0.0
5.7273200489999,268,4589.45,-55.3,0.6,-118.5,-2.35,0.55,0.56,0.0,-0.82,0.56,-125.7,68.0,114.0,-0.08000000000000007,-1.11,-1.99,-0.08,0.0,0.9929753269845127,2.477619825558393,0.007684340967459402,0.28,0,0,0.0
5.7371325009999055,269,4589.46,-55.5,0.5,-118.5,-2.27,0.54,0.58,0.02,-0.81,0.56,-124.9,79.0,102.0,-0.09999999999999987,-1.13,-2.25,-0.05,0.0,0.9849365461794989,2.4043502240730237,0.015408659337023844,0.28,0,0,0.0
5.747243379999418,270,4589.47,-55.7,0.4,-118.5,-2.2,0.52,0.6,0.03,-0.81,0.54,-124.0,86.7,71.0,-0.1299999999999999,-1.16,-2.4,0.0,0.0,0.9739609848448757,2.3388886249669953,0.025856536258214047,0.28,0,0,0.0
5.75737899699925,271,4589.48,-55.9,0.4,-118.5,-2.16,0.6,0.61,0.04,-0.81,0.53,-123.2,85.8,-3.0,-0.1499999999999999,-1.18,-2.25,0.0,0.0,0.9688137075826292,2.3232950738121922,0.03038373725005139,0.28,0,0,0.0
5.767170707999867,272,4589.49,-56.2,0.3,-118.5,-2.22,0.7,0.62,0.04,-0.81,0.53,-122.4,74.6,-101.0,-0.16999999999999993,-1.2,-1.81,-0.05,0.0,0.9688137075826292,2.408900163975253,0.029776062505050382,0.28,0,0,0.0
5.777391830999477,273,4589.5,-56.4,0.2,-118.4,-2.29,0.78,0.63,0.02,-0.82,0.53,-121.8,55.0,-171.0,-0.17999999999999994,-1.21,-1.24,0.08,0.0,0.9765756499114648,2.499879997119862,0.021573837772690396,0.28,0,0,0.0
5.787159937999604,274,4589.51,-56.6,0.2,-118.4,-2.41,0.8,0.6,0.0,-0.84,0.53,-121.4,28.1,-262.0,-0.18999999999999995,-1.22,-0.36,-0.01,0.0,0.9932270636667125,2.6092336039534674,0.004823975537093794,0.28,0,0,0.0
5.797263901999941,275,4589.52,-56.9,0.0,-118.4,-2.41,0.79,0.57,-0.03,-0.84,0.53,-121.3,1.0,-228.0,-0.18999999999999995,-1.22,0.16,0.0,0.0,0.9936800289831732,2.5994422478678,0.004283590016220473,0.28,0,0,0.0
5.807266866999271,276,4589.53,-57.1,0.0,-118.3,-2.31,0.72,0.58,-0.04,-0.83,0.54,-121.4,-4.1,-60.0,-0.18999999999999995,-1.22,0.03,0.23,0.0,0.9910095862301231,2.488151924621967,0.006814952113885164,0.28,0,0,0.0
5.8172670209996795,277,4589.54,-57.3,-0.1,-118.3,-2.24,0.61,0.66,-0.03,-0.83,0.53,-121.4,-0.3,-11.0,-0.18999999999999995,-1.22,0.01,0.07,0.0,0.9852410872471773,2.413565826738521,0.012331782074894382,0.28,0,0,0.0
5.826879323999492,278,4589.55,-57.6,-0.2,-118.3,-2.22,0.57,0.69,-0.03,-0.83,0.53,-121.4,-1.7,-18.0,-0.18999999999999995,-1.22,0.08,-0.16,0.0,0.9852410872471773,2.3936165106382434,0.012085146433396532,0.28,0,0,0.0
5.837146070999552,279,4589.56,-57.8,-0.3,-118.3,-2.31,0.57,0.69,-0.02,-0.83,0.53,-121.4,-5.2,-40.0,-0.18999999999999995,-1.22,0.22,-0.16,0.0,0.9849873095629201,2.4773170971839678,0.012092145635300589,0.28,0,0,0.0
5.847107433999554,280,4589.57,-58.0,-0.4,-118.3,-2.36,0.6,0.69,-0.01,-0.83,0.52,-121.5,-9.7,-25.0,-0.17999999999999994,-1.21,0.25,0.08,0.0,0.9794896630388705,2.530948438826836,0.017237996316163184,0.28,0,0,0.0
5.857103173999349,281,4589.58,-58.3,-0.5,-118.3,-2.41,0.57,0.67,0.0,-0.83,0.52,-121.6,-8.0,1.0,-0.17999999999999994,-1.21,0.21,-0.14,0.0,0.979438614717635,2.5655213895035063,0.016943263744650716,0.28,0,0,0.0
5.867293082999822,282,4589.59,-58.5,-0.6,-118.2,-2.49,0.54,0.68,0.0,-0.83,0.51,-121.7,-8.5,-8.0,-0.17999999999999994,-1.21,0.25,-0.03,0.0,0.9741663102366043,2.637062759966095,0.021771256861167876,0.28,0,0,0.0
5.877306308999323,283,4589.6,-58.8,-0.6,-118.2,-2.58,0.54,0.7,0.0,-0.83,0.5,-121.8,-9.5,-4.0,-0.17999999999999994,-1.21,0.25,0.06,0.0,0.9689685237405805,2.7272696969680137,0.026429662490047856,0.28,0,0,0.0
5.887261590999515,284,4589.61,-59.0,-0.7,-118.2,-2.64,0.56,0.73,0.0,-0.83,0.49,-121.9,-12.4,-41.0,-0.16999999999999993,-1.2,0.43,0.07,0.0,0.9638464608017192,2.795728885281976,0.030920690920331007,0.28,0,0,0.0
5.897264247999374,285,4589.62,-59.3,-0.8,-118.2,-2.68,0.6,0.74,-0.01,-0.84,0.49,-122.1,-20.3,-65.0,-0.16999999999999993,-1.2,0.65,0.07,0.0,0.9725224933131367,2.844292530665579,0.021799765240735236,0.28,0,0,0.0
5.907292095999765,286,4589.63,-59.6,-0.9,-118.2,-2.66,0.6,0.76,-0.02,-0.84,0.49,-122.3,-27.8,-77.0,-0.15999999999999992,-1.19,0.86,0.0,0.0,0.9726767191621273,2.8307596153682852,0.02121262860390971,0.28,0,0,0.0
5.9175477379994845,287,4589.64,-59.8,-1.0,-118.2,-2.65,0.58,0.73,-0.03,-0.85,0.48,-122.7,-38.3,-97.0,-0.1499999999999999,-1.18,1.17,0.0,0.0,0.9766268478799873,2.8092347712499928,0.016917249888328656,0.28,0,0,0.0
5.927768349999496,288,4589.65,-60.1,-1.1,-118.2,-2.65,0.55,0.7,-0.04,-0.84,0.48,-123.1,-49.8,-106.0,-0.1299999999999999,-1.16,1.48,0.0,0.0,0.9682974749528164,2.7955321496988725,0.024741690359189605,0.28,0,0,0.0
5.937609801999315,289,4589.66,-60.4,-1.2,-118.2,-2.71,0.52,0.68,-0.05,-0.83,0.47,-123.7,-59.7,-100.0,-0.11999999999999988,-1.15,1.73,-0.01,0.0,0.9551439682058406,2.841988740301411,0.03713729316404213,0.28,0,0,0.0
5.947434830999555,290,4589.67,-60.6,-1.3,-118.1,-2.92,0.49,0.61,-0.09,-0.85,0.48,-124.4,-66.7,-58.0,-0.09999999999999987,-1.13,1.83,-0.01,0.0,0.9803060746521975,3.0230117432785466,0.011735682983331497,0.28,0,0,0.0
5.957699896999657,291,4589.68,-60.9,-1.5,-118.1,-2.95,0.39,0.58,-0.09,-0.83,0.48,-125.0,-64.6,10.0,-0.08000000000000007,-1.11,1.69,0.01,0.0,0.9630160954002794,3.031666208539456,0.028445148990544622,0.28,0,0,0.0
5.9678215389994875,292,4589.69,-61.2,-1.6,-118.1,-2.9,0.22,0.6,-0.05,-0.82,0.48,-125.6,-58.6,39.0,-0.07000000000000006,-1.1,1.52,-0.07,0.0,0.9514725429564428,2.9695790947540024,0.039188927405693685,0.28,0,0,0.0
5.975275692999276,293,4589.7,-61.5,-1.6,-118.2,-2.81,0.24,0.71,0.01,-0.81,0.46,-126.2,-54.4,28.0,-0.050000000000000044,-1.08,1.47,-0.04,0.0,0.9315578350268974,2.9082297020696286,0.05792156262853432,0.28,0,0,0.0
5.987444280999625,294,4589.71,-61.7,-1.7,-118.2,-2.87,0.35,0.71,0.04,-0.83,0.42,-126.7,-55.2,0.0,-0.040000000000000036,-1.07,1.52,0.09,0.0,0.931074647920348,2.9771630791745354,0.057236654740381976,0.28,0,0,0.0
5.997308514999531,295,4589.72,-62.1,-1.7,-118.2,-3.28,0.63,0.64,0.02,-0.88,0.42,-127.3,-57.1,-11.0,-0.020000000000000018,-1.05,1.57,0.07,0.0,0.9752948272189287,3.4007205118915604,0.012756145932965257,0.28,0,0,0.0
6.007297174999621,296,4589.73,-62.4,-1.8,-118.1,-3.36,0.81,0.57,0.01,-0.89,0.43,-127.9,-60.2,-33.0,0.0,-1.03,1.7,0.16,0.0,0.9884836872705588,3.5029416209808577,0.0004240598362915682,0.28,0,0,0.0
6.017295709999416,297,4589.74,-62.8,-1.8,-118.1,-3.21,0.91,0.57,0.0,-0.89,0.44,-128.6,-64.5,-34.0,0.010000000000000009,-1.02,1.79,0.15,0.0,0.9928242543370907,3.3848338216225624,0.004669334364766908,0.28,0,0,0.0
6.027323441999215,298,4589.75,-63.1,-1.9,-118.0,-3.02,0.97,0.57,-0.02,-0.88,0.43,-129.2,-68.9,-49.0,0.030000000000000027,-1.0,1.95,0.21,0.0,0.9796427920420789,3.2227627899055804,0.008341885371639934,0.28,0,0,0.0
6.037242368999614,299,4589.76,-63.4,-2.0,-117.9,-3.02,1.01,0.55,-0.04,-0.87,0.43,-129.9,-74.2,-47.0,0.050000000000000044,-0.98,2.08,0.06,0.0,0.9712878049270464,3.23156308928048,0.016362935036939086,0.28,0,0,0.0
6.047369217999403,300,4589.77,-63.7,-2.1,-117.9,-3.05,0.96,0.56,-0.05,-0.85,0.43,-130.7,-78.4,-48.0,0.08000000000000007,-0.95,2.2,-0.05,0.0,0.9538867857350787,3.2461823731885424,0.03308867514432867,0.28,0,0,0.0
6.057126875999529,301,4589.78,-64.0,-2.2,-117.8,-3.13,0.88,0.56,-0.06,-0.86,0.43,-131.6,-84.2,-56.0,0.09999999999999998,-0.93,2.36,0.07,0.0,0.9633794683301071,3.2992271822352577,0.02312407269831418,0.28,0,0,0.0
6.067181899999923,302,4589.79,-64.3,-2.3,-117.8,-3.25,0.81,0.56,-0.07,-0.86,0.43,-132.4,-90.4,-56.0,0.12,-0.91,2.52,0.07,0.0,0.9640539403996022,3.3959093038536823,0.022000608616242645,0.28,0,0,0.0
6.077197134999551,303,4589.8,-64.7,-2.4,-117.7,-3.31,0.77,0.58,-0.06,-0.86,0.42,-133.4,-95.1,-51.0,0.15000000000000002,-0.88,2.65,-0.07,0.0,0.9589577675789481,3.4475208483778603,0.02655484580815881,0.28,0,0,0.0
6.087118894000014,304,4589.81,-65.0,-2.5,-117.7,-3.28,0.75,0.58,-0.06,-0.87,0.41,-134.4,-102.1,-67.0,0.18000000000000005,-0.85,2.87,-0.01,0.0,0.9636389365317282,3.4142788403995357,0.02143620331827123,0.28,0,0,0.0
6.097114559999682,305,4589.82,-65.3,-2.6,-117.6,-3.31,0.72,0.58,-0.05,-0.88,0.4,-135.4,-107.3,-42.0,0.21000000000000008,-0.82,2.93,-0.15,0.0,0.9679359482941007,3.436698997584746,0.01679640772478075,0.28,0,0,0.0
6.1071413279996705,306,4589.83,-65.7,-2.7,-117.6,-3.27,0.72,0.54,-0.05,-0.89,0.38,-136.5,-109.2,-28.0,0.24,-0.79,2.99,-0.05,0.0,0.9690201236300513,3.3915925462826455,0.015397987741053498,0.28,0,0,0.0
6.117349699999977,307,4589.84,-66.0,-2.8,-117.5,-3.33,0.75,0.51,-0.05,-0.88,0.38,-137.6,-111.3,-20.0,0.27,-0.76,3.04,-0.08,0.0,0.9598437372822723,3.4513041013506762,0.02408288660705582,0.28,0,0,0.0
6.127380723999522,308,4589.85,-66.3,-2.9,-117.5,-3.46,0.75,0.49,-0.05,-0.9,0.38,-138.7,-112.0,-7.0,0.30000000000000004,-0.73,3.03,-0.04,0.0,0.9782126558167197,3.574101285638111,0.005599688711156348,0.28,0,0,0.0
6.137265902999388,309,4589.86,-66.7,-2.9,-117.4,-3.45,0.74,0.44,-0.04,-0.9,0.37,-139.9,-111.0,4.0,0.33000000000000007,-0.7,3.01,0.0,0.0,0.973909646733207,3.555798082006345,0.009704643838775673,0.28,0,0,0.0
6.14728207600001,310,4589.87,-67.0,-3.0,-117.4,-3.43,0.76,0.42,-0.04,-0.9,0.37,-141.0,-109.6,4.0,0.36,-0.67,2.99,-0.04,0.0,0.973909646733207,3.5382057599862673,0.009510550962000153,0.28,0,0,0.0
6.157404472000053,311,4589.88,-67.4,-3.1,-117.3,-3.43,0.81,0.43,-0.04,-0.89,0.35,-142.1,-109.7,8.0,0.39,-0.64,2.96,-0.08,0.0,0.957183368012629,3.5504788409452606,0.025712093088926524,0.28,0,0,0.0
6.16722600599951,312,4589.89,-67.8,-3.1,-117.3,-3.5,0.87,0.41,-0.05,-0.89,0.35,-143.1,-106.9,26.0,0.42000000000000004,-0.61,2.85,0.0,0.0,0.957653381970742,3.6297382825763074,0.024737237548197233,0.28,0,0,0.0
6.177344512999298,313,4589.9,-68.1,-3.2,-117.2,-3.6,0.93,0.38,-0.04,-0.89,0.34,-144.2,-102.7,34.0,0.44000000000000006,-0.59,2.75,-0.15,0.0,0.9535722311393092,3.73755267521409,0.0282420206120374,0.28,0,0,0.0
6.187426904999484,314,4589.91,-68.5,-3.3,-117.1,-3.7,0.98,0.36,-0.05,-0.9,0.35,-145.2,-99.5,34.0,0.47,-0.56,2.66,-0.1,0.0,0.9669539802906858,3.844476557348217,0.014563066031447636,0.28,0,0,0.0
6.19714354000007,315,4589.92,-68.9,-3.3,-117.0,-3.71,0.98,0.32,-0.04,-0.9,0.35,-146.2,-95.9,33.0,0.5,-0.53,2.57,-0.07,0.0,0.9664884893261793,3.8505713861711484,0.014727985856035075,0.28,0,0,0.0
6.207141705999675,316,4589.93,-69.2,-3.4,-117.0,-3.72,0.98,0.27,-0.05,-0.91,0.34,-147.1,-93.4,26.0,0.52,-0.51,2.51,0.18,0.0,0.9727281223445737,3.8563843169476772,0.008318585780887733,0.28,0,0,0.0
6.219102545999704,317,4589.94,-69.6,-3.5,-116.9,-3.75,0.96,0.25,-0.06,-0.91,0.33,-148.0,-92.2,12.0,0.55,-0.48,2.49,0.0,0.0,0.9698453484963466,3.878994715129166,0.010977332436532539,0.28,0,0,0.0
6.226953256999877,318,4589.95,-70.0,-3.5,-116.8,-3.78,0.96,0.22,-0.07,-0.91,0.32,-148.9,-91.7,3.0,0.5700000000000001,-0.46,2.51,0.01,0.0,0.9671607932500159,3.9062001996825506,0.013388649929205965,0.28,0,0,0.0
6.237416096999368,319,4589.96,-70.4,-3.6,-116.7,-3.86,0.93,0.18,-0.08,-0.91,0.32,-149.9,-91.8,4.0,0.6000000000000001,-0.43,2.49,-0.09,0.0,0.9679359482941008,3.974531418922236,0.01236122498741865,0.28,0,0,0.0
6.2472209759998805,320,4589.97,-70.8,-3.6,-116.6,-3.91,0.92,0.17,-0.08,-0.92,0.31,-150.8,-92.7,-11.0,0.6200000000000001,-0.41,2.54,-0.08,0.0,0.9741149829460586,4.020373117012897,0.006058546528751596,0.28,0,0,0.0
6.257361162999587,321,4589.98,-71.2,-3.7,-116.6,-3.9,0.92,0.15,-0.08,-0.93,0.3,-151.7,-94.4,-18.0,0.65,-0.38,2.6,-0.04,0.0,0.9804590761474953,4.009850371273223,0.00027983573923140437,0.28,0,0,0.0
6.267189593999319,322,4589.99,-71.6,-3.8,-116.5,-3.87,0.94,0.13,-0.07,-0.94,0.3,-152.7,-97.3,-24.0,0.67,-0.36,2.68,-0.01,0.0,0.9891915891272024,3.9846455300314982,0.008832101744559728,0.28,0,0,0.0
6.277229272999648,323,4590.0,-72.0,-3.8,-116.4,-3.89,0.97,0.12,-0.06,-0.94,0.29,-153.4,-99.6,-37.0,0.7,-0.33,2.76,-0.15,0.0,0.9855455342093535,4.010910121157043,0.005082325890176653,0.28,0,0,0.0
6.2873633259996495,324,4590.01,-72.4,-3.8,-116.3,-3.88,0.99,0.1,-0.06,-0.93,0.28,-154.7,-103.0,-27.0,0.73,-0.3,2.83,0.18,0.0,0.9730878685915266,4.005558637693374,0.007227832933097256,0.28,0,0,0.0
6.297341698999844,325,4590.02,-72.8,-3.9,-116.2,-3.86,1.02,0.09,-0.06,-0.92,0.27,-155.8,-107.0,-38.0,0.76,-0.27,2.95,-0.19,0.0,0.9606768447297979,3.9935072304930164,0.01924607965892955,0.28,0,0,0.0
6.30735200899926,326,4590.03,-73.2,-3.9,-116.1,-3.91,1.05,0.1,-0.06,-0.92,0.27,-156.8,-108.6,-17.0,0.79,-0.24,2.96,-0.02,0.0,0.9606768447297979,4.04976542530552,0.01886115806575095,0.28,0,0,0.0
6.317383818000053,327,4590.04,-73.6,-4.0,-116.0,-3.95,1.14,0.12,-0.06,-0.92,0.25,-157.9,-110.8,-33.0,0.8200000000000001,-0.21,3.08,-0.07,0.0,0.95524865872714,4.112967298678655,0.023803557187040636,0.28,0,0,0.0
6.327113729999837,328,4590.05,-74.0,-4.0,-115.9,-4.05,1.19,0.1,-0.07,-0.93,0.26,-159.1,-115.1,-31.0,0.8500000000000001,-0.18,3.15,0.13,0.0,0.9681941953967707,4.222392686617388,0.010640860107061778,0.28,0,0,0.0
6.337405883999963,329,4590.06,-74.4,-4.0,-115.8,-4.09,1.22,0.09,-0.07,-0.93,0.25,-160.3,-117.1,-22.0,0.88,-0.15,3.21,0.06,0.0,0.9655568341635826,4.269027992412323,0.013012656913444776,0.28,0,0,0.0
6.347185485999944,330,4590.07,-74.9,-4.1,-115.7,-4.04,1.22,0.1,-0.08,-0.93,0.25,-161.4,-118.6,-12.0,0.92,-0.11,3.23,0.19,0.0,0.9663332758422428,4.221374183841086,0.011991490930088888,0.28,0,0,0.0
6.357260925999981,331,4590.08,-75.3,-4.1,-115.5,-3.98,1.22,0.13,-0.07,-0.92,0.24,-162.6,-116.8,13.0,0.9500000000000001,-0.08,3.14,0.03,0.0,0.9533624704172071,4.1648169227470255,0.024463050428022104,0.28,0,0,0.0
6.367451455999799,332,4590.09,-75.7,-4.2,-115.4,-4.01,1.21,0.15,-0.07,-0.93,0.23,-163.8,-116.2,7.0,0.98,-0.05,3.13,0.0,0.0,0.960572745813663,4.19126472559298,0.01690771953093484,0.28,0,0,0.0
6.377203132999966,333,4590.1,-76.1,-4.2,-115.3,-4.09,1.26,0.18,-0.07,-0.93,0.22,-164.8,-113.9,22.0,1.01,-0.02,3.03,-0.01,0.0,0.9582275303913993,4.283468220963008,0.018867876254134552,0.28,0,0,0.0
6.386829335999209,334,4590.11,-76.5,-4.3,-115.2,-4.11,1.32,0.24,-0.07,-0.94,0.21,-165.9,-110.6,21.0,1.03,0.0,2.96,-0.06,0.0,0.9657121724406295,4.3234361334475615,0.011155569520806319,0.28,0,0,0.0
6.397270728999501,335,4590.12,-76.9,-4.3,-115.1,-4.08,1.41,0.26,-0.07,-0.96,0.21,-167.0,-108.0,27.0,1.06,0.03,2.89,-0.05,0.0,0.985190336940025,4.324592466348707,0.008156143079017464,0.28,0,0,0.0
6.407328357999177,336,4590.13,-77.4,-4.4,-114.9,-4.02,1.5,0.26,-0.08,-0.96,0.2,-168.1,-106.1,17.0,1.09,0.06,2.89,0.22,0.0,0.9838699100999074,4.298604424694135,0.0066990019141218715,0.28,0,0,0.0
6.417446294999536,337,4590.14,-77.8,-4.5,-114.8,-3.99,1.58,0.28,-0.08,-0.96,0.18,-169.1,-105.9,11.0,1.12,0.09,2.85,-0.22,0.0,0.98,4.300569729698613,0.0027725099779301043,0.28,0,0,0.0
6.427357191999363,338,4590.15,-78.2,-4.5,-114.6,-3.93,1.64,0.28,-0.08,-0.97,0.18,-170.2,-104.3,9.0,1.1400000000000001,0.11,2.86,0.0,0.0,0.9897979591815695,4.267657437049042,0.012319059776309649,0.28,0,0,0.0
6.43736587299918,339,4590.16,-78.6,-4.6,-114.5,-3.87,1.65,0.24,-0.08,-0.96,0.17,-171.2,-104.7,0.0,1.17,0.14,2.86,0.01,0.0,0.9782126558167197,4.213905551860412,0.0007190812832306159,0.28,0,0,0.0
6.447423345999596,340,4590.17,-79.0,-4.7,-114.3,-3.92,1.68,0.2,-0.09,-0.96,0.16,-172.3,-103.2,19.0,1.2,0.17,2.75,0.06,0.0,0.9773944955850733,4.269519879330695,9.709736944740754e-05,0.28,0,0,0.0
6.4572810239997125,341,4590.18,-79.5,-4.7,-114.1,-3.87,1.73,0.18,-0.09,-0.98,0.16,-173.3,-100.1,26.0,1.23,0.2,2.71,0.32,0.0,0.9970456358662826,4.242899951683989,0.019162962053526633,0.28,0,0,0.0
6.467273927999486,342,4590.19,-79.9,-4.8,-114.0,-3.79,1.74,0.12,-0.1,-0.98,0.16,-174.3,-98.8,17.0,1.25,0.22,2.67,0.0,0.0,0.9979979959899719,4.172061840385399,0.01971301573367157,0.28,0,0,0.0
6.477341943999818,343,4590.2,-80.3,-4.8,-113.8,-3.75,1.76,0.1,-0.09,-0.99,0.15,-175.3,-98.0,9.0,1.28,0.25,2.64,0.01,0.0,1.0053357648069623,4.143681937600906,0.02650976885964873,0.28,0,0,0.0
6.487369183999363,344,4590.21,-80.6,-4.9,-113.6,-3.68,1.77,0.05,-0.09,-0.99,0.15,-176.2,-97.6,-1.0,1.31,0.28,2.7,0.15,0.0,1.0053357648069623,4.0838462262920725,0.02597957348245572,0.28,0,0,0.0
6.497237575999861,345,4590.22,-81.0,-4.9,-113.4,-3.66,1.8,0.03,-0.09,-0.99,0.13,-177.2,-100.6,-12.0,1.34,0.31,2.73,-0.08,0.0,1.002546757014355,4.0787865842674345,0.022726754376051428,0.28,0,0,0.0
6.507287943999472,346,4590.23,-81.4,-4.9,-113.3,-3.67,1.88,0.04,-0.09,-0.99,0.13,-178.2,-101.3,-9.0,1.36,0.33,2.76,0.26,0.0,1.002546757014355,4.123699795086932,0.022272219288530404,0.28,0,0,0.0
6.517385479999575,347,4590.24,-81.8,-5.0,-113.1,-3.59,1.93,0.01,-0.08,-1.01,0.13,-179.3,-102.5,-16.0,1.3900000000000001,0.36,2.82,0.12,0.0,1.0214695296483394,4.0759170747207305,0.04037109208406453,0.28,0,0,0.0
6.527402248999351,348,4590.25,-82.2,-5.0,-112.9,-3.37,1.88,-0.08,-0.08,-1.01,0.13,-180.3,-104.3,-13.0,1.42,0.39,2.84,0.12,0.0,1.0214695296483394,3.859753878163736,0.039563670242383275,0.28,0,0,0.0
6.535204822999731,349,4590.26,-82.5,-5.0,-112.7,-3.25,1.84,-0.15,-0.08,-1.0,0.13,-181.3,-103.7,5.0,1.45,0.42,2.8,-0.23,0.0,1.0115829180052418,3.7377265817606298,0.029083517427299976,0.28,0,0,0.0
6.547670848999587,350,4590.27,-82.9,-5.0,-112.5,-3.22,1.83,-0.2,-0.09,-1.0,0.12,-182.4,-102.3,16.0,1.47,0.44,2.75,0.04,0.0,1.0111874208078342,3.709083444734022,0.028114259825294474,0.28,0,0,0.0
6.55763189299978,351,4590.28,-83.2,-5.0,-112.3,-3.23,1.79,-0.24,-0.09,-1.01,0.13,-183.4,-100.9,9.0,1.5,0.47,2.73,-0.06,0.0,1.02230132544177,3.7006215694123603,0.03844360117004575,0.28,0,0,0.0
6.56782248699983,352,4590.29,-83.5,-5.0,-112.1,-3.19,1.76,-0.25,-0.1,-1.03,0.12,-184.4,-99.5,16.0,1.53,0.5,2.67,0.02,0.0,1.0417773274553443,3.6518762301041914,0.056761211119947586,0.28,0,0,0.0
6.579564862999177,353,4590.3,-83.8,-5.0,-112.0,-2.9,1.74,-0.26,-0.1,-1.03,0.12,-185.4,-95.3,44.0,1.55,0.52,2.5,0.04,0.0,1.0417773274553443,3.391931603084001,0.05562598689754861,0.28,0,0,0.0
6.591424842999913,354,4590.31,-84.1,-5.0,-111.8,-2.55,1.76,-0.22,-0.09,-1.03,0.11,-186.3,-91.0,34.0,1.58,0.55,2.44,0.21,0.0,1.039759587597056,3.106203470476459,0.052536082098475045,0.28,0,0,0.0
6.59942024799966,355,4590.32,-84.4,-5.0,-111.6,-2.26,1.78,-0.19,-0.09,-1.02,0.11,-187.2,-89.8,13.0,1.6,0.57,2.43,-0.02,0.0,1.0298543586352393,2.883071279035605,0.04177823607392517,0.28,0,0,0.0
6.60718622999957,356,4590.33,-84.6,-5.0,-111.4,-2.13,1.77,-0.22,-0.09,-1.02,0.11,-188.1,-87.0,35.0,1.63,0.6,2.28,-0.1,0.0,1.0298543586352393,2.778164861918745,0.04094267135244667,0.28,0,0,0.0
6.6154288600000655,357,4590.34,-84.8,-5.0,-111.3,-2.02,1.73,-0.28,-0.09,-1.02,0.12,-188.9,-83.0,31.0,1.65,0.62,2.21,0.08,0.0,1.030970416646375,2.6742662545079536,0.041217554776310616,0.28,0,0,0.0
6.627837456999259,358,4590.35,-85.0,-5.0,-111.1,-1.89,1.63,-0.34,-0.1,-1.01,0.13,-189.7,-79.3,39.0,1.67,0.64,2.08,-0.08,0.0,1.0232301793829186,2.5188489434660424,0.032807771162597255,0.28,0,0,0.0
6.635472273999767,359,4590.36,-85.2,-5.0,-110.9,-1.76,1.52,-0.36,-0.11,-1.0,0.13,-190.5,-73.1,64.0,1.69,0.66,1.83,0.06,0.0,1.0143963722332607,2.353210572813236,0.023494484732680565,0.28,0,0,0.0
6.6478211629992074,360,4590.37,-85.3,-5.0,-110.8,-1.56,1.4,-0.37,-0.11,-0.99,0.13,-191.1,-63.5,84.0,1.71,0.68,1.6,0.02,0.0,1.0045396955820112,2.128497122384712,0.013365051919802418,0.28,0,0,0.0
6.6555276029994275,361,4590.38,-85.4,-5.0,-110.6,-1.37,1.26,-0.37,-0.11,-0.99,0.13,-191.7,-55.9,77.0,1.72,0.69,1.41,-0.06,0.0,1.0045396955820112,1.8977354926332595,0.013097750881406411,0.28,0,0,0.0
6.667741201999888,362,4590.39,-85.5,-4.9,-110.5,-1.25,1.09,-0.35,-0.12,-0.99,0.13,-192.2,-49.2,74.0,1.73,0.7,1.23,-0.16,0.0,1.00568384694197,1.6950221237494218,0.013957064196537972,0.28,0,0,0.0
6.6754842479995204,363,4590.4,-85.6,-4.9,-110.4,-1.14,0.93,-0.32,-0.13,-1.0,0.14,-192.7,-42.4,72.0,1.75,0.72,1.01,0.01,0.0,1.0180864403379508,1.5056227947264877,0.025832464440668446,0.28,0,0,0.0
6.687970437999866,364,4590.41,-85.7,-5.0,-110.3,-0.96,0.73,-0.31,-0.14,-1.01,0.15,-193.0,-33.1,87.0,1.75,0.72,0.78,-0.24,0.0,1.030630874755846,1.2452309022827854,0.03760936088139233,0.28,0,0,0.0
6.695539695999287,365,4590.42,-85.8,-5.0,-110.3,-0.69,0.48,-0.29,-0.14,-1.02,0.15,-193.3,-23.1,100.0,1.76,0.73,0.49,0.19,0.0,1.0404326023342405,0.8891569040388765,0.04646286669059119,0.28,0,0,0.0
6.707622727999478,366,4590.43,-85.8,-5.0,-110.3,-0.43,0.24,-0.34,-0.15,-1.02,0.16,-193.5,-15.6,68.0,1.76,0.73,0.37,-0.32,0.0,1.0433120338613948,0.5984145720150872,0.04835545225339055,0.28,0,0,0.0
6.7178482009994696,367,4590.44,-85.8,-5.0,-110.2,-0.23,-0.01,-0.36,-0.14,-1.02,0.16,-193.6,-11.3,57.0,1.77,0.74,0.22,0.0,0.0,1.0419213022104885,0.42731721238442993,0.04602542619043459,0.28,0,0,0.0
6.72794228299972,368,4590.45,-85.7,-5.0,-110.3,-0.06,-0.25,-0.34,-0.14,-1.01,0.16,-193.7,-4.1,70.0,1.77,0.74,0.0,0.0,0.0,1.0321337122679406,0.42626282971894236,0.035513079522928925,0.28,0,0,0.0
6.735302950000005,369,4590.46,-85.7,-4.9,-110.3,0.09,-0.45,-0.27,-0.14,-0.99,0.16,-193.7,1.4,37.0,1.77,0.74,-0.01,-0.22,0.0,1.0125709851659783,0.5324471804789654,0.01563134537254729,0.28,0,0,0.0
6.747629040999527,370,4590.47,-85.6,-5.0,-110.4,0.24,-0.62,-0.15,-0.14,-0.98,0.15,-193.6,-0.1,9.0,1.77,0.74,-0.01,0.0,0.0,1.0012492197250393,0.6815423684555495,0.004223388332976086,0.28,0,0,0.0
6.75544436599921,371,4590.48,-85.5,-5.0,-110.4,0.39,-0.83,-0.08,-0.13,-0.99,0.15,-193.6,-0.1,-3.0,1.77,0.74,0.0,0.08,0.0,1.0097029266076236,0.9205433178292045,0.012423553311249114,0.28,0,0,0.0
6.767804911999519,372,4590.49,-85.4,-5.0,-110.5,0.5,-1.02,-0.04,-0.13,-0.99,0.15,-193.6,0.3,4.0,1.77,0.74,0.0,-0.15,0.0,1.0097029266076236,1.1366617790706257,0.012175082245024171,0.28,0,0,0.0
6.775452485999267,373,4590.5,-85.3,-5.0,-110.7,0.55,-1.19,-0.02,-0.13,-0.99,0.15,-193.6,-0.3,-3.0,1.77,0.74,0.02,0.0,0.0,1.0097029266076236,1.3111064030047295,0.01193158060012367,0.28,0,0,0.0
6.787994402999175,374,4590.51,-85.2,-5.0,-110.8,0.64,-1.34,0.04,-0.13,-0.99,0.15,-193.6,0.3,5.0,1.77,0.74,-0.01,-0.07,0.0,1.0097029266076236,1.4855302083767938,0.011692948988121232,0.28,0,0,0.0
6.79775594900002,375,4590.52,-85.1,-5.0,-110.9,0.71,-1.48,0.07,-0.13,-1.01,0.15,-193.6,0.4,1.0,1.77,0.74,0.0,-0.14,0.0,1.0293201639917484,1.6429850881855257,0.0306839826448011,0.28,0,0,0.0
6.808105269999942,376,4590.53,-84.9,-5.0,-111.1,0.93,-1.64,0.12,-0.11,-1.02,0.15,-193.6,1.3,8.0,1.77,0.74,-0.06,0.08,0.0,1.036822067666386,1.8891532494744834,0.03742216859304992,0.28,0,0,0.0
6.815580023999246,377,4590.54,-84.8,-5.0,-111.3,1.17,-1.74,0.14,-0.11,-1.02,0.14,-193.6,1.7,0.0,1.77,0.74,-0.03,0.08,0.0,1.0354226190305098,2.1014518790588568,0.0353022655580304,0.28,0,0,0.0
6.827815898999688,378,4590.55,-84.6,-5.1,-111.4,1.43,-1.79,0.21,-0.1,-0.99,0.13,-193.6,-0.2,-11.0,1.77,0.74,0.0,0.08,0.0,1.003493896344168,2.3006738143422245,0.003306072014254813,0.28,0,0,0.0
6.835542621000059,379,4590.56,-84.4,-5.1,-111.6,1.56,-1.83,0.26,-0.08,-0.98,0.13,-193.6,0.9,9.0,1.76,0.73,-0.06,0.0,0.0,0.9918165152889923,2.4186979968569866,0.00820388286010243,0.28,0,0,0.0
6.847824925999703,380,4590.57,-84.2,-5.1,-111.8,1.54,-1.81,0.29,-0.07,-0.96,0.11,-193.6,2.6,13.0,1.76,0.73,-0.09,0.0,0.0,0.9688137075826291,2.394117791588376,0.030582556755136325,0.28,0,0,0.0
6.857796460999452,381,4590.58,-84.1,-5.1,-112.0,1.38,-1.72,0.35,-0.06,-0.95,0.1,-193.6,3.0,3.0,1.76,0.73,-0.09,0.0,0.0,0.9571311299921239,2.2327785380552183,0.041419831658728645,0.28,0,0,0.0
6.867852192999635,382,4590.59,-83.9,-5.1,-112.2,1.27,-1.58,0.45,-0.05,-0.95,0.11,-193.5,3.5,10.0,1.76,0.73,-0.12,-0.26,0.0,0.957653381970742,2.076487418695331,0.040079628086508334,0.28,0,0,0.0
6.8756028609996065,383,4590.6,-83.8,-5.1,-112.3,1.23,-1.4,0.52,-0.05,-0.96,0.1,-193.5,7.0,40.0,1.76,0.73,-0.3,0.13,0.0,0.9664884893261791,1.9347609671481383,0.030619630316449764,0.28,0,0,0.0
6.8878246079993914,384,4590.61,-83.6,-5.1,-112.5,1.2,-1.24,0.52,-0.05,-0.97,0.1,-193.3,14.7,65.0,1.76,0.73,-0.54,0.0,0.0,0.9764220398987314,1.8022208521710095,0.02027235814901951,0.28,0,0,0.0
6.89767837799991,385,4590.62,-83.5,-5.1,-112.6,1.17,-1.11,0.52,-0.04,-0.98,0.1,-193.1,25.8,95.0,1.75,0.72,-0.84,0.0,0.0,0.985900603509299,1.6945205811674287,0.010577918647682982,0.28,0,0,0.0
6.90752859299937,386,4590.63,-83.4,-5.2,-112.7,1.16,-0.97,0.47,-0.05,-0.99,0.1,-192.8,33.0,73.0,1.74,0.71,-1.0,-0.18,0.0,0.9962931295557548,1.5834771864475976,0.00018168474920265965,0.28,0,0,0.0
6.915485802999683,387,4590.64,-83.3,-5.2,-112.8,1.22,-0.8,0.41,-0.06,-1.0,0.09,-192.4,38.7,55.0,1.73,0.7,-1.12,-0.08,0.0,1.005832988124768,1.5154207336578183,0.009171010343414387,0.28,0,0,0.0
6.927705111999785,388,4590.65,-83.1,-5.2,-112.9,1.34,-0.63,0.39,-0.08,-1.0,0.11,-192.0,42.8,39.0,1.72,0.69,-1.19,0.0,0.0,1.0092076099594176,1.531208672911697,0.012294719534502674,0.28,0,0,0.0
6.9354377439995005,389,4590.66,-83.0,-5.2,-112.9,1.42,-0.51,0.38,-0.1,-1.01,0.13,-191.6,44.9,26.0,1.7000000000000002,0.67,-1.26,0.05,0.0,1.0232301793829186,1.5559241626763176,0.02579094317884356,0.28,0,0,0.0
6.947680276999563,390,4590.67,-82.8,-5.3,-113.0,1.56,-0.49,0.35,-0.11,-1.01,0.13,-191.1,47.6,26.0,1.69,0.66,-1.34,-0.24,0.0,1.0242558274181308,1.6721842003798506,0.02628025938977463,0.28,0,0,0.0
6.957620262999626,391,4590.68,-82.6,-5.3,-113.0,1.69,-0.52,0.32,-0.11,-0.99,0.12,-190.6,50.8,31.0,1.6800000000000002,0.65,-1.42,0.04,0.0,1.0032945728947207,1.7969140213154327,0.005212624769037166,0.28,0,0,0.0
6.96768166199945,392,4590.69,-82.5,-5.3,-113.1,1.83,-0.63,0.32,-0.1,-0.98,0.1,-190.1,53.1,20.0,1.6600000000000001,0.63,-1.44,-0.13,0.0,0.990151503558925,1.961682950937791,0.007771835675423389,0.28,0,0,0.0
6.975454658999297,393,4590.7,-82.3,-5.4,-113.2,2.08,-0.62,0.35,-0.1,-0.98,0.09,-189.6,50.8,-16.0,1.65,0.62,-1.32,0.01,0.0,0.9891915891272024,2.1984767453853133,0.008557115105003121,0.28,0,0,0.0
6.9877522269998735,394,4590.71,-82.1,-5.4,-113.2,2.18,-0.61,0.4,-0.09,-0.97,0.1,-189.1,49.6,-8.0,1.63,0.6,-1.33,0.0,0.0,0.9792854537876073,2.298804036885267,0.018093985435706172,0.28,0,0,0.0
6.99562002499988,395,4590.72,-81.9,-5.4,-113.3,2.17,-0.68,0.42,-0.09,-0.98,0.1,-188.6,49.2,-4.0,1.62,0.59,-1.32,0.16,0.0,0.9891915891272024,2.312509459440112,0.008024093094188944,0.28,0,0,0.0
7.008067737999227,396,4590.73,-81.7,-5.5,-113.4,2.33,-0.77,0.44,-0.07,-1.0,0.09,-188.1,49.4,5.0,1.6099999999999999,0.58,-1.38,0.08,0.0,1.0064790112068904,2.493070396118008,0.009078062405789122,0.28,0,0,0.0
7.01796960899992,397,4590.74,-81.5,-5.5,-113.4,2.6,-0.74,0.43,-0.06,-1.01,0.07,-187.6,52.4,25.0,1.59,0.56,-1.46,-0.09,0.0,1.0141991914806479,2.737243138634199,0.016462277825955662,0.28,0,0,0.0
7.027425919999587,398,4590.75,-81.2,-5.5,-113.5,2.76,-0.67,0.43,-0.07,-1.0,0.1,-187.0,56.1,40.0,1.58,0.55,-1.6,0.0,0.0,1.007422453591342,2.8725250216490714,0.009491829137916907,0.28,0,0,0.0
7.035515022999789,399,4590.76,-80.9,-5.5,-113.6,2.78,-0.61,0.48,-0.09,-1.0,0.12,-186.4,61.3,45.0,1.56,0.53,-1.73,0.0,0.0,1.0111874208078342,2.8863298494801315,0.012991660427320806,0.28,0,0,0.0
7.04764701699969,400,4590.77,-80.7,-5.6,-113.7,2.79,-0.57,0.54,-0.1,-1.0,0.13,-185.8,65.4,41.0,1.54,0.51,-1.83,-0.21,0.0,1.0133607452432722,2.898378857223465,0.01486168516550368,0.28,0,0,0.0
7.057933799999773,401,4590.78,-80.4,-5.6,-113.7,2.79,-0.54,0.58,-0.1,-0.99,0.14,-185.1,69.9,47.0,1.52,0.49,-1.99,-0.13,0.0,1.0048382954485762,2.9003620463659363,0.006212450663391489,0.28,0,0,0.0
7.067488423999748,402,4590.79,-80.1,-5.7,-113.8,2.77,-0.52,0.58,-0.1,-0.98,0.15,-184.4,75.3,42.0,1.5,0.47,-2.08,0.08,0.0,0.9964436762808021,2.8774467849119296,0.0021385251342949108,0.28,0,0,0.0
7.0754911479998555,403,4590.8,-79.9,-5.7,-113.8,2.69,-0.52,0.58,-0.1,-0.96,0.15,-183.6,78.3,36.0,1.48,0.45,-2.16,-0.23,0.0,0.9767804256842988,2.800517809263137,0.021365740216182205,0.28,0,0,0.0
7.087881823999851,404,4590.81,-79.6,-5.8,-113.9,2.57,-0.54,0.58,-0.1,-0.95,0.16,-182.8,80.8,25.0,1.46,0.43,-2.22,0.01,0.0,0.9685556256612213,2.689405138687736,0.028998729434474457,0.28,0,0,0.0
7.09788498799935,405,4590.82,-79.3,-5.8,-114.0,2.53,-0.62,0.58,-0.1,-0.95,0.15,-182.0,81.7,6.0,1.44,0.41,-2.22,0.0,0.0,0.9669539802906858,2.6686513447807303,0.029988367308909747,0.28,0,0,0.0
7.107499355999607,406,4590.83,-79.1,-5.9,-114.1,2.58,-0.72,0.58,-0.09,-0.95,0.14,-181.2,80.5,-8.0,1.4100000000000001,0.38,-2.16,-0.03,0.0,0.9644687656943588,2.7406568555731305,0.031824110267132055,0.28,0,0,0.0
7.117889215999639,407,4590.84,-78.8,-5.9,-114.1,2.66,-0.83,0.61,-0.09,-0.97,0.15,-180.4,78.6,-14.0,1.3900000000000001,0.36,-2.12,0.12,0.0,0.9856469956328178,2.852472611612599,0.010432962722099592,0.28,0,0,0.0
7.1276127129995075,408,4590.85,-78.6,-6.0,-114.2,2.77,-1.02,0.61,-0.09,-0.98,0.17,-179.6,76.6,-22.0,1.37,0.34,-2.02,0.08,0.0,0.9986991538997116,3.0141997279543373,0.0025668116338983804,0.28,0,0,0.0
7.137917367999762,409,4590.86,-78.3,-6.0,-114.4,2.84,-1.22,0.61,-0.09,-0.99,0.16,-178.9,70.9,-52.0,1.35,0.32,-1.85,-0.08,0.0,1.0068763578513502,3.1505713767505727,0.010529135273826262,0.28,0,0,0.0
7.14742992399988,410,4590.87,-78.0,-6.0,-114.5,2.87,-1.26,0.63,-0.1,-0.99,0.16,-178.2,67.0,-39.0,1.34,0.31,-1.77,0.25,0.0,1.0078194282707593,3.1970924290673866,0.011242761579370653,0.28,0,0,0.0
7.155521687999681,411,4590.88,-77.7,-6.0,-114.6,2.94,-1.28,0.7,-0.09,-0.98,0.17,-177.5,64.7,-24.0,1.32,0.29,-1.75,-0.05,0.0,0.9986991538997116,3.2820725159569526,0.0020800374641565256,0.28,0,0,0.0
7.167811153999537,412,4590.89,-77.5,-6.1,-114.8,2.98,-1.29,0.77,-0.09,-1.0,0.19,-176.9,64.8,-2.0,1.3,0.27,-1.76,0.15,0.0,1.0218610473053564,3.337274336940252,0.02473709225240528,0.28,0,0,0.0
7.177754815999833,413,4590.9,-77.2,-6.1,-114.9,3.05,-1.31,0.77,-0.08,-0.99,0.19,-176.2,64.1,-11.0,1.28,0.25,-1.73,-0.03,0.0,1.011236866416568,3.4075651130976206,0.013830653136344573,0.28,0,0,0.0
7.187934091999523,414,4590.91,-76.8,-6.2,-115.1,3.04,-1.32,0.76,-0.09,-0.98,0.2,-175.6,64.8,13.0,1.27,0.24,-1.8,-0.23,0.0,1.0042410069301093,3.4002352859765455,0.006698097776888123,0.28,0,0,0.0
7.197828034999475,415,4590.92,-76.5,-6.2,-115.2,3.03,-1.36,0.72,-0.09,-0.98,0.2,-174.9,67.3,20.0,1.25,0.22,-1.87,0.0,0.0,1.0042410069301093,3.398367255021152,0.006564135821350403,0.28,0,0,0.0
7.207236661999559,416,4590.93,-76.2,-6.2,-115.4,3.06,-1.42,0.67,-0.1,-0.96,0.21,-174.2,70.6,27.0,1.23,0.2,-1.96,0.22,0.0,0.9877752780870759,3.4393167926203017,0.009703561161249374,0.28,0,0,0.0
7.217448441999295,417,4590.94,-75.9,-6.3,-115.5,3.01,-1.56,0.6,-0.11,-0.96,0.21,-173.5,73.1,23.0,1.21,0.18,-2.01,0.0,0.0,0.9888377015466189,3.4429202720946064,0.008468314947672306,0.28,0,0,0.0
7.2274460279995765,418,4590.95,-75.6,-6.3,-115.7,2.98,-1.74,0.52,-0.12,-0.96,0.21,-172.8,75.2,26.0,1.19,0.16,-2.1,0.22,0.0,0.99,3.4897564384925204,0.007159896164405377,0.28,0,0,0.0
7.2377891669993915,419,4590.96,-75.3,-6.3,-115.9,3.11,-1.92,0.49,-0.11,-0.96,0.22,-172.0,78.9,33.0,1.17,0.14,-2.2,-0.1,0.0,0.9910095862301231,3.687627963881389,0.0060273037355965675,0.28,0,0,0.0
7.247723683000004,420,4590.97,-75.0,-6.3,-116.1,3.22,-2.05,0.5,-0.1,-0.96,0.22,-171.2,80.8,8.0,1.1400000000000001,0.11,-2.18,0.2,0.0,0.9899494936611666,3.8497922021844246,0.0069456483784620104,0.28,0,0,0.0
7.255498386999534,421,4590.98,-74.7,-6.3,-116.3,3.26,-2.06,0.54,-0.1,-0.97,0.22,-170.4,80.8,-1.0,1.12,0.09,-2.16,0.17,0.0,0.9996499387285531,3.8939440160331014,0.0026997007551460284,0.28,0,0,0.0
7.267752051999196,422,4590.99,-74.3,-6.3,-116.5,3.39,-2.05,0.58,-0.1,-0.97,0.23,-169.6,79.7,2.0,1.1,0.07,-2.18,0.07,0.0,1.0018981984213766,4.003873124862975,0.004849001239010109,0.28,0,0,0.0
7.27546182199967,423,4591.0,-74.0,-6.3,-116.7,3.64,-2.01,0.66,-0.08,-0.96,0.23,-168.9,80.1,-7.0,1.08,0.05,-2.13,-0.17,0.0,0.9904039579888602,4.210142515402537,0.006512334409636167,0.28,0,0,0.0
7.287951495000016,424,4591.01,-73.6,-6.3,-116.9,3.74,-1.94,0.69,-0.06,-0.95,0.24,-167.9,77.1,-16.0,1.06,0.03,-2.09,-0.08,0.0,0.9816822296446035,4.269344211937004,0.014929381498814953,0.28,0,0,0.0
7.2976983089993155,425,4591.02,-73.2,-6.2,-117.1,3.61,-1.94,0.61,-0.06,-0.95,0.25,-167.1,75.9,-14.0,1.04,0.01,-2.03,0.01,0.0,0.9841747812253675,4.143404397352496,0.012188093319689952,0.28,0,0,0.0
7.307710200999281,426,4591.03,-72.8,-6.2,-117.3,3.57,-1.92,0.54,-0.03,-0.91,0.25,-166.4,73.5,-22.0,1.03,0.0,-1.96,-0.09,0.0,0.9441927769264071,4.089364253768549,0.051126695666277366,0.28,0,0,0.0
7.3155206359997464,427,4591.04,-72.5,-6.2,-117.5,3.41,-1.81,0.49,-0.05,-0.92,0.26,-165.7,68.1,-49.0,1.01,-0.02,-1.78,0.0,0.0,0.9573400649716902,3.891567807452416,0.037219819468574444,0.28,0,0,0.0
7.327816160999646,428,4591.05,-72.1,-6.1,-117.7,3.32,-1.71,0.48,-0.06,-0.91,0.27,-165.1,62.0,-58.0,0.99,-0.04,-1.6,0.07,0.0,0.9511046209539727,3.7652224369882847,0.04258615821656608,0.28,0,0,0.0
7.337941522999245,429,4591.06,-71.8,-6.1,-117.9,3.31,-1.7,0.47,-0.07,-0.93,0.28,-164.5,55.6,-61.0,0.98,-0.05,-1.43,0.06,0.0,0.9737556161583871,3.7505999520076787,0.019536459751908652,0.28,0,0,0.0
7.347473107000042,430,4591.07,-71.5,-6.1,-118.1,3.44,-1.76,0.45,-0.08,-0.93,0.28,-164.0,51.4,-41.0,0.96,-0.07,-1.36,0.06,0.0,0.9745255255764212,3.8902056500910076,0.018391219327197006,0.28,0,0,0.0
7.35551977599971,431,4591.08,-71.1,-6.1,-118.3,3.51,-1.76,0.45,-0.08,-0.95,0.29,-163.5,47.8,-41.0,0.9500000000000001,-0.08,-1.25,0.18,0.0,0.9964938534682489,3.9522398712628766,0.0035055663933381,0.28,0,0,0.0
7.367868360999637,432,4591.09,-70.8,-6.0,-118.4,3.59,-1.72,0.42,-0.08,-0.96,0.3,-163.0,43.5,-39.0,0.9400000000000001,-0.09,-1.14,0.0,0.0,1.0089598604503551,4.002861476494035,0.015652141907935402,0.28,0,0,0.0
7.377983976999531,433,4591.1,-70.4,-6.0,-118.6,3.57,-1.74,0.4,-0.08,-0.96,0.32,-162.6,39.7,-30.0,0.93,-0.1,-1.06,0.02,0.0,1.0150862032359615,3.991553582253406,0.021342914999671003,0.28,0,0,0.0
7.387486302999605,434,4591.11,-70.0,-6.0,-118.8,3.62,-1.78,0.38,-0.07,-0.97,0.32,-162.2,38.8,-22.0,0.92,-0.11,-1.02,0.0,0.0,1.023816389788716,4.051814408385458,0.02947163952137699,0.28,0,0,0.0
7.395494701999269,435,4591.12,-69.6,-5.9,-119.0,3.79,-1.77,0.37,-0.07,-0.96,0.32,-161.8,37.5,-9.0,0.91,-0.12,-1.02,0.06,0.0,1.014347080638575,4.19927374673288,0.019602283763811235,0.28,0,0,0.0
7.407888425999772,436,4591.13,-69.3,-5.9,-119.1,3.94,-1.78,0.36,-0.06,-0.94,0.32,-161.5,38.6,8.0,0.9,-0.13,-1.06,0.03,0.0,0.9947864092356711,4.338386796955753,4.07801136891317e-05,0.28,0,0,0.0
7.417915555999571,437,4591.14,-68.9,-5.8,-119.3,3.94,-1.74,0.34,-0.06,-0.92,0.32,-161.1,40.7,16.0,0.89,-0.14,-1.12,0.0,0.0,0.9759098319004682,4.320509229246015,0.01845908127708351,0.28,0,0,0.0
7.427380294999239,438,4591.15,-68.5,-5.8,-119.5,3.83,-1.7,0.31,-0.05,-0.91,0.33,-160.7,39.4,-18.0,0.87,-0.16,-1.01,-0.08,0.0,0.9692780818733084,4.201785334830898,0.02458901467815844,0.28,0,0,0.0
7.437981516999571,439,4591.16,-68.1,-5.7,-119.7,3.69,-1.64,0.3,-0.05,-0.9,0.34,-160.3,35.3,-23.0,0.87,-0.16,-0.93,0.05,0.0,0.9633794683301072,4.049160406800402,0.02987787565693245,0.28,0,0,0.0
7.447461046999706,440,4591.17,-67.7,-5.6,-119.8,3.61,-1.57,0.31,-0.04,-0.91,0.34,-160.0,32.3,-32.0,0.86,-0.17,-0.83,0.05,0.0,0.9722653958667871,3.948809947313241,0.020572109157847573,0.28,0,0,0.0
7.457973853999647,441,4591.18,-67.4,-5.6,-120.0,3.58,-1.43,0.35,-0.03,-0.92,0.34,-159.7,28.6,-43.0,0.8500000000000001,-0.18,-0.7,-0.16,0.0,0.9812746812182612,3.8708913702143595,0.011331567330245984,0.28,0,0,0.0
7.467479581999214,442,4591.19,-67.0,-5.5,-120.1,3.57,-1.32,0.35,-0.04,-0.93,0.35,-159.4,25.6,-16.0,0.8400000000000001,-0.19,-0.7,0.08,0.0,0.9944847912361456,3.82227680839575,0.0018409718338856518,0.28,0,0,0.0
7.4778581999999005,443,4591.2,-66.7,-5.5,-120.2,3.58,-1.24,0.32,-0.04,-0.93,0.37,-159.1,24.6,-27.0,0.8400000000000001,-0.19,-0.61,0.0,0.0,1.0016985574512924,3.8021572823858825,0.008873643288051847,0.28,0,0,0.0
7.487464306999755,444,4591.21,-66.3,-5.4,-120.4,3.65,-1.17,0.3,-0.04,-0.92,0.38,-158.9,24.5,3.0,0.8300000000000001,-0.2,-0.69,0.04,0.0,0.9961927524329818,3.8446586324405967,0.0033004815043463642,0.28,0,0,0.0
7.497821545999614,445,4591.22,-65.9,-5.4,-120.5,3.68,-1.15,0.3,-0.04,-0.91,0.39,-158.7,26.0,10.0,0.8200000000000001,-0.21,-0.73,-0.09,0.0,0.990858213873206,3.8671565781592037,0.001993375914320805,0.28,0,0,0.0
7.507403056999465,446,4591.23,-65.5,-5.3,-120.6,3.74,-1.14,0.28,-0.04,-0.91,0.4,-158.4,27.7,7.0,0.81,-0.22,-0.73,0.02,0.0,0.9948366700117162,3.919897957855536,0.0019453786197055623,0.28,0,0,0.0
7.517969881999306,447,4591.24,-65.2,-5.3,-120.7,3.73,-1.11,0.23,-0.04,-0.9,0.4,-158.1,24.2,-23.0,0.81,-0.22,-0.63,-0.02,0.0,0.9856977224281286,3.898448409303373,0.007049697584604386,0.28,0,0,0.0
7.527519412999936,448,4591.25,-64.8,-5.2,-120.8,3.64,-1.1,0.18,-0.04,-0.88,0.41,-157.9,22.7,-10.0,0.8,-0.23,-0.58,0.18,0.0,0.9716480844420988,3.8068359565392362,0.020677348859221456,0.28,0,0,0.0
7.53772263799965,449,4591.26,-64.4,-5.2,-120.9,3.52,-1.04,0.16,-0.04,-0.88,0.41,-157.7,20.3,-19.0,0.8,-0.23,-0.53,0.05,0.0,0.9716480844420988,3.673908001025611,0.020263801882037025,0.28,0,0,0.0
7.547583799999302,450,4591.27,-64.1,-5.1,-121.0,3.47,-1.01,0.15,-0.05,-0.87,0.42,-157.5,17.6,-29.0,0.79,-0.24,-0.41,0.01,0.0,0.9673675619949224,3.6171121077456254,0.024053437842629255,0.28,0,0,0.0
7.558010518999254,451,4591.28,-63.7,-5.1,-121.1,3.48,-0.97,0.15,-0.04,-0.88,0.42,-157.4,13.4,-42.0,0.79,-0.24,-0.27,-0.08,0.0,0.9759098319004682,3.6157710104485323,0.015200944578341757,0.28,0,0,0.0
7.567386385999271,452,4591.29,-63.4,-5.0,-121.2,3.46,-0.88,0.12,-0.04,-0.88,0.42,-157.3,9.5,-22.0,0.79,-0.24,-0.27,-0.11,0.0,0.9759098319004682,3.5721702087106655,0.01489692568677492,0.28,0,0,0.0
7.577932087999216,453,4591.3,-63.0,-5.0,-121.3,3.33,-0.76,0.08,-0.04,-0.89,0.43,-157.2,9.6,-16.0,0.78,-0.25,-0.2,0.02,0.0,0.9892421341612982,3.4165626000411584,0.0015333309574260268,0.28,0,0,0.0
7.587446169999566,454,4591.31,-62.7,-4.9,-121.4,3.23,-0.63,0.05,-0.03,-0.89,0.44,-157.1,5.9,-29.0,0.78,-0.25,-0.12,0.04,0.0,0.9932774033471213,3.2912459646765995,0.002451899463829066,0.28,0,0,0.0
7.597775405999528,455,4591.32,-62.4,-4.9,-121.4,3.17,-0.52,0.01,-0.03,-0.89,0.45,-157.0,4.4,-14.0,0.78,-0.25,-0.1,0.0,0.0,0.9977474630386188,3.2123822935634543,0.006783519972220042,0.28,0,0,0.0
7.607328094999502,456,4591.33,-62.1,-4.8,-121.5,3.16,-0.38,-0.01,-0.02,-0.88,0.45,-157.0,3.5,-13.0,0.78,-0.25,-0.09,0.0,0.0,0.9885848471426213,3.18278180213473,0.00233151400530196,0.28,0,0,0.0
7.617806745000053,457,4591.34,-61.7,-4.8,-121.5,3.21,-0.23,-0.01,-0.01,-0.86,0.45,-157.0,1.9,-21.0,0.78,-0.25,0.0,0.0,0.0,0.9706698717895801,3.218244863275633,0.01984155957117628,0.28,0,0,0.0
7.627487314999598,458,4591.35,-61.4,-4.7,-121.5,3.13,-0.14,-0.02,-0.02,-0.86,0.46,-157.0,0.0,-10.0,0.78,-0.25,0.0,-0.19,0.0,0.9754998718605759,3.1331932592803784,0.014711328310176852,0.28,0,0,0.0
7.637754984999447,459,4591.36,-61.1,-4.7,-121.5,3.06,-0.08,-0.07,-0.03,-0.85,0.47,-157.0,0.0,-3.0,0.78,-0.25,0.0,-0.13,0.0,0.9717509969122748,3.061845848503807,0.018090999193308255,0.28,0,0,0.0
7.647729908999281,460,4591.37,-60.8,-4.6,-121.5,2.95,-0.07,-0.11,-0.04,-0.85,0.48,-157.0,0.4,2.0,0.78,-0.25,0.0,0.07,0.0,0.9769851585361979,2.9528799501503613,0.012599700817997439,0.28,0,0,0.0
7.657378402999711,461,4591.38,-60.5,-4.6,-121.5,2.87,-0.09,-0.13,-0.06,-0.85,0.48,-157.0,0.6,1.0,0.78,-0.25,-0.01,0.02,0.0,0.978008179924892,2.8743521009090034,0.01134514584071733,0.28,0,0,0.0
7.667568898999889,462,4591.39,-60.2,-4.6,-121.5,2.79,-0.09,-0.1,-0.08,-0.85,0.49,-157.0,0.7,0.0,0.78,-0.25,-0.03,0.18,0.0,0.984377976185977,2.793241844166022,0.004875842588039636,0.28,0,0,0.0
7.677320729999337,463,4591.4,-60.0,-4.6,-121.5,2.74,-0.09,-0.08,-0.09,-0.86,0.49,-156.9,2.1,10.0,0.78,-0.25,-0.07,-0.01,0.0,0.9938812806366764,2.742644709035423,0.004534912625406506,0.28,0,0,0.0
7.687555310999414,464,4591.41,-59.7,-4.6,-121.5,2.71,-0.09,-0.09,-0.09,-0.87,0.49,-156.9,3.2,12.0,0.78,-0.25,-0.12,-0.08,0.0,1.002546757014355,2.712987283420252,0.012936381223023319,0.28,0,0,0.0
7.697462037999685,465,4591.42,-59.4,-4.6,-121.5,2.69,-0.04,-0.1,-0.09,-0.86,0.5,-156.9,7.0,38.0,0.77,-0.26,-0.28,-0.08,0.0,0.9988493379884675,2.6921552704106797,0.009054182953193268,0.28,0,0,0.0
7.707544543999575,466,4591.43,-59.2,-4.6,-121.5,2.63,0.04,-0.11,-0.08,-0.86,0.51,-156.8,11.5,27.0,0.77,-0.26,-0.3,-0.16,0.0,1.0030453628824572,2.632603274327524,0.012985203690239255,0.28,0,0,0.0
7.717411826999523,467,4591.44,-58.9,-4.6,-121.5,2.53,0.13,-0.17,-0.07,-0.86,0.52,-156.6,11.2,11.0,0.77,-0.26,-0.33,-0.01,0.0,1.007422453591342,2.5390352498537707,0.01701504851114166,0.28,0,0,0.0
7.72756993099938,468,4591.45,-58.6,-4.5,-121.5,2.43,0.18,-0.21,-0.06,-0.85,0.52,-156.5,11.9,4.0,0.77,-0.26,-0.33,0.08,0.0,0.9982484660644363,2.4456900866626583,0.007684239764551126,0.28,0,0,0.0
7.737317683999208,469,4591.46,-58.4,-4.5,-121.4,2.33,0.18,-0.24,-0.05,-0.84,0.53,-156.4,15.5,44.0,0.76,-0.27,-0.53,-0.23,0.0,0.9944847912361455,2.3492339176846566,0.0038421536375351506,0.28,0,0,0.0
7.747349629999917,470,4591.47,-58.2,-4.5,-121.4,2.27,0.17,-0.25,-0.05,-0.83,0.53,-156.2,20.6,35.0,0.75,-0.28,-0.58,0.05,0.0,0.9860527369263775,2.2900436677059237,0.00449810265878825,0.28,0,0,0.0
7.757599352999932,471,4591.48,-57.9,-4.5,-121.4,2.18,0.14,-0.23,-0.06,-0.83,0.53,-156.0,22.0,24.0,0.75,-0.28,-0.64,0.07,0.0,0.986610358753647,2.1965655009582576,0.0038616712148883403,0.28,0,0,0.0
7.767426972000067,472,4591.49,-57.7,-4.5,-121.4,2.1,0.15,-0.17,-0.07,-0.83,0.52,-155.7,24.5,22.0,0.74,-0.29,-0.67,0.01,0.0,0.981936861514018,2.1122026417936324,0.008364465085426986,0.28,0,0,0.0
7.7775828559997535,473,4591.5,-57.5,-4.5,-121.3,2.08,0.15,-0.14,-0.09,-0.84,0.53,-155.5,24.0,1.0,0.74,-0.29,-0.64,-0.02,0.0,0.9972963451251589,2.090095691589263,0.006855118155199569,0.28,0,0,0.0
7.7874459269996805,474,4591.51,-57.3,-4.5,-121.3,2.08,0.11,-0.12,-0.1,-0.84,0.53,-155.3,23.5,-7.0,0.73,-0.3,-0.61,0.1,0.0,0.9982484660644363,2.0863604674168847,0.007651094312587481,0.28,0,0,0.0
7.79748502899929,475,4591.52,-57.1,-4.5,-121.3,2.08,0.05,-0.12,-0.1,-0.84,0.54,-155.0,22.0,-6.0,0.72,-0.31,-0.6,0.05,0.0,1.00359354322355,2.0840585404445817,0.01273624804226725,0.28,0,0,0.0
7.807603943999311,476,4591.53,-56.9,-4.5,-121.3,2.06,0.03,-0.14,-0.1,-0.84,0.54,-154.8,22.5,-4.0,0.72,-0.31,-0.6,0.0,0.0,1.00359354322355,2.0649697334343666,0.012481523081421919,0.28,0,0,0.0
7.817661839999346,477,4591.54,-56.7,-4.5,-121.3,1.97,0.07,-0.13,-0.09,-0.83,0.54,-154.6,21.7,-8.0,0.71,-0.32,-0.57,-0.01,0.0,0.9942836617384396,1.9755252466116449,0.003108208764385223,0.28,0,0,0.0
7.827398058999279,478,4591.55,-56.5,-4.5,-121.3,1.85,0.15,-0.14,-0.09,-0.83,0.54,-154.4,20.1,-17.0,0.71,-0.32,-0.5,-0.25,0.0,0.9942836617384396,1.8613436007357698,0.0030460445890975185,0.28,0,0,0.0
7.837446967999313,479,4591.56,-56.3,-4.5,-121.2,1.76,0.23,-0.14,-0.08,-0.82,0.55,-154.2,19.0,-1.0,0.7,-0.33,-0.52,0.16,0.0,0.9906058752097122,1.780477464052831,0.0006191071008373461,0.28,0,0,0.0
7.84748653799943,480,4591.57,-56.2,-4.5,-121.2,1.71,0.29,-0.12,-0.07,-0.82,0.56,-154.0,19.2,-4.0,0.7,-0.33,-0.5,0.1,0.0,0.9954396013822234,1.7385626246989205,0.004130326690240382,0.28,0,0,0.0
7.857693513999948,481,4591.58,-56.0,-4.5,-121.2,1.66,0.33,-0.13,-0.07,-0.82,0.56,-153.8,18.6,5.0,0.69,-0.34,-0.53,-0.02,0.0,0.9954396013822234,1.6974687036879355,0.004047720156435619,0.28,0,0,0.0
7.867547772999387,482,4591.59,-55.8,-4.5,-121.1,1.57,0.35,-0.17,-0.07,-0.82,0.57,-153.6,17.8,-19.0,0.69,-0.34,-0.41,0.04,0.0,1.0010993956645862,1.6174980680050286,0.009513364150022352,0.28,0,0,0.0
7.8774143489999915,483,4591.6,-55.7,-4.5,-121.1,1.41,0.33,-0.2,-0.09,-0.82,0.57,-153.5,13.7,-29.0,0.68,-0.35,-0.33,-0.06,0.0,1.00269636480841,1.4618481453283716,0.01088812662796923,0.28,0,0,0.0
7.887495408999712,484,4591.61,-55.5,-4.5,-121.1,1.28,0.27,-0.23,-0.1,-0.82,0.57,-153.3,13.8,4.0,0.68,-0.35,-0.39,0.17,0.0,1.0036433629531956,1.3282319074619462,0.011598422277299791,0.28,0,0,0.0
7.897502823999275,485,4591.62,-55.4,-4.5,-121.0,1.17,0.22,-0.24,-0.11,-0.82,0.57,-153.2,12.6,-26.0,0.67,-0.36,-0.27,0.01,0.0,1.0046890066085126,1.214454610102823,0.01239118461396449,0.28,0,0,0.0
7.907549019999351,486,4591.63,-55.3,-4.5,-121.0,1.14,0.14,-0.24,-0.11,-0.82,0.57,-153.1,6.9,-51.0,0.67,-0.36,-0.07,0.21,0.0,1.0046890066085126,1.1733712115098103,0.01214336092168522,0.28,0,0,0.0
7.917438713999218,487,4591.64,-55.2,-4.5,-121.0,1.1,0.11,-0.21,-0.11,-0.81,0.57,-153.1,0.7,-53.0,0.67,-0.36,0.02,0.06,0.0,0.9965440281292142,1.1252555265360842,0.003918414793539049,0.28,0,0,0.0
7.92743684800007,488,4591.65,-55.1,-4.6,-121.0,1.05,0.12,-0.2,-0.11,-0.82,0.57,-153.1,0.0,-13.0,0.67,-0.36,0.0,-0.18,0.0,1.0046890066085126,1.0755928597754822,0.011822125407380701,0.28,0,0,0.0
7.937632343999212,489,4591.66,-55.0,-4.6,-120.9,1.01,0.15,-0.17,-0.1,-0.82,0.57,-153.1,0.0,-3.0,0.67,-0.36,0.0,0.1,0.0,1.0036433629531956,1.035132841716463,0.01056095211702246,0.28,0,0,0.0
7.947566592999465,490,4591.67,-54.9,-4.6,-120.9,0.93,0.21,-0.16,-0.1,-0.81,0.56,-153.1,0.1,0.0,0.67,-0.36,0.0,-0.12,0.0,0.9897979591815697,0.9667471230885563,0.0032187626215113285,0.28,0,0,0.0
7.957611140999688,491,4591.68,-54.8,-4.6,-120.9,0.84,0.25,-0.2,-0.09,-0.82,0.57,-153.1,-0.2,-1.0,0.67,-0.36,0.0,0.21,0.0,1.00269636480841,0.898943824718764,0.009486050145222413,0.28,0,0,0.0
7.9674734479995095,492,4591.69,-54.7,-4.6,-120.8,0.74,0.3,-0.26,-0.09,-0.82,0.57,-153.1,0.0,0.0,0.67,-0.36,0.0,-0.07,0.0,1.00269636480841,0.8397618710086806,0.009296329142317927,0.28,0,0,0.0
7.977538558999186,493,4591.7,-54.6,-4.6,-120.8,0.68,0.31,-0.34,-0.09,-0.83,0.58,-153.1,0.0,0.0,0.67,-0.36,0.0,0.0,0.0,1.0165628362280414,0.8210359310042407,0.022699544550710438,0.28,0,0,0.0
7.987569081999936,494,4591.71,-54.6,-4.6,-120.8,0.65,0.31,-0.41,-0.09,-0.83,0.58,-153.1,0.1,-1.0,0.67,-0.36,0.0,-0.18,0.0,1.0165628362280414,0.828673639015988,0.02224555365969627,0.28,0,0,0.0
7.9991500659998565,495,4591.72,-54.5,-4.6,-120.7,0.6,0.29,-0.45,-0.1,-0.82,0.58,-153.1,0.1,0.0,0.67,-0.36,0.0,-0.07,0.0,1.0093562304756434,0.804114419718985,0.014738168949152253,0.28,0,0,0.0
8.007399647999591,496,4591.73,-54.5,-4.6,-120.7,0.55,0.24,-0.46,-0.11,-0.81,0.58,-153.1,0.1,2.0,0.67,-0.36,0.0,0.01,0.0,1.0022973610660662,0.7561084578286372,0.007525713548783508,0.28,0,0,0.0
8.017793538999285,497,4591.74,-54.4,-4.6,-120.6,0.52,0.23,-0.41,-0.11,-0.8,0.58,-153.1,0.0,-1.0,0.67,-0.36,0.0,-0.03,0.0,0.9942333730065593,0.7009992867328754,0.0005275090205087984,0.28,0,0,0.0
8.02768715899947,498,4591.75,-54.4,-4.6,-120.6,0.48,0.22,-0.38,-0.1,-0.8,0.58,-153.1,0.0,0.0,0.67,-0.36,-0.02,-0.12,0.0,0.993176721434811,0.6505382386916237,0.0015524773804120873,0.28,0,0,0.0
8.037548053999672,499,4591.76,-54.3,-4.6,-120.5,0.47,0.2,-0.35,-0.1,-0.8,0.57,-153.1,0.3,1.0,0.67,-0.36,0.0,0.06,0.0,0.9873702446397704,0.6191930232165088,0.007211775091943595,0.28,0,0,0.0
8.047775014999388,500,4591.77,-54.3,-4.5,-120.5,0.42,0.2,-0.32,-0.1,-0.79,0.57,-153.1,-0.1,0.0,0.67,-0.36,0.0,0.07,0.0,0.9792854537876073,0.5646237685397242,0.014990634625224541,0.28,0,0,0.0
8.057503805999659,501,4591.78,-54.2,-4.6,-120.5,0.33,0.21,-0.27,-0.1,-0.79,0.57,-153.1,0.2,0.0,0.67,-0.36,0.0,0.02,0.0,0.9792854537876073,0.47528938553264577,0.014690821932720088,0.28,0,0,0.0
8.067850385999918,502,4591.79,-54.2,-4.6,-120.4,0.28,0.24,-0.25,-0.1,-0.79,0.57,-153.1,0.0,1.0,0.67,-0.36,0.0,-0.12,0.0,0.9792854537876073,0.4455333881989093,0.01439700549406564,0.28,0,0,0.0
8.077977478999856,503,4591.8,-54.2,-4.6,-120.4,0.23,0.27,-0.23,-0.09,-0.79,0.56,-153.1,-0.1,3.0,0.67,-0.36,-0.02,0.0,0.0,0.9725224933131368,0.42272922775696503,0.02073676664916546,0.28,0,0,0.0
8.087360601,504,4591.81,-54.2,-4.6,-120.3,0.15,0.31,-0.21,-0.1,-0.79,0.57,-153.1,0.1,-2.0,0.67,-0.36,0.0,-0.03,0.0,0.9792854537876073,0.4033608806019741,0.01369433005120102,0.28,0,0,0.0
8.097667366999303,505,4591.82,-54.2,-4.6,-120.3,0.09,0.35,-0.21,-0.1,-0.79,0.57,-153.1,0.1,1.0,0.67,-0.36,0.0,0.01,0.0,0.9792854537876073,0.4179712908801273,0.013420443450177011,0.28,0,0,0.0
8.107719158999316,506,4591.83,-54.2,-4.6,-120.3,0.04,0.37,-0.23,-0.1,-0.79,0.57,-153.1,-0.1,0.0,0.67,-0.36,-0.01,0.03,0.0,0.9792854537876073,0.43749285708454716,0.013152034581173422,0.28,0,0,0.0
8.117782151000029,507,4591.84,-54.2,-4.6,-120.2,0.01,0.38,-0.24,-0.11,-0.79,0.57,-153.1,0.1,0.0,0.67,-0.36,0.0,0.03,0.0,0.980357077803797,0.44955533585978047,0.011838802353684064,0.28,0,0,0.0
8.12785774599979,508,4591.85,-54.2,-4.7,-120.2,-0.01,0.37,-0.25,-0.11,-0.79,0.57,-153.1,-0.2,1.0,0.67,-0.36,-0.01,0.12,0.0,0.980357077803797,0.4466542286825459,0.011602026306610336,0.28,0,0,0.0
8.137629001999812,509,4591.86,-54.2,-4.7,-120.1,-0.03,0.34,-0.26,-0.11,-0.79,0.58,-153.1,0.3,0.0,0.67,-0.36,0.0,0.11,0.0,0.9862048468751308,0.4290687590584987,0.005639172090571076,0.28,0,0,0.0
8.147849180999401,510,4591.87,-54.2,-4.7,-120.1,-0.04,0.29,-0.25,-0.1,-0.78,0.58,-153.1,0.0,0.0,0.67,-0.36,0.0,0.01,0.0,0.9771386800244887,0.38496753109840315,0.014411232162388932,0.28,0,0,0.0
8.157994294999298,511,4591.88,-54.2,-4.7,-120.1,-0.13,0.24,-0.22,-0.1,-0.79,0.59,-153.1,0.2,0.0,0.67,-0.36,0.0,-0.03,0.0,0.9910600385445879,0.35057096285916206,0.0004800761694438993,0.28,0,0,0.0
8.171421566999925,512,4591.89,-54.2,-4.7,-120.0,-0.19,0.22,-0.19,-0.1,-0.8,0.58,-153.1,0.0,-1.0,0.67,-0.36,-0.02,0.01,0.0,0.993176721434811,0.34727510708370674,0.001603874586363574,0.28,0,0,0.0
8.179461482999614,513,4591.9,-54.2,-4.7,-120.0,-0.19,0.18,-0.19,-0.09,-0.8,0.58,-153.1,0.0,-1.0,0.67,-0.36,0.0,0.01,0.0,0.9922197337283714,0.3234192325759246,0.0006339491423255073,0.28,0,0,0.0
8.191364509999403,514,4591.91,-54.2,-4.7,-120.0,-0.19,0.17,-0.17,-0.1,-0.8,0.59,-153.1,0.0,-1.0,0.67,-0.36,0.01,0.01,0.0,0.9990495483208028,0.3064310689208913,0.007314488460061885,0.28,0,0,0.0
8.199374885999532,515,4591.92,-54.2,-4.7,-119.9,-0.22,0.13,-0.18,-0.1,-0.8,0.58,-153.1,0.0,2.0,0.67,-0.36,0.0,0.05,0.0,0.993176721434811,0.3125699921617557,0.0014128283425886012,0.28,0,0,0.0
8.207448364999436,516,4591.93,-54.2,-4.7,-119.9,-0.24,0.08,-0.18,-0.1,-0.8,0.58,-153.1,0.0,5.0,0.67,-0.36,-0.03,-0.09,0.0,0.993176721434811,0.31048349392520047,0.0013845717757368092,0.28,0,0,0.0
8.21782589599934,517,4591.94,-54.3,-4.7,-119.9,-0.24,0.04,-0.2,-0.11,-0.8,0.58,-153.1,0.0,-3.0,0.67,-0.36,0.0,-0.13,0.0,0.9942333730065593,0.31496031496047244,0.00239239888053544,0.28,0,0,0.0
8.227415723999911,518,4591.95,-54.3,-4.7,-119.9,-0.19,-0.02,-0.23,-0.11,-0.81,0.58,-153.1,0.0,1.0,0.67,-0.36,0.0,0.12,0.0,1.0022973610660662,0.29899832775452106,0.010247259201241365,0.28,0,0,0.0
8.237915452999914,519,4591.96,-54.3,-4.7,-119.9,-0.13,-0.07,-0.22,-0.11,-0.81,0.58,-153.1,0.1,-3.0,0.67,-0.36,0.0,0.02,0.0,1.0022973610660662,0.2649528259898354,0.010042314017216558,0.28,0,0,0.0
8.24741709599948,520,4591.97,-54.3,-4.7,-119.9,-0.08,-0.12,-0.22,-0.11,-0.8,0.58,-153.1,-0.2,-3.0,0.67,-0.36,0.0,-0.04,0.0,0.9942333730065593,0.2630589287593181,0.0019387594385555929,0.28,0,0,0.0
8.257898910999756,521,4591.98,-54.3,-4.7,-119.9,-0.09,-0.17,-0.22,-0.11,-0.81,0.58,-153.1,0.2,1.0,0.67,-0.36,0.0,-0.13,0.0,1.0022973610660662,0.29223278392404917,0.009802692548101177,0.28,0,0,0.0
8.26742901399939,522,4591.99,-54.3,-4.7,-119.9,-0.05,-0.24,-0.22,-0.11,-0.81,0.58,-153.1,-0.2,0.0,0.67,-0.36,0.0,0.04,0.0,1.0022973610660662,0.3293933818400121,0.00960663869713918,0.28,0,0,0.0
8.278013190999445,523,4592.0,-54.3,-4.7,-119.9,-0.05,-0.24,-0.22,-0.11,-0.81,0.58,-153.1,0.0,0.0,0.67,-0.36,0.0,0.21,0.0,1.0022973610660662,0.3293933818400121,0.00941450592319637,0.28,0,0,0.0
8.287348030999965,524,4592.01,-54.3,-4.7,-119.9,-0.06,-0.35,-0.23,-0.1,-0.8,0.59,-153.1,0.0,2.0,0.67,-0.36,0.0,-0.04,0.0,0.9990495483208028,0.4230839160261236,0.006043359314374386,0.28,0,0,0.0
8.29814848299975,525,4592.02,-54.3,-4.6,-119.9,-0.1,-0.35,-0.21,-0.09,-0.8,0.58,-153.1,-0.1,4.0,0.67,-0.36,-0.01,-0.01,0.0,0.9922197337283714,0.42023802778901387,0.0007707261724959613,0.28,0,0,0.0
8.307489822999742,526,4592.03,-54.3,-4.6,-119.9,-0.12,-0.36,-0.18,-0.08,-0.8,0.58,-153.1,0.5,0.0,0.67,-0.36,0.0,-0.08,0.0,0.9913626985114984,0.42,0.0015952061615815971,0.28,0,0,0.0
8.318098413999905,527,4592.04,-54.3,-4.6,-120.0,-0.1,-0.34,-0.13,-0.07,-0.8,0.58,-153.1,0.0,3.0,0.67,-0.36,-0.01,0.0,0.0,0.9906058752097123,0.3774917217635375,0.0023049888741003555,0.28,0,0,0.0
8.32744202899994,528,4592.05,-54.3,-4.5,-120.0,-0.06,-0.31,-0.08,-0.07,-0.8,0.57,-153.1,0.2,-1.0,0.67,-0.36,0.0,-0.08,0.0,0.9847842403288144,0.3257299494980466,0.007964091279898278,0.28,0,0,0.0
8.337908014999812,529,4592.06,-54.3,-4.5,-120.0,-0.03,-0.28,-0.05,-0.08,-0.8,0.57,-153.1,0.0,2.0,0.67,-0.36,-0.01,0.21,0.0,0.9855455342093535,0.28600699292150183,0.007058741451371975,0.28,0,0,0.0
8.347394630999588,530,4592.07,-54.3,-4.5,-120.0,0.01,-0.27,-0.02,-0.08,-0.8,0.57,-153.1,0.1,-2.0,0.67,-0.36,0.0,0.17,0.0,0.9855455342093535,0.2709243436828813,0.006917566622344551,0.28,0,0,0.0
8.357884577999357,531,4592.08,-54.3,-4.5,-120.1,0.05,-0.26,0.0,-0.08,-0.8,0.57,-153.1,0.0,0.0,0.67,-0.36,0.0,0.0,0.0,0.9855455342093535,0.26476404589747454,0.0067792152898976665,0.28,0,0,0.0
8.367433424999945,532,4592.09,-54.3,-4.5,-120.1,0.07,-0.24,0.0,-0.08,-0.8,0.57,-153.1,0.1,0.0,0.67,-0.36,0.0,0.15,0.0,0.9855455342093535,0.25,0.006643630984099702,0.28,0,0,0.0
8.377913179999268,533,4592.1,-54.3,-4.5,-120.1,0.1,-0.22,0.0,-0.08,-0.8,0.57,-153.1,0.2,3.0,0.67,-0.36,-0.02,0.12,0.0,0.9855455342093535,0.24166091947189144,0.006510758364417724,0.28,0,0,0.0
8.387486841999817,534,4592.11,-54.3,-4.5,-120.1,0.11,-0.21,0.02,-0.08,-0.8,0.57,-153.0,0.2,-2.0,0.67,-0.36,0.0,-0.01,0.0,0.9855455342093535,0.23790754506740636,0.006380543197129329,0.28,0,0,0.0
8.398031004999211,535,4592.12,-54.3,-4.4,-120.1,0.11,-0.22,0.04,-0.08,-0.79,0.57,-153.0,0.2,-1.0,0.67,-0.36,0.0,0.09,0.0,0.9774456506629922,0.24919871588754225,0.014190818208620892,0.28,0,0,0.0
8.407412556000054,536,4592.13,-54.3,-4.4,-120.2,0.12,-0.21,0.08,-0.07,-0.79,0.57,-153.0,0.1,1.0,0.67,-0.36,0.0,0.0,0.0,0.9766780431646859,0.2547547840571399,0.0146592571927886,0.28,0,0,0.0
8.417691478000052,537,4592.14,-54.3,-4.4,-120.2,0.09,-0.19,0.1,-0.07,-0.8,0.57,-153.0,0.4,3.0,0.67,-0.36,-0.01,-0.14,0.0,0.9847842403288144,0.23280893453645632,0.006421998828086917,0.28,0,0,0.0
8.42799277299946,538,4592.15,-54.3,-4.4,-120.2,0.1,-0.18,0.1,-0.07,-0.8,0.56,-153.0,0.4,-1.0,0.67,-0.36,0.0,-0.14,0.0,0.9790301323248433,0.22891046284519195,0.011932584695416915,0.28,0,0,0.0
8.438111391999882,539,4592.16,-54.2,-4.4,-120.2,0.17,-0.19,0.09,-0.07,-0.8,0.57,-153.0,0.6,1.0,0.67,-0.36,-0.02,-0.08,0.0,0.9847842403288144,0.27037011669191546,0.006054907157616918,0.28,0,0,0.0
8.447309268999561,540,4592.17,-54.2,-4.4,-120.2,0.22,-0.21,0.1,-0.07,-0.8,0.57,-153.0,1.4,2.0,0.67,-0.36,-0.03,-0.14,0.0,0.9847842403288144,0.32015621187164245,0.005933809014464608,0.28,0,0,0.0
8.45795499399992,541,4592.18,-54.2,-4.4,-120.3,0.25,-0.21,0.13,-0.07,-0.8,0.57,-153.0,1.9,6.0,0.67,-0.36,-0.06,0.03,0.0,0.9847842403288144,0.35142566781611156,0.0058151328341753405,0.28,0,0,0.0
8.46747460000006,542,4592.19,-54.2,-4.4,-120.3,0.3,-0.21,0.14,-0.07,-0.8,0.57,-153.0,3.5,17.0,0.67,-0.36,-0.12,-0.07,0.0,0.9847842403288144,0.3920459156782532,0.005698830177491843,0.28,0,0,0.0
8.478061059999163,543,4592.2,-54.1,-4.4,-120.3,0.32,-0.22,0.13,-0.07,-0.8,0.58,-152.9,7.1,31.0,0.67,-0.36,-0.24,-0.14,0.0,0.9906058752097123,0.4095119045888654,0.00012034860933796132,0.28,0,0,0.0
8.486978152999654,544,4592.21,-54.1,-4.4,-120.3,0.28,-0.24,0.1,-0.07,-0.79,0.58,-152.8,8.2,5.0,0.67,-0.36,-0.19,0.1,0.0,0.9825477087653302,0.38209946349085605,0.007779061478343285,0.28,0,0,0.0
8.497756107999521,545,4592.22,-54.1,-4.4,-120.4,0.28,-0.27,0.06,-0.07,-0.79,0.57,-152.8,6.8,0.0,0.66,-0.37,-0.19,0.07,0.0,0.9766780431646859,0.39357337308308854,0.013375752537407859,0.28,0,0,0.0
8.507587888999296,546,4592.23,-54.0,-4.4,-120.4,0.25,-0.32,0.05,-0.07,-0.79,0.58,-152.7,8.1,7.0,0.66,-0.37,-0.22,-0.02,0.0,0.9825477087653302,0.40914545090957566,0.00735596519802828,0.28,0,0,0.0
8.517726008999489,547,4592.24,-54.0,-4.4,-120.4,0.24,-0.39,0.05,-0.08,-0.8,0.59,-152.6,7.5,-11.0,0.66,-0.37,-0.16,0.28,0.0,0.9972462083156797,0.46065171225124085,0.007195683665274788,0.28,0,0,0.0
8.52755442399939,548,4592.25,-54.0,-4.3,-120.5,0.23,-0.46,0.05,-0.07,-0.8,0.59,-152.5,5.5,-5.0,0.66,-0.37,-0.16,-0.13,0.0,0.996493853468249,0.5167204273105526,0.00631446224148724,0.28,0,0,0.0
8.53763975899983,549,4592.26,-53.9,-4.3,-120.5,0.18,-0.52,0.06,-0.07,-0.8,0.59,-152.5,9.0,31.0,0.66,-0.37,-0.31,-0.04,0.0,0.996493853468249,0.5535341001239219,0.006188172996657526,0.28,0,0,0.0
8.547715150999466,550,4592.27,-53.9,-4.3,-120.6,0.19,-0.56,0.07,-0.07,-0.81,0.58,-152.4,11.8,20.0,0.65,-0.38,-0.34,-0.1,0.0,0.9986991538997118,0.5954829972383763,0.008225603959557848,0.28,0,0,0.0
8.557831852999698,551,4592.28,-53.9,-4.3,-120.6,0.24,-0.58,0.09,-0.07,-0.82,0.58,-152.2,14.2,16.0,0.65,-0.38,-0.38,-0.01,0.0,1.0068266980965492,0.6341135544995076,0.016026085193267425,0.28,0,0,0.0
8.567673327999728,552,4592.29,-53.9,-4.2,-120.7,0.28,-0.55,0.09,-0.05,-0.82,0.58,-152.1,13.0,3.0,0.64,-0.39,-0.37,-0.06,0.0,1.0056341282991543,0.6236986451805071,0.014536845087955053,0.28,0,0,0.0
8.577843729000051,553,4592.3,-53.9,-4.2,-120.7,0.33,-0.5,0.11,-0.05,-0.82,0.58,-151.9,15.0,17.0,0.64,-0.39,-0.45,-0.01,0.0,1.0056341282991543,0.6090976933136424,0.014246108186195983,0.28,0,0,0.0
8.587757401999625,554,4592.31,-53.8,-4.2,-120.8,0.32,-0.45,0.15,-0.04,-0.81,0.59,-151.8,17.6,16.0,0.64,-0.39,-0.48,0.08,0.0,1.0028958071504737,0.5721887800367987,0.011277631296764956,0.28,0,0,0.0
8.597717267999542,555,4592.32,-53.8,-4.1,-120.8,0.31,-0.4,0.16,-0.04,-0.81,0.58,-151.6,19.2,23.0,0.63,-0.4,-0.56,0.0,0.0,0.9970456358662828,0.530754180388624,0.005318910812322608,0.28,0,0,0.0
8.607625885999369,556,4592.33,-53.8,-4.1,-120.8,0.3,-0.36,0.14,-0.04,-0.81,0.58,-151.4,22.1,26.0,0.6200000000000001,-0.41,-0.63,0.13,0.0,0.9970456358662828,0.48908077042549936,0.005212532596076125,0.28,0,0,0.0
8.617751234000025,557,4592.34,-53.7,-4.1,-120.9,0.29,-0.32,0.13,-0.05,-0.81,0.59,-151.1,25.6,33.0,0.6200000000000001,-0.41,-0.73,-0.11,0.0,1.0033444074693394,0.45099889135118726,0.01128107811515,0.28,0,0,0.0
8.627489792999768,558,4592.35,-53.7,-4.1,-120.9,0.3,-0.29,0.13,-0.05,-0.8,0.59,-150.8,28.5,27.0,0.6100000000000001,-0.42,-0.81,0.06,0.0,0.995288902781499,0.43703546766824314,0.0031610619587633115,0.28,0,0,0.0
8.637536120999357,559,4592.36,-53.7,-4.1,-120.9,0.31,-0.28,0.14,-0.06,-0.8,0.59,-150.5,29.5,-1.0,0.6000000000000001,-0.43,-0.76,0.23,0.0,0.9958413528268447,0.44056781543821383,0.003639241764026857,0.28,0,0,0.0
8.64767143499921,560,4592.37,-53.6,-4.0,-121.0,0.31,-0.27,0.13,-0.06,-0.8,0.59,-150.3,28.8,10.0,0.5900000000000001,-0.44,-0.8,-0.23,0.0,0.9958413528268447,0.431161222746202,0.0035664569287463532,0.28,0,0,0.0
8.657486561999576,561,4592.38,-53.6,-4.0,-121.0,0.27,-0.28,0.13,-0.06,-0.78,0.59,-150.0,30.0,10.0,0.5800000000000001,-0.45,-0.85,-0.06,0.0,0.9798469268207153,0.4101219330881976,0.01217940969583542,0.28,0,0,0.0
8.667605826999534,562,4592.39,-53.5,-4.0,-121.0,0.24,-0.31,0.14,-0.06,-0.78,0.59,-149.6,33.0,21.0,0.5800000000000001,-0.45,-0.91,-0.09,0.0,0.9798469268207153,0.41629316592997295,0.011935821501918742,0.28,0,0,0.0
8.677675508999528,563,4592.4,-53.5,-4.0,-121.1,0.24,-0.33,0.14,-0.05,-0.79,0.59,-149.3,35.9,29.0,0.5700000000000001,-0.46,-1.01,-0.03,0.0,0.98726896031426,0.43139309220245986,0.004423512248206474,0.28,0,0,0.0
8.687761236999904,564,4592.41,-53.5,-4.0,-121.1,0.23,-0.34,0.14,-0.05,-0.79,0.58,-148.9,36.2,9.0,0.56,-0.47,-0.99,-0.1,0.0,0.9813256340277676,0.43370496884402887,0.01015950176400493,0.28,0,0,0.0
8.697614949999661,565,4592.42,-53.5,-4.0,-121.1,0.24,-0.33,0.15,-0.05,-0.79,0.58,-148.6,37.7,14.0,0.55,-0.48,-1.04,-0.08,0.0,0.9813256340277676,0.43474130238568315,0.009956311728724798,0.28,0,0,0.0
8.707769261000067,566,4592.43,-53.4,-4.0,-121.2,0.26,-0.3,0.16,-0.05,-0.79,0.58,-148.2,39.8,19.0,0.53,-0.5,-1.1,0.05,0.0,0.9813256340277676,0.42801869118065394,0.009757185494150278,0.28,0,0,0.0
8.7187779399992,567,4592.44,-53.4,-4.0,-121.2,0.23,-0.25,0.17,-0.05,-0.79,0.58,-147.8,40.1,-5.0,0.52,-0.51,-1.04,0.26,0.0,0.9813256340277676,0.37986839826445157,0.009562041784267228,0.28,0,0,0.0
8.726779248999264,568,4592.45,-53.4,-3.9,-121.2,0.21,-0.21,0.16,-0.05,-0.8,0.58,-147.4,35.1,-37.0,0.51,-0.52,-0.9,0.01,0.0,0.9893937537704592,0.33734255586865997,0.001464043600744147,0.28,0,0,0.0
8.737870926999676,569,4592.46,-53.4,-3.9,-121.3,0.16,-0.18,0.13,-0.05,-0.79,0.59,-147.1,31.1,-43.0,0.51,-0.52,-0.77,0.14,0.0,0.98726896031426,0.27367864366808015,0.0035170603158044544,0.28,0,0,0.0
8.747908923000068,570,4592.47,-53.3,-3.9,-121.3,0.11,-0.15,0.13,-0.05,-0.79,0.6,-146.8,26.3,-38.0,0.5,-0.53,-0.66,0.11,0.0,0.9932774033471213,0.22693611435820435,0.0024415550627157057,0.28,0,0,0.0
8.757627521999893,571,4592.48,-53.3,-3.9,-121.3,0.06,-0.14,0.14,-0.06,-0.79,0.6,-146.6,21.9,-51.0,0.49,-0.54,-0.51,0.0,0.0,0.9938309715439543,0.20688160865577201,0.002935220794357707,0.28,0,0,0.0
8.767633458999626,572,4592.49,-53.3,-3.9,-121.3,0.03,-0.13,0.16,-0.06,-0.79,0.6,-146.4,17.0,-35.0,0.49,-0.54,-0.45,0.0,0.0,0.9938309715439543,0.2083266665599966,0.0028765163784705283,0.28,0,0,0.0
8.777630419999696,573,4592.5,-53.3,-3.9,-121.4,0.03,-0.15,0.17,-0.06,-0.79,0.6,-146.2,14.1,-32.0,0.49,-0.54,-0.35,-0.19,0.0,0.9938309715439543,0.22869193252058545,0.00281898605090114,0.28,0,0,0.0
8.786723569999594,574,4592.51,-53.3,-3.9,-121.4,0.05,-0.18,0.18,-0.06,-0.79,0.6,-146.1,9.7,-56.0,0.48,-0.55,-0.16,0.02,0.0,0.9938309715439543,0.25942243542145693,0.0027626063298831216,0.28,0,0,0.0
8.797662533999755,575,4592.52,-53.3,-3.9,-121.4,0.07,-0.19,0.19,-0.06,-0.79,0.59,-146.1,1.0,-67.0,0.48,-0.55,0.03,-0.01,0.0,0.9878258955909185,0.2776688675382964,0.0031776202306895707,0.28,0,0,0.0
8.806622210999194,576,4592.53,-53.3,-3.9,-121.4,0.1,-0.19,0.19,-0.06,-0.79,0.59,-146.1,-0.1,-17.0,0.48,-0.55,0.0,0.17,0.0,0.9878258955909185,0.286705423736629,0.003114067826075817,0.28,0,0,0.0
8.817566140000054,577,4592.54,-53.3,-3.9,-121.5,0.08,-0.2,0.2,-0.05,-0.79,0.59,-146.1,0.2,-5.0,0.48,-0.55,0.0,0.07,0.0,0.98726896031426,0.2939387691339814,0.003597583040679586,0.28,0,0,0.0
8.827663704999395,578,4592.55,-53.2,-3.9,-121.5,0.07,-0.19,0.18,-0.05,-0.79,0.59,-146.1,-0.2,-5.0,0.48,-0.55,0.01,0.13,0.0,0.98726896031426,0.2709243436828813,0.0035256313798659455,0.28,0,0,0.0
8.837653141999908,579,4592.56,-53.2,-3.9,-121.5,0.07,-0.19,0.16,-0.05,-0.79,0.59,-146.1,0.3,-1.0,0.48,-0.55,0.0,0.08,0.0,0.98726896031426,0.2580697580112788,0.003455118752268671,0.28,0,0,0.0
8.847773096999845,580,4592.57,-53.2,-3.9,-121.5,0.07,-0.19,0.14,-0.05,-0.79,0.59,-146.1,0.0,-1.0,0.48,-0.55,0.0,-0.04,0.0,0.98726896031426,0.24617067250182342,0.0033860163772232443,0.28,0,0,0.0
8.857619532999706,581,4592.58,-53.2,-3.9,-121.6,0.1,-0.18,0.12,-0.05,-0.79,0.59,-146.1,0.1,-1.0,0.48,-0.55,0.0,0.0,0.0,0.98726896031426,0.23832750575625972,0.003318296049678815,0.28,0,0,0.0
8.867691691999426,582,4592.59,-53.2,-3.9,-121.6,0.1,-0.16,0.1,-0.06,-0.79,0.59,-146.1,-0.1,0.0,0.48,-0.55,0.0,0.13,0.0,0.9878258955909185,0.21354156504062624,0.0027061335575599976,0.28,0,0,0.0
8.877599997999823,583,4592.6,-53.2,-3.9,-121.6,0.09,-0.13,0.07,-0.06,-0.79,0.59,-146.1,0.1,0.0,0.48,-0.55,0.0,0.08,0.0,0.9878258955909185,0.17291616465790582,0.002652010886408762,0.28,0,0,0.0
8.887663650999457,584,4592.61,-53.2,-3.9,-121.6,0.1,-0.12,0.06,-0.06,-0.79,0.6,-146.1,0.1,0.0,0.48,-0.55,0.0,0.04,0.0,0.9938309715439543,0.1673320053068151,0.0032860037652945318,0.28,0,0,0.0
8.897657945999526,585,4592.62,-53.2,-3.9,-121.6,0.08,-0.12,0.04,-0.06,-0.79,0.6,-146.1,0.0,2.0,0.48,-0.55,0.0,0.21,0.0,0.9938309715439543,0.14966629547095767,0.0032202836899886123,0.28,0,0,0.0
8.907550869999795,586,4592.63,-53.2,-3.9,-121.6,0.07,-0.12,0.01,-0.06,-0.79,0.6,-146.1,0.0,0.0,0.48,-0.55,0.0,-0.04,0.0,0.9938309715439543,0.1392838827718412,0.0031558780161888844,0.28,0,0,0.0
8.917601208999258,587,4592.64,-53.1,-3.9,-121.7,0.07,-0.16,0.0,-0.06,-0.79,0.6,-146.1,0.1,1.0,0.48,-0.55,-0.01,0.14,0.0,0.9938309715439543,0.1746424919657298,0.003092760455865151,0.28,0,0,0.0
8.927632222999819,588,4592.65,-53.1,-3.9,-121.7,0.1,-0.18,-0.01,-0.06,-0.79,0.59,-146.1,0.0,0.0,0.48,-0.55,0.0,0.05,0.0,0.9878258955909185,0.20615528128088303,0.002854069187227193,0.28,0,0,0.0
8.937604789999568,589,4592.66,-53.1,-3.8,-121.7,0.11,-0.19,0.0,-0.06,-0.79,0.6,-146.1,0.0,4.0,0.48,-0.55,-0.02,0.03,0.0,0.9938309715439543,0.21954498400100148,0.0030879866304923675,0.28,0,0,0.0
8.947622630999831,590,4592.67,-53.1,-3.8,-121.7,0.13,-0.2,0.0,-0.06,-0.79,0.59,-146.1,0.1,-4.0,0.48,-0.55,0.01,-0.18,0.0,0.9878258955909185,0.23853720883753127,0.0028587475360924985,0.28,0,0,0.0
8.958617512999808,591,4592.68,-53.1,-3.8,-121.7,0.16,-0.21,0.01,-0.07,-0.79,0.59,-146.1,0.0,1.0,0.48,-0.55,0.0,-0.13,0.0,0.9884836872705589,0.2641968962724581,0.0021569367393230454,0.28,0,0,0.0
8.966598501999215,592,4592.69,-53.1,-3.8,-121.7,0.18,-0.21,0.04,-0.06,-0.79,0.6,-146.1,0.0,5.0,0.48,-0.55,-0.02,0.05,0.0,0.9938309715439543,0.27946377224964236,0.003126540583390902,0.28,0,0,0.0
8.977714939999714,593,4592.7,-53.0,-3.8,-121.8,0.21,-0.22,0.04,-0.06,-0.79,0.59,-146.1,0.3,0.0,0.48,-0.55,0.0,0.09,0.0,0.9878258955909185,0.30675723300355934,0.0028209646622520124,0.28,0,0,0.0
8.987698292999994,594,4592.71,-53.0,-3.8,-121.8,0.24,-0.21,0.04,-0.06,-0.79,0.59,-146.1,-0.2,-1.0,0.48,-0.55,0.0,-0.09,0.0,0.9878258955909185,0.32140317359976395,0.0027645453690069433,0.28,0,0,0.0
8.997696419000022,595,4592.72,-53.0,-3.8,-121.8,0.26,-0.17,0.06,-0.06,-0.8,0.6,-146.1,0.1,-1.0,0.48,-0.55,0.0,-0.04,0.0,1.0017983829094554,0.31638584039112755,0.01098378311053938,0.28,0,0,0.0
9.007723518999228,596,4592.73,-53.0,-3.8,-121.8,0.27,-0.14,0.05,-0.05,-0.8,0.59,-146.1,-0.1,-1.0,0.48,-0.55,0.0,0.0,0.0,0.995288902781499,0.3082207001484488,0.004384816922931245,0.28,0,0,0.0
9.017665714999566,597,4592.74,-52.9,-3.8,-121.8,0.3,-0.13,0.04,-0.06,-0.81,0.6,-146.1,0.2,1.0,0.48,-0.55,0.0,0.03,0.0,1.0098019607824102,0.3293933818400121,0.01851991742536574,0.28,0,0,0.0
9.027657999999974,598,4592.75,-52.9,-3.7,-121.8,0.38,-0.13,0.01,-0.06,-0.8,0.6,-146.1,0.0,-2.0,0.48,-0.55,0.0,0.08,0.0,1.0017983829094554,0.4017461885320133,0.01030601276136267,0.28,0,0,0.0
9.037727260999418,599,4592.76,-52.9,-3.7,-121.8,0.44,-0.12,-0.01,-0.05,-0.79,0.59,-146.1,0.0,0.0,0.48,-0.55,0.0,-0.32,0.0,0.98726896031426,0.4561797891182817,0.004138941637156113,0.28,0,0,0.0
9.04796493699996,600,4592.77,-52.8,-3.7,-121.9,0.49,-0.11,-0.03,-0.06,-0.78,0.59,-146.1,0.2,0.0,0.48,-0.55,0.0,0.17,0.0,0.9798469268207153,0.5030904491242106,0.011329755628086802,0.28,0,0,0.0
9.057679869999447,601,4592.78,-52.8,-3.7,-121.9,0.45,-0.08,-0.01,-0.06,-0.77,0.58,-146.1,-0.2,-1.0,0.48,-0.55,0.0,0.14,0.0,0.9658674857349739,0.4571651780264984,0.024803012779551548,0.28,0,0,0.0
9.067849731000024,602,4592.79,-52.7,-3.7,-121.9,0.29,-0.07,-0.04,-0.08,-0.79,0.6,-146.1,0.3,-2.0,0.48,-0.55,0.0,-0.13,0.0,0.995238664843765,0.3009983388658482,0.004476803002654739,0.28,0,0,0.0
9.077708805999464,603,4592.8,-52.7,-3.7,-121.9,0.43,-0.03,0.01,-0.05,-0.76,0.58,-146.1,0.0,0.0,0.48,-0.55,0.0,0.14,0.0,0.9573400649716901,0.43116122274620194,0.03275336093203174,0.28,0,0,0.0
9.087631825999779,604,4592.81,-52.6,-3.7,-121.9,0.39,-0.07,0.0,-0.08,-0.81,0.6,-146.1,0.4,0.0,0.48,-0.55,0.0,0.0,0.0,1.0111874208078342,0.396232255123179,0.020672115006030056,0.28,0,0,0.0
9.097749436999948,605,4592.82,-52.6,-3.7,-121.9,0.36,-0.05,0.02,-0.07,-0.79,0.6,-146.1,1.0,6.0,0.48,-0.55,-0.03,0.08,0.0,0.9944847912361456,0.3640054944640259,0.0038900957256546853,0.28,0,0,0.0
9.107676550999713,606,4592.83,-52.6,-3.7,-121.9,0.41,-0.06,0.02,-0.06,-0.79,0.6,-146.0,2.1,9.0,0.48,-0.55,-0.06,-0.06,0.0,0.9938309715439543,0.4148493702538308,0.0031715505127940524,0.28,0,0,0.0
9.11775123499956,607,4592.84,-52.5,-3.7,-121.9,0.49,-0.07,-0.02,-0.06,-0.8,0.6,-146.0,3.8,20.0,0.48,-0.55,-0.15,-0.09,0.0,1.0017983829094554,0.4953786430600334,0.010916182640729355,0.28,0,0,0.0
9.127827299999808,608,4592.85,-52.5,-3.7,-121.9,0.46,-0.05,-0.04,-0.06,-0.78,0.59,-145.9,8.7,43.0,0.48,-0.55,-0.3,-0.01,0.0,0.9798469268207153,0.46443514078932485,0.01081456797905056,0.28,0,0,0.0
9.137641710000025,609,4592.86,-52.4,-3.7,-121.9,0.4,-0.05,-0.05,-0.07,-0.78,0.61,-145.8,13.5,47.0,0.47,-0.56,-0.43,-0.01,0.0,0.9926731586982697,0.4062019202317981,0.0019714306205337317,0.28,0,0,0.0
9.147755840999707,610,4592.87,-52.4,-3.7,-121.9,0.33,-0.09,-0.05,-0.07,-0.77,0.61,-145.6,18.8,40.0,0.47,-0.56,-0.53,0.11,0.0,0.9848350115628506,0.34568772034887213,0.005749382184587648,0.28,0,0,0.0
9.157754907999333,611,4592.88,-52.4,-3.7,-121.9,0.21,-0.11,-0.04,-0.07,-0.77,0.61,-145.4,22.1,39.0,0.4600000000000001,-0.57,-0.64,-0.02,0.0,0.9848350115628506,0.24041630560342614,0.005634394540895871,0.28,0,0,0.0
9.167616434999218,612,4592.89,-52.3,-3.7,-121.9,0.11,-0.14,0.01,-0.06,-0.76,0.61,-145.2,25.1,27.0,0.4600000000000001,-0.57,-0.71,0.22,0.0,0.9763708311906906,0.1783255450012701,0.013816603414794737,0.28,0,0,0.0
9.177551676999428,613,4592.9,-52.3,-3.7,-121.9,0.01,-0.15,0.07,-0.06,-0.77,0.61,-144.9,28.2,28.0,0.45000000000000007,-0.58,-0.78,-0.09,0.0,0.9841747812253675,0.16583123951776998,0.005892400312515478,0.28,0,0,0.0
9.187572132999776,614,4592.91,-52.3,-3.7,-122.0,-0.07,-0.15,0.11,-0.06,-0.78,0.61,-144.6,28.1,9.0,0.44000000000000006,-0.59,-0.77,0.01,0.0,0.9920181449953424,0.19874606914351792,0.0019119441883101995,0.28,0,0,0.0
9.197678724999605,615,4592.92,-52.3,-3.7,-122.0,-0.1,-0.13,0.15,-0.05,-0.79,0.61,-144.3,28.6,9.0,0.43000000000000005,-0.6,-0.8,0.05,0.0,0.9993497886125758,0.22226110770892868,0.009058716049432758,0.28,0,0,0.0
