host_time_s,seq,device_time_s,roll,pitch,yaw,gyro_x,gyro_y,gyro_z,accel_x,accel_y,accel_z,motor_pos,motor_vel,motor_iq_meas,motor_iq_set,acc_mag,gyro_mag,acc_residual,threshold,heel_strike,hs_count,torque_cmd_nm
2.067500547999771,2,498.27,-103.3,4.9,-75.4,0.0,0.0,0.0,0.08,-0.97,-0.23,-1.75,0.0,0.05,0.0,1.0000999950004998,0.0,0.0,0.28,0,0,0.0
2.075544742999682,3,498.28,-103.3,4.9,-75.4,0.0,0.0,0.0,0.08,-0.97,-0.23,-1.75,0.0,-0.04,0.0,1.0000999950004998,0.0,0.0,0.28,0,0,0.0
2.0867724169997928,4,498.29,-103.3,5.0,-75.4,0.0,0.0,0.0,0.08,-0.96,-0.22,-1.75,0.0,0.0,0.0,0.98812954616285,0.0,0.011731039860896852,0.28,0,0,0.0
2.095388642999751,5,498.3,-103.3,5.0,-75.4,0.01,-0.03,-0.01,0.08,-0.96,-0.22,-1.75,0.0,-0.03,0.0,0.98812954616285,0.033166247903554,0.011496419063678931,0.28,0,0,0.0
2.1068724930000826,6,498.31,-103.3,5.0,-75.4,0.0,-0.03,-0.01,0.08,-0.96,-0.23,-1.75,0.0,-0.03,0.0,0.9904039579888602,0.03162277660168379,0.009037567092915366,0.28,0,0,0.0
2.1155842799998936,7,498.32,-103.3,5.0,-75.4,-0.01,-0.03,-0.01,0.08,-0.96,-0.23,-1.75,0.0,0.12,0.0,0.9904039579888602,0.033166247903554,0.008856815751057012,0.28,0,0,0.0
2.1266385369999625,8,498.33,-103.3,5.0,-75.4,0.0,0.0,0.0,0.08,-0.97,-0.23,-1.75,0.0,0.0,0.0,1.0000999950004998,0.0,0.0008224368353709766,0.28,0,0,0.0
2.1355183989999205,9,498.34,-103.3,5.0,-75.4,0.0,0.0,0.0,0.08,-0.96,-0.23,-1.75,0.01,0.02,0.0,0.9904039579888602,0.0,0.008696128172743345,0.28,0,0,0.0
2.146772793999844,10,498.35,-103.3,5.0,-75.4,0.0,0.0,0.0,0.08,-0.97,-0.23,-1.75,-0.01,0.09,0.0,1.0000999950004998,0.0,0.000979910662118444,0.28,0,0,0.0
2.155459026999779,11,498.36,-103.3,5.0,-75.4,0.0,0.0,0.0,0.08,-0.97,-0.23,-1.75,0.0,0.0,0.0,1.0000999950004998,0.0,0.0009603124488760661,0.28,0,0,0.0
2.166648657999758,12,498.37,-103.3,5.0,-75.4,0.03,-0.02,-0.02,0.09,-0.96,-0.23,-1.75,0.02,-0.12,0.0,0.9912618221237011,0.0412310562561766,0.007720303219364233,0.28,0,0,0.0
2.175456961999771,13,498.38,-103.3,5.0,-75.4,0.03,-0.01,-0.01,0.09,-0.96,-0.23,-1.75,-0.03,0.05,0.0,0.9912618221237011,0.033166247903554,0.007565897154976908,0.28,0,0,0.0
2.1867778659998294,14,498.39,-103.3,5.0,-75.4,0.0,0.0,0.0,0.09,-0.96,-0.23,-1.75,0.02,-0.03,0.0,0.9912618221237011,0.0,0.007414579211877381,0.28,0,0,0.0
2.1954763710000407,15,498.4,-103.3,5.0,-75.4,0.0,0.0,0.0,0.09,-0.96,-0.23,-1.75,0.01,0.14,0.0,0.9912618221237011,0.0,0.007266287627639811,0.28,0,0,0.0
2.2066135219997705,16,498.41,-103.3,5.0,-75.4,-0.03,0.01,0.0,0.08,-0.96,-0.23,-1.75,0.0,-0.12,0.0,0.9904039579888602,0.03162277660168379,0.007961668727231141,0.28,0,0,0.0
2.2155441509999036,17,498.42,-103.3,5.0,-75.4,-0.05,0.02,0.01,0.08,-0.96,-0.23,-1.75,0.0,0.02,0.0,0.9904039579888602,0.05477225575051661,0.007802435352686543,0.28,0,0,0.0
2.2266271519997645,18,498.43,-103.4,5.0,-75.4,-0.03,0.02,0.01,0.08,-0.96,-0.23,-1.75,0.0,0.09,0.0,0.9904039579888602,0.03741657386773942,0.0076463866456327745,0.28,0,0,0.0
2.2354592579999917,19,498.44,-103.4,5.0,-75.4,0.0,0.0,0.0,0.08,-0.96,-0.23,-1.75,-0.01,-0.16,0.0,0.9904039579888602,0.0,0.00749345891272013,0.28,0,0,0.0
2.246756561999973,20,498.45,-103.4,5.0,-75.4,0.0,0.0,0.0,0.08,-0.96,-0.22,-1.75,0.01,0.0,0.0,0.98812954616285,0.0,0.0095725133239557,0.28,0,0,0.0
2.2553360789997896,21,498.46,-103.3,5.0,-75.4,0.0,0.0,0.0,0.08,-0.96,-0.22,-1.75,0.0,0.11,0.0,0.98812954616285,0.0,0.009381063057476546,0.28,0,0,0.0
2.2666219729999284,22,498.47,-103.3,5.0,-75.4,0.0,0.0,0.03,0.08,-0.96,-0.23,-1.75,0.0,-0.13,0.0,0.9904039579888602,0.03,0.006964518206837078,0.28,0,0,0.0
2.275460698999723,23,498.48,-103.3,5.0,-75.4,0.0,0.01,0.03,0.08,-0.96,-0.23,-1.75,-0.02,-0.03,0.0,0.9904039579888602,0.03162277660168379,0.006825227842700343,0.28,0,0,0.0
2.2866535789999034,24,498.49,-103.3,5.0,-75.4,0.0,0.0,0.0,0.08,-0.96,-0.22,-1.75,0.0,-0.03,0.0,0.98812954616285,0.0,0.00891764687533636,0.28,0,0,0.0
2.2954428419998294,25,498.5,-103.3,5.0,-75.4,0.0,0.0,0.0,0.08,-0.96,-0.22,-1.75,0.0,-0.01,0.0,0.98812954616285,0.0,0.008739293937829684,0.28,0,0,0.0
2.306735584999842,26,498.51,-103.3,5.0,-75.4,0.0,0.0,0.0,0.08,-0.97,-0.22,-1.75,-0.01,0.12,0.0,0.9978476837674174,0.0,0.0009592667934029686,0.28,0,0,0.0
2.3154643799998667,27,498.52,-103.3,5.0,-75.4,0.0,0.0,0.0,0.08,-0.97,-0.22,-1.75,0.01,-0.03,0.0,0.9978476837674174,0.0,0.0009400814575348804,0.28,0,0,0.0
2.3267588999997315,28,498.53,-103.3,5.0,-75.4,0.0,0.0,0.0,0.08,-0.96,-0.22,-1.75,0.0,-0.03,0.0,0.98812954616285,0.0,0.008602495024091827,0.28,0,0,0.0
2.335331758999928,29,498.54,-103.3,5.0,-75.4,0.0,0.0,0.0,0.08,-0.96,-0.22,-1.75,0.0,-0.03,0.0,0.98812954616285,0.0,0.00843044512361002,0.28,0,0,0.0
2.346587351999915,30,498.55,-103.3,5.0,-75.4,0.0,0.0,0.0,0.08,-0.96,-0.23,-1.75,0.0,-0.1,0.0,0.9904039579888602,0.0,0.0060329126316478465,0.28,0,0,0.0
2.3553333439999733,31,498.56,-103.3,5.0,-75.4,0.0,0.0,0.0,0.08,-0.96,-0.23,-1.75,0.0,-0.01,0.0,0.9904039579888602,0.0,0.005912254379014881,0.28,0,0,0.0
2.3667466239999158,32,498.57,-103.3,5.0,-75.4,0.0,0.0,0.0,0.08,-0.96,-0.22,-1.75,0.0,-0.07,0.0,0.98812954616285,0.0,0.008022932880924594,0.28,0,0,0.0
2.3754539709998426,33,498.58,-103.3,5.0,-75.4,0.0,0.0,0.0,0.08,-0.96,-0.22,-1.75,0.0,-0.2,0.0,0.98812954616285,0.0,0.007862474223306104,0.28,0,0,0.0
2.38666377599975,34,498.59,-103.3,5.0,-75.4,0.0,0.0,0.0,0.08,-0.96,-0.23,-1.75,-0.01,0.08,0.0,0.9904039579888602,0.0,0.005476301149350049,0.28,0,0,0.0
2.3954561880000256,35,498.6,-103.3,5.0,-75.4,0.0,0.0,0.0,0.08,-0.97,-0.23,-1.75,0.0,-0.03,0.0,1.0000999950004998,0.0,0.00413534114504388,0.28,0,0,0.0
2.40658672499967,36,498.61,-103.3,5.0,-75.4,0.0,0.0,0.0,0.08,-0.97,-0.22,-1.75,0.0,-0.13,0.0,0.9978476837674174,0.0,0.001845369313722256,0.28,0,0,0.0
2.415444933999879,37,498.62,-103.3,5.0,-75.4,0.04,-0.01,0.0,0.08,-0.97,-0.22,-1.75,0.0,-0.05,0.0,0.9978476837674174,0.04123105625617661,0.0018084619274477687,0.28,0,0,0.0
2.4267873059998237,38,498.63,-103.3,5.0,-75.4,0.05,-0.02,0.0,0.09,-0.96,-0.22,-1.75,0.0,0.05,0.0,0.9889893831583836,0.05385164807134505,0.006908841907954266,0.28,0,0,0.0
2.435331546999805,39,498.64,-103.3,5.0,-75.4,0.03,-0.02,0.0,0.09,-0.96,-0.22,-1.75,0.0,-0.04,0.0,0.9889893831583836,0.03605551275463989,0.006770665069795179,0.28,0,0,0.0
2.4466323179999563,40,498.65,-103.3,5.0,-75.4,0.0,0.0,0.0,0.09,-0.96,-0.22,-1.75,-0.01,-0.14,0.0,0.9889893831583836,0.0,0.006635251768399297,0.28,0,0,0.0
2.4553408269998727,41,498.66,-103.3,5.0,-75.4,0.0,0.0,0.0,0.09,-0.97,-0.22,-1.75,0.01,-0.13,0.0,0.9986991538997116,0.0,0.0030130285934701906,0.28,0,0,0.0
2.4667033129999254,42,498.67,-103.3,5.0,-75.4,0.0,0.0,0.0,0.09,-0.96,-0.23,-1.75,0.0,0.14,0.0,0.9912618221237011,0.0,0.004335817118889529,0.28,0,0,0.0
2.4754324219998125,43,498.68,-103.3,5.0,-75.4,0.0,0.0,0.0,0.08,-0.97,-0.22,-1.75,0.0,0.0,0.0,0.9978476837674174,0.0,0.0022050436343302726,0.28,0,0,0.0
2.486764244999904,44,498.69,-103.3,5.0,-75.4,0.0,0.0,0.0,0.08,-0.97,-0.22,-1.75,0.0,0.0,0.0,0.9978476837674174,0.0,0.0021609427616436916,0.28,0,0,0.0
2.4954437309997957,45,498.7,-103.3,5.0,-75.4,0.03,0.0,0.0,0.08,-0.96,-0.22,-1.75,0.0,-0.59,0.0,0.98812954616285,0.03,0.007406050946065279,0.28,0,0,0.0
2.506671272999938,46,498.71,-103.3,5.0,-75.4,0.03,-0.02,0.0,0.08,-0.96,-0.22,-1.75,-0.01,0.08,0.0,0.98812954616285,0.03605551275463989,0.0072579299271440245,0.28,0,0,0.0
2.515340709999691,47,498.72,-103.3,5.0,-75.4,0.04,-0.02,0.0,0.08,-0.96,-0.22,-1.75,0.0,-0.04,0.0,0.98812954616285,0.044721359549995794,0.0071127713286011085,0.28,0,0,0.0
2.5267350629997054,48,498.73,-103.3,5.0,-75.4,0.04,-0.02,0.0,0.08,-0.96,-0.22,-1.75,0.0,-0.12,0.0,0.98812954616285,0.044721359549995794,0.0069705159020291285,0.28,0,0,0.0
2.53534227199998,49,498.74,-103.3,5.0,-75.4,0.03,-0.02,0.0,0.08,-0.96,-0.22,-1.75,0.0,-0.08,0.0,0.98812954616285,0.03605551275463989,0.006831105583988584,0.28,0,0,0.0
2.546873981999852,50,498.75,-103.3,5.0,-75.4,0.01,-0.03,0.0,0.09,-0.96,-0.22,-1.75,-0.01,-0.14,0.0,0.9889893831583836,0.03162277660168379,0.005851843216685859,0.28,0,0,0.0
2.555347313999846,51,498.76,-103.3,5.0,-75.4,0.02,-0.03,0.0,0.09,-0.96,-0.22,-1.75,0.0,0.02,0.0,0.9889893831583836,0.03605551275463989,0.005734806352352129,0.28,0,0,0.0
2.56689179399973,52,498.77,-103.3,5.0,-75.4,0.01,-0.03,0.0,0.08,-0.96,-0.23,-1.75,-0.01,0.2,0.0,0.9904039579888602,0.03162277660168379,0.004233826891438031,0.28,0,0,0.0
2.5755007959996874,53,498.78,-103.3,5.0,-75.4,0.0,0.0,0.0,0.09,-0.96,-0.23,-1.75,0.0,0.11,0.0,0.9912618221237011,0.0,0.003308443501465197,0.28,0,0,0.0
2.5867549330000656,54,498.79,-103.3,5.0,-75.4,0.0,0.0,0.0,0.08,-0.97,-0.23,-1.75,0.01,-0.15,0.0,1.0000999950004998,0.0,0.0054191347878269625,0.28,0,0,0.0
2.5954571190000024,55,498.8,-103.3,5.0,-75.4,0.04,0.01,0.0,0.08,-0.97,-0.23,-1.75,0.0,0.03,0.0,1.0000999950004998,0.04123105625617661,0.0053107520920704365,0.28,0,0,0.0
2.606770507999954,56,498.81,-103.3,5.0,-75.4,0.05,0.0,0.0,0.08,-0.96,-0.22,-1.75,-0.02,0.07,0.0,0.98812954616285,0.05,0.0065265028106678,0.28,0,0,0.0
2.6154892839999775,57,498.82,-103.3,5.0,-75.4,0.06,0.0,0.0,0.08,-0.96,-0.22,-1.75,0.0,0.11,0.0,0.98812954616285,0.06,0.006395972754454471,0.28,0,0,0.0
2.6267869349999273,58,498.83,-103.3,5.0,-75.4,0.05,0.0,-0.01,0.08,-0.96,-0.22,-1.75,0.01,-0.25,0.0,0.98812954616285,0.050990195135927854,0.006268053299365417,0.28,0,0,0.0
2.635346737999953,59,498.84,-103.3,5.0,-75.4,0.04,0.0,0.0,0.08,-0.96,-0.22,-1.75,-0.01,-0.06,0.0,0.98812954616285,0.04,0.006142692233378155,0.28,0,0,0.0
2.6467300350000187,60,498.85,-103.3,5.0,-75.4,0.0,0.0,0.0,0.09,-0.96,-0.22,-1.75,0.0,-0.05,0.0,0.9889893831583836,0.0,0.0051771981330877015,0.28,0,0,0.0
2.6553427589997227,61,498.86,-103.3,5.0,-75.4,0.0,0.0,0.0,0.09,-0.96,-0.22,-1.75,0.0,-0.01,0.0,0.9889893831583836,0.0,0.005073654170425934,0.28,0,0,0.0
2.6666472789997897,62,498.87,-103.3,5.0,-75.4,0.0,0.0,0.0,0.09,-0.96,-0.23,-1.75,-0.02,-0.04,0.0,0.9912618221237011,0.0,0.0027451909010063336,0.28,0,0,0.0
2.6754365580000012,63,498.88,-103.3,5.0,-75.4,0.0,0.0,0.0,0.08,-0.96,-0.22,-1.75,0.0,-0.08,0.0,0.98812954616285,0.0,0.005759917524620239,0.28,0,0,0.0
2.6867355619997397,64,498.89,-103.3,5.0,-75.4,0.0,0.0,0.0,0.09,-0.96,-0.23,-1.75,0.0,-0.11,0.0,0.9912618221237011,0.0,0.002575088732493791,0.28,0,0,0.0
2.6954432580000685,65,498.9,-103.3,5.0,-75.4,0.04,0.01,0.0,0.09,-0.97,-0.22,-1.75,0.0,0.08,0.0,0.9986991538997116,0.04123105625617661,0.004764998182646418,0.28,0,0,0.0
2.7067111520000253,66,498.91,-103.3,5.0,-75.4,0.04,0.02,0.0,0.08,-0.96,-0.22,-1.75,0.0,-0.02,0.0,0.98812954616285,0.044721359549995794,0.005688517363130918,0.28,0,0,0.0
2.715453974999946,67,498.92,-103.3,5.0,-75.4,0.03,0.02,0.0,0.08,-0.96,-0.22,-1.75,0.0,0.01,0.0,0.98812954616285,0.03605551275463989,0.005574747015868353,0.28,0,0,0.0
2.7267903889996887,68,498.93,-103.3,5.0,-75.4,0.0,0.03,0.01,0.08,-0.96,-0.22,-1.75,-0.01,0.01,0.0,0.98812954616285,0.03162277660168379,0.005463252075550984,0.28,0,0,0.0
2.735325436000039,69,498.94,-103.2,5.0,-75.4,0.01,0.03,0.0,0.08,-0.97,-0.22,-1.75,0.0,0.05,0.0,0.9978476837674174,0.03162277660168379,0.0041697878184361326,0.28,0,0,0.0
2.7465920409999853,70,498.95,-103.2,5.0,-75.4,0.02,0.03,0.01,0.08,-0.96,-0.22,-1.75,0.0,-0.04,0.0,0.98812954616285,0.03741657386773942,0.005437382790408618,0.28,0,0,0.0
2.7553702569998677,71,498.96,-103.2,5.0,-75.4,0.02,0.03,0.0,0.08,-0.97,-0.22,-1.75,0.0,0.0,0.0,0.9978476837674174,0.03605551275463989,0.004195139717875662,0.28,0,0,0.0
2.766645285999857,72,498.97,-103.2,5.0,-75.4,0.03,0.02,0.0,0.08,-0.97,-0.22,-1.75,0.0,0.0,0.0,0.9978476837674174,0.03605551275463989,0.004111236923518113,0.28,0,0,0.0
2.775480577000053,73,498.98,-103.2,5.0,-75.4,0.0,0.0,0.0,0.08,-0.96,-0.22,-1.75,0.0,0.03,0.0,0.98812954616285,0.0,0.005494762667428321,0.28,0,0,0.0
2.7867865929997606,74,498.99,-103.2,5.0,-75.4,0.0,0.0,0.0,0.08,-0.96,-0.22,-1.75,-0.01,0.15,0.0,0.98812954616285,0.0,0.00538486741407973,0.28,0,0,0.0
2.7954410699999244,75,499.0,-103.2,5.0,-75.4,0.01,0.03,0.01,0.09,-0.97,-0.22,-1.75,0.0,-0.12,0.0,0.9986991538997116,0.033166247903554,0.005081045516326266,0.28,0,0,0.0
2.806787086999975,76,499.01,-103.2,5.0,-75.4,0.0,0.0,0.0,0.09,-0.97,-0.23,-1.75,0.0,-0.16,0.0,1.000949549178179,0.0,0.007184811978897754,0.28,0,0,0.0
2.8154757309998786,77,499.02,-103.2,5.0,-75.4,0.02,0.03,0.02,0.09,-0.96,-0.22,-1.75,0.0,0.0,0.0,0.9889893831583836,0.0412310562561766,0.0046798469600797254,0.28,0,0,0.0
2.8266654989997733,78,499.03,-103.2,5.0,-75.4,0.02,0.05,0.02,0.09,-0.96,-0.22,-1.75,0.0,0.04,0.0,0.9889893831583836,0.057445626465380296,0.004586250020878091,0.28,0,0,0.0
2.8353415709998444,79,499.04,-103.2,5.0,-75.4,0.05,0.06,0.02,0.08,-0.97,-0.22,-1.75,0.0,0.0,0.0,0.9978476837674174,0.0806225774829855,0.004186609576392608,0.28,0,0,0.0
2.8466167369997493,80,499.05,-103.2,5.0,-75.4,0.03,0.04,0.02,0.08,-0.96,-0.22,-1.75,0.02,0.07,0.0,0.98812954616285,0.05385164807134504,0.005420897467611319,0.28,0,0,0.0
2.855349472999933,81,499.06,-103.2,5.0,-75.4,0.04,0.04,0.02,0.08,-0.96,-0.22,-1.75,0.01,0.02,0.0,0.98812954616285,0.060000000000000005,0.005312479518259083,0.28,0,0,0.0
2.866760713000076,82,499.07,-103.2,5.0,-75.4,0.02,0.04,0.02,0.08,-0.96,-0.22,-1.75,0.0,-0.02,0.0,0.98812954616285,0.048989794855663564,0.0052062299278938795,0.28,0,0,0.0
2.8754686970000876,83,499.08,-103.2,5.0,-75.4,0.0,0.05,0.02,0.08,-0.96,-0.22,-1.75,0.01,0.15,0.0,0.98812954616285,0.05385164807134505,0.005102105329335971,0.28,0,0,0.0
2.8866247509999994,84,499.09,-103.2,5.0,-75.4,0.0,0.05,0.02,0.08,-0.97,-0.22,-1.75,0.01,-0.04,0.0,0.9978476837674174,0.05385164807134505,0.004523711629726868,0.28,0,0,0.0
2.8954577569998037,85,499.1,-103.2,5.0,-75.3,0.0,0.05,0.02,0.09,-0.96,-0.22,-1.75,0.0,-0.23,0.0,0.9889893831583836,0.05385164807134505,0.0042478971997208514,0.28,0,0,0.0
2.906741495999995,86,499.11,-103.2,5.0,-75.3,0.01,0.04,0.01,0.08,-0.96,-0.22,-1.75,0.0,-0.02,0.0,0.98812954616285,0.042426406871192854,0.0050055795113493895,0.28,0,0,0.0
2.9154578600000605,87,499.12,-103.2,5.0,-75.3,0.0,0.05,0.02,0.08,-0.96,-0.22,-1.75,0.0,0.06,0.0,0.98812954616285,0.05385164807134505,0.004905467921122453,0.28,0,0,0.0
2.926614241999687,88,499.13,-103.2,5.0,-75.3,0.0,0.05,0.0,0.09,-0.97,-0.22,-1.75,0.0,-0.96,0.0,0.9986991538997116,0.05,0.005550857019424482,0.28,0,0,0.0
2.935348739999881,89,499.14,-103.2,5.0,-75.3,0.01,0.05,0.01,0.09,-0.96,-0.22,-1.75,0.03,0.09,0.0,0.9889893831583836,0.05196152422706632,0.004075735447465534,0.28,0,0,0.0
2.946740585000043,90,499.15,-103.2,5.0,-75.3,0.02,0.05,0.02,0.09,-0.96,-0.22,-1.75,0.0,0.06,0.0,0.9889893831583836,0.057445626465380296,0.003994220738516185,0.28,0,0,0.0
2.9553703399997175,91,499.16,-103.2,5.0,-75.3,0.02,0.05,0.02,0.08,-0.97,-0.22,-1.75,0.0,-0.02,0.0,0.9978476837674174,0.057445626465380296,0.00476679827310722,0.28,0,0,0.0
2.966807862999758,92,499.17,-103.2,5.0,-75.3,0.02,0.05,0.02,0.08,-0.97,-0.22,-1.75,0.0,0.0,0.0,0.9978476837674174,0.057445626465380296,0.004671462307645036,0.28,0,0,0.0
2.9754732060000606,93,499.18,-103.2,5.0,-75.3,0.02,0.06,0.01,0.08,-0.97,-0.22,-1.75,0.0,0.0,0.0,0.9978476837674174,0.06403124237432849,0.004578033061492182,0.28,0,0,0.0
2.986608294999769,94,499.19,-103.2,5.0,-75.3,0.01,0.07,0.01,0.08,-0.97,-0.22,-1.75,0.0,-0.15,0.0,0.9978476837674174,0.07141428428542851,0.004486472400262342,0.28,0,0,0.0
2.9953592829997433,95,499.2,-103.2,5.0,-75.3,0.01,0.06,0.01,0.08,-0.97,-0.22,-1.75,0.0,0.19,0.0,0.9978476837674174,0.06164414002968976,0.0043967429522571155,0.28,0,0,0.0
3.0067859420000786,96,499.21,-103.2,5.0,-75.3,0.02,0.04,0.0,0.08,-0.96,-0.22,-1.75,0.0,-0.06,0.0,0.98812954616285,0.044721359549995794,0.005214966759264139,0.28,0,0,0.0
3.0154775239998344,97,499.22,-103.2,5.0,-75.3,0.01,0.03,0.01,0.08,-0.96,-0.22,-1.75,0.01,0.0,0.0,0.98812954616285,0.033166247903554,0.005110667424078841,0.28,0,0,0.0
3.0267693799996778,98,499.23,-103.2,5.0,-75.3,0.01,0.03,0.0,0.09,-0.97,-0.22,-1.75,0.0,-0.02,0.0,0.9986991538997116,0.03162277660168379,0.0053497615065272175,0.28,0,0,0.0
3.035481396999785,99,499.24,-103.1,5.0,-75.3,0.01,0.04,0.0,0.09,-0.97,-0.22,-1.75,0.01,-0.02,0.0,0.9986991538997116,0.04123105625617661,0.005242766276396638,0.28,0,0,0.0
3.0467703829999664,100,499.25,-103.1,5.0,-75.3,0.02,0.05,0.0,0.08,-0.97,-0.22,-1.75,0.0,0.06,0.0,0.9978476837674174,0.05385164807134505,0.004303470221220351,0.28,0,0,0.0
3.0553592299997945,101,499.26,-103.1,5.0,-75.3,0.05,0.05,0.0,0.08,-0.97,-0.22,-1.75,0.0,-0.01,0.0,0.9978476837674174,0.07071067811865477,0.004217400816795891,0.28,0,0,0.0
3.066650447000029,102,499.27,-103.1,5.0,-75.3,0.04,0.03,0.0,0.08,-0.97,-0.22,-1.75,0.0,0.05,0.0,0.9978476837674174,0.05,0.0041330528004599465,0.28,0,0,0.0
3.075534096999945,103,499.28,-103.1,5.0,-75.3,0.04,0.05,0.0,0.09,-0.97,-0.22,-1.75,0.0,-0.07,0.0,0.9986991538997116,0.06403124237432849,0.004884832474099099,0.28,0,0,0.0
3.086612067999795,104,499.29,-103.1,5.0,-75.2,0.04,0.05,0.0,0.09,-0.97,-0.22,-1.75,0.0,0.11,0.0,0.9986991538997116,0.06403124237432849,0.004787135824617095,0.28,0,0,0.0
3.0954945449998377,105,499.3,-103.1,5.0,-75.2,0.04,0.05,0.0,0.09,-0.96,-0.22,-1.75,0.0,-0.23,0.0,0.9889893831583836,0.06403124237432849,0.004824182218376771,0.28,0,0,0.0
3.106775412999923,106,499.31,-103.1,5.0,-75.2,0.03,0.05,0.0,0.09,-0.96,-0.22,-1.75,0.0,-0.04,0.0,0.9889893831583836,0.05830951894845301,0.0047276985740092314,0.28,0,0,0.0
3.115471315999912,107,499.32,-103.1,5.0,-75.2,0.01,0.06,0.0,0.09,-0.96,-0.22,-1.75,-0.01,0.02,0.0,0.9889893831583836,0.0608276253029822,0.00463314460252906,0.28,0,0,0.0
3.1268017689999397,108,499.33,-103.1,5.0,-75.2,-0.01,0.08,0.0,0.09,-0.96,-0.22,-1.75,0.0,-0.28,0.0,0.9889893831583836,0.0806225774829855,0.0045404817104784945,0.28,0,0,0.0
3.135478613000032,109,499.34,-103.1,5.0,-75.2,0.0,0.07,0.0,0.08,-0.96,-0.22,-1.75,0.0,-0.05,0.0,0.98812954616285,0.07,0.0052923123318918686,0.28,0,0,0.0
3.1468288969999776,110,499.35,-103.1,5.0,-75.2,0.0,0.07,0.0,0.08,-0.96,-0.22,-1.75,0.0,-0.01,0.0,0.98812954616285,0.07,0.005186466085254082,0.28,0,0,0.0
3.1594311889998608,111,499.36,-103.1,5.0,-75.2,0.0,0.06,0.0,0.08,-0.96,-0.22,-1.75,-0.01,0.07,0.0,0.98812954616285,0.06,0.005082736763548978,0.28,0,0,0.0
3.167486156999985,112,499.37,-103.1,5.0,-75.2,0.01,0.05,0.01,0.08,-0.96,-0.22,-1.75,0.0,0.02,0.0,0.98812954616285,0.05196152422706632,0.004981082028277961,0.28,0,0,0.0
3.1754796820000593,113,499.38,-103.1,5.0,-75.2,0.02,0.03,0.02,0.09,-0.96,-0.22,-1.75,0.0,0.02,0.0,0.9889893831583836,0.0412310562561766,0.004038820132089449,0.28,0,0,0.0
3.186659850000069,114,499.39,-103.1,5.0,-75.2,0.01,0.03,0.03,0.09,-0.97,-0.22,-1.75,0.0,-0.09,0.0,0.9986991538997116,0.04358898943540673,0.005557531597053855,0.28,0,0,0.0
3.1954764299998715,115,499.4,-103.1,5.0,-75.2,0.0,0.03,0.03,0.09,-0.96,-0.22,-1.75,0.0,0.07,0.0,0.9889893831583836,0.042426406871192854,0.0040691943613887505,0.28,0,0,0.0
3.2068485979998513,116,499.41,-103.1,5.0,-75.2,-0.01,0.04,0.03,0.09,-0.97,-0.22,-1.75,0.0,0.08,0.0,0.9986991538997116,0.05099019513592785,0.005527764852340522,0.28,0,0,0.0
3.2154636559998835,117,499.42,-103.1,5.0,-75.2,0.01,0.05,0.03,0.09,-0.97,-0.22,-1.75,0.0,-0.09,0.0,0.9986991538997116,0.05916079783099616,0.005417209555293678,0.28,0,0,0.0
3.2266060899996774,118,499.43,-103.1,5.0,-75.2,0.02,0.04,0.02,0.09,-0.97,-0.22,-1.75,0.02,0.07,0.0,0.9986991538997116,0.048989794855663564,0.0053088653641878425,0.28,0,0,0.0
3.235377970999707,119,499.44,-103.1,5.0,-75.2,0.03,0.05,0.0,0.08,-0.97,-0.22,-1.75,0.0,0.08,0.0,0.9978476837674174,0.05830951894845301,0.004368247327255714,0.28,0,0,0.0
3.2466438249998646,120,499.45,-103.1,5.0,-75.2,0.04,0.03,0.0,0.08,-0.97,-0.22,-1.75,0.0,-0.09,0.0,0.9978476837674174,0.05,0.00428088238071056,0.28,0,0,0.0
3.25536301000011,121,499.46,-103.1,5.0,-75.1,0.03,0.03,0.0,0.09,-0.96,-0.22,-1.75,0.0,-0.1,0.0,0.9889893831583836,0.042426406871192854,0.004485869863756764,0.28,0,0,0.0
3.266775130000042,122,499.47,-103.1,5.0,-75.1,0.0,0.0,0.0,0.09,-0.96,-0.22,-1.75,0.0,-0.01,0.0,0.9889893831583836,0.0,0.004396152466481618,0.28,0,0,0.0
3.2754724579999674,123,499.48,-103.1,5.0,-75.1,0.0,0.0,0.0,0.09,-0.96,-0.22,-1.75,0.0,0.02,0.0,0.9889893831583836,0.0,0.004308229417152032,0.28,0,0,0.0
3.286599400999876,124,499.49,-103.1,5.0,-75.1,-0.03,0.01,0.02,0.08,-0.96,-0.22,-1.75,0.0,-0.01,0.0,0.98812954616285,0.03741657386773942,0.005064705084431909,0.28,0,0,0.0
3.295515789000092,125,499.5,-103.1,5.0,-75.1,-0.04,0.02,0.02,0.08,-0.97,-0.22,-1.75,0.0,-0.18,0.0,0.9978476837674174,0.048989794855663564,0.0045603638697327975,0.28,0,0,0.0
3.306727000999672,126,499.51,-103.1,5.0,-75.1,-0.03,0.03,0.01,0.08,-0.97,-0.22,-1.75,0.0,-0.14,0.0,0.9978476837674174,0.04358898943540673,0.004469156592338153,0.28,0,0,0.0
3.315456651999739,127,499.52,-103.1,5.0,-75.1,0.0,0.0,0.0,0.08,-0.97,-0.22,-1.75,0.0,-0.27,0.0,0.9978476837674174,0.0,0.004379773460491343,0.28,0,0,0.0
3.326474959999814,128,499.53,-103.1,5.0,-75.1,0.0,0.0,0.0,0.08,-0.97,-0.22,-1.75,0.0,-0.1,0.0,0.9978476837674174,0.0,0.004292177991281565,0.28,0,0,0.0
3.3389455530000305,129,499.54,-103.1,5.0,-75.1,0.06,0.0,0.01,0.08,-0.97,-0.22,-1.75,0.0,0.16,0.0,0.9978476837674174,0.0608276253029822,0.004206334431455905,0.28,0,0,0.0
3.3514662109996607,130,499.55,-103.1,5.0,-75.1,0.09,-0.02,0.02,0.08,-0.97,-0.22,-1.75,0.01,0.07,0.0,0.9978476837674174,0.09433981132056603,0.004122207742826789,0.28,0,0,0.0
3.3594775389997267,131,499.56,-103.1,5.0,-75.1,0.09,-0.02,0.02,0.09,-0.96,-0.22,-1.75,0.0,-0.01,0.0,0.9889893831583836,0.09433981132056603,0.004641371008882844,0.28,0,0,0.0
3.3674655579998216,132,499.57,-103.0,5.0,-75.1,0.07,0.0,0.03,0.09,-0.96,-0.22,-1.75,0.0,-0.06,0.0,0.9889893831583836,0.07615773105863909,0.004548543588705156,0.28,0,0,0.0
3.3755018329998165,133,499.58,-103.0,5.0,-75.1,0.06,0.02,0.04,0.09,-0.96,-0.22,-1.75,-0.01,-0.1,0.0,0.9889893831583836,0.07483314773547883,0.004457572716931035,0.28,0,0,0.0
3.386750235999898,134,499.59,-103.0,5.0,-75.1,0.07,0.05,0.02,0.08,-0.97,-0.22,-1.75,-0.02,0.11,0.0,0.9978476837674174,0.08831760866327848,0.004312713334260754,0.28,0,0,0.0
3.395479941999838,135,499.6,-103.0,5.0,-75.1,0.06,0.04,0.02,0.09,-0.96,-0.22,-1.75,0.0,0.02,0.0,0.9889893831583836,0.07483314773547883,0.004454675529277585,0.28,0,0,0.0
3.4067774219997773,136,499.61,-103.0,5.0,-75.1,0.06,0.05,0.02,0.09,-0.96,-0.22,-1.75,0.0,0.06,0.0,0.9889893831583836,0.0806225774829855,0.004365582018692082,0.28,0,0,0.0
3.4155143429998134,137,499.62,-103.0,5.0,-75.1,0.04,0.05,0.02,0.09,-0.96,-0.22,-1.75,0.0,0.06,0.0,0.9889893831583836,0.0670820393249937,0.004278270378318294,0.28,0,0,0.0
3.426613506999729,138,499.63,-103.0,5.0,-75.1,0.04,0.07,0.03,0.09,-0.96,-0.22,-1.75,0.0,0.07,0.0,0.9889893831583836,0.08602325267042626,0.00419270497075197,0.28,0,0,0.0
3.4353171419998034,139,499.64,-103.0,5.0,-75.1,0.04,0.08,0.03,0.09,-0.96,-0.22,-1.75,0.0,-0.02,0.0,0.9889893831583836,0.09433981132056604,0.004108850871336944,0.28,0,0,0.0
3.446639827999661,140,499.65,-103.0,5.0,-75.1,0.02,0.1,0.03,0.09,-0.96,-0.22,-1.75,0.0,-0.15,0.0,0.9889893831583836,0.1063014581273465,0.004026673853910201,0.28,0,0,0.0
3.4553911319999315,141,499.66,-103.0,5.0,-75.1,0.02,0.11,0.03,0.09,-0.96,-0.22,-1.75,0.0,0.06,0.0,0.9889893831583836,0.11575836902790225,0.003946140376831941,0.28,0,0,0.0
3.466763626000102,142,499.67,-103.0,5.0,-75.1,-0.01,0.12,0.04,0.09,-0.96,-0.22,-1.75,0.0,0.01,0.0,0.9889893831583836,0.1268857754044952,0.0038672175692953115,0.28,0,0,0.0
3.4754927250000947,143,499.68,-103.0,5.0,-75.1,0.0,0.14,0.05,0.09,-0.97,-0.22,-1.75,0.0,0.02,0.0,0.9986991538997116,0.14866068747318506,0.0057257021085921345,0.28,0,0,0.0
3.4867490940000607,144,499.69,-103.0,5.0,-75.0,0.01,0.16,0.05,0.09,-0.97,-0.22,-1.75,0.0,-0.02,0.0,0.9986991538997116,0.16792855623746666,0.005611188066420247,0.28,0,0,0.0
3.4954959950000557,145,499.7,-103.0,5.0,-75.0,0.02,0.16,0.06,0.09,-0.97,-0.22,-1.75,0.0,0.11,0.0,0.9986991538997116,0.17204650534085253,0.005498964305091891,0.28,0,0,0.0
3.506595138999728,146,499.71,-103.0,5.0,-75.0,0.02,0.17,0.05,0.08,-0.96,-0.22,-1.75,0.0,-0.07,0.0,0.98812954616285,0.1783255450012701,0.004969230563134364,0.28,0,0,0.0
3.5154955600000903,147,499.72,-103.0,5.0,-75.0,0.0,0.16,0.05,0.08,-0.96,-0.22,-1.75,0.0,0.11,0.0,0.98812954616285,0.1676305461424021,0.004869845951871676,0.28,0,0,0.0
3.5266339609997885,148,499.73,-103.0,5.0,-75.0,-0.02,0.16,0.05,0.08,-0.97,-0.22,-1.75,0.0,0.01,0.0,0.9978476837674174,0.16881943016134132,0.004751325819641772,0.28,0,0,0.0
3.535369671999888,149,499.74,-103.0,5.0,-75.0,-0.03,0.15,0.05,0.08,-0.96,-0.22,-1.75,-0.02,-0.17,0.0,0.98812954616285,0.1609347693943108,0.004867475549227174,0.28,0,0,0.0
3.5467600749998383,150,499.75,-103.0,5.0,-74.9,-0.05,0.15,0.08,0.08,-0.96,-0.22,-1.75,-0.01,0.15,0.0,0.98812954616285,0.17720045146669353,0.0047701260382426725,0.28,0,0,0.0
3.5553956769999786,151,499.76,-103.0,5.0,-74.9,-0.1,0.18,0.1,0.08,-0.97,-0.22,-1.75,0.0,-0.31,0.0,0.9978476837674174,0.22891046284519195,0.0048490513349982445,0.28,0,0,0.0
3.5666992439996648,152,499.77,-103.0,5.0,-74.9,-0.11,0.19,0.11,0.08,-0.97,-0.22,-1.75,0.0,0.2,0.0,0.9978476837674174,0.2455605831561735,0.004752070308298273,0.28,0,0,0.0
3.5754935059999298,153,499.78,-103.0,5.0,-74.9,-0.1,0.2,0.13,0.08,-0.98,-0.22,-1.75,0.0,0.15,0.0,1.0075713374247999,0.2586503431275513,0.014186209486367174,0.28,0,0,0.0
3.5865842210000665,154,499.79,-103.0,5.0,-74.8,-0.07,0.19,0.15,0.08,-0.98,-0.21,-1.75,0.0,-0.12,0.0,1.0054352291420865,0.2519920633670831,0.011809099179580729,0.28,0,0,0.0
3.5954692400000567,155,499.8,-103.0,5.0,-74.8,-0.05,0.17,0.16,0.08,-0.98,-0.22,-1.75,0.0,0.01,0.0,1.0075713374247999,0.23874672772626646,0.01366630331304819,0.28,0,0,0.0
3.606603239999913,156,499.81,-103.0,5.0,-74.8,-0.08,0.16,0.21,0.08,-0.97,-0.22,-1.75,0.0,0.06,0.0,0.9978476837674174,0.2758622844826744,0.0038637966625524323,0.28,0,0,0.0
3.615377788999922,157,499.82,-103.0,4.9,-74.8,-0.12,0.15,0.28,0.09,-0.97,-0.22,-1.75,-0.01,-0.12,0.0,0.9986991538997116,0.3395585369269929,0.004620961458949746,0.28,0,0,0.0
3.6266544159998375,158,499.83,-103.0,4.9,-74.8,-0.12,0.16,0.35,0.08,-0.97,-0.22,-1.75,0.0,-0.03,0.0,0.9978476837674174,0.40311288741492746,0.003694101500122393,0.28,0,0,0.0
3.639365405999797,159,499.84,-103.0,4.9,-74.7,-0.14,0.16,0.42,0.07,-0.98,-0.22,-1.75,0.01,-0.03,0.0,1.0068266980965492,0.47074409183759275,0.01241965351266916,0.28,0,0,0.0
3.6474496470000304,160,499.85,-103.1,4.8,-74.7,-0.16,0.15,0.48,0.07,-0.98,-0.22,-1.75,-0.01,0.01,0.0,1.0068266980965492,0.5277309920783504,0.012171260442415788,0.28,0,0,0.0
3.6553853519999393,161,499.86,-103.1,4.8,-74.7,-0.16,0.12,0.55,0.06,-0.99,-0.21,-1.75,0.0,-0.03,0.0,1.013804714922948,0.5852349955359812,0.018766291723438355,0.28,0,0,0.0
3.6667965349997758,162,499.87,-103.1,4.7,-74.7,-0.16,0.07,0.6,0.05,-0.99,-0.21,-1.75,0.0,-0.08,0.0,1.0132620588969075,0.6248999919987197,0.017859162983449806,0.28,0,0,0.0
3.6754923829998916,163,499.88,-103.1,4.6,-74.6,-0.08,0.05,0.64,0.05,-0.98,-0.22,-1.75,0.0,-0.03,0.0,1.0056341282991543,0.6469157595854348,0.010026607737982696,0.28,0,0,0.0
3.686557766000078,164,499.89,-103.1,4.5,-74.6,-0.07,0.04,0.67,0.05,-0.98,-0.22,-1.75,0.0,0.01,0.0,1.0056341282991543,0.6748333127521197,0.009826075583223015,0.28,0,0,0.0
3.6953695550000702,165,499.9,-103.1,4.5,-74.6,-0.09,0.04,0.71,0.05,-0.98,-0.22,-1.75,0.0,-0.22,0.0,1.0056341282991543,0.7167984374982971,0.009629554071558521,0.28,0,0,0.0
3.7067814930001077,166,499.91,-103.1,4.4,-74.6,-0.12,0.03,0.72,0.04,-0.99,-0.22,-1.75,-0.01,-0.03,0.0,1.0149384217774002,0.7305477397131552,0.01855517059880829,0.28,0,0,0.0
3.715470845999789,167,499.92,-103.1,4.3,-74.6,-0.1,0.01,0.7,0.03,-0.99,-0.22,-1.75,-0.02,0.01,0.0,1.0145935146648632,0.7071774883294858,0.017846058216545835,0.28,0,0,0.0
3.7267525289998957,168,499.93,-103.1,4.2,-74.5,0.0,-0.01,0.68,0.03,-0.98,-0.22,-1.75,0.0,-0.27,0.0,1.0048382954485762,0.6800735254367722,0.007929022220253601,0.28,0,0,0.0
3.7354016629997204,169,499.94,-103.1,4.1,-74.5,-0.11,-0.12,0.66,0.03,-0.98,-0.23,-1.75,0.0,0.0,0.0,1.0070749723828907,0.6797793759742936,0.00996238517147674,0.28,0,0,0.0
3.746755502999804,170,499.95,-103.1,4.0,-74.5,-0.13,-0.04,0.66,0.04,-0.99,-0.23,-1.75,-0.01,0.02,0.0,1.017152889196113,0.6738694235532579,0.019639495945005137,0.28,0,0,0.0
3.7553698480001003,171,499.96,-103.1,3.9,-74.5,-0.04,-0.01,0.64,0.05,-0.98,-0.25,-1.75,-0.03,0.02,0.0,1.0126203632161461,0.6413267497929585,0.014804830565737448,0.28,0,0,0.0
3.7667975679996744,172,499.97,-103.1,3.9,-74.5,0.05,0.04,0.65,0.05,-0.98,-0.24,-1.75,-0.03,-0.14,0.0,1.010198000393982,0.6531462317123172,0.012134818388702007,0.28,0,0,0.0
3.7753818430001047,173,499.98,-103.1,3.8,-74.5,0.16,0.07,0.66,0.06,-0.98,-0.24,-1.75,-0.11,0.06,0.0,1.0107423014794623,0.6827151675479314,0.012425537084698512,0.28,0,0,0.0
3.7866527460000725,174,499.99,-103.1,3.7,-74.5,0.25,0.11,0.68,0.06,-0.98,-0.24,-1.75,-0.27,-0.03,0.0,1.0107423014794623,0.7328028384224505,0.012177026343004549,0.28,0,0,0.0
3.7953741930000433,175,500.0,-103.1,3.7,-74.4,0.3,0.15,0.68,0.06,-0.98,-0.24,-1.76,-0.45,0.01,0.0,1.0107423014794623,0.7582216034906946,0.011933485816144507,0.28,0,0,0.0
3.8067915279998488,176,500.01,-103.1,3.6,-74.4,0.37,0.19,0.65,0.05,-0.98,-0.24,-1.76,-0.45,-0.05,0.0,1.010198000393982,0.771686464828819,0.01116140103605101,0.28,0,0,0.0
3.8156088979999367,177,500.02,-103.0,3.5,-74.4,0.48,0.25,0.61,0.03,-0.98,-0.24,-1.77,-0.67,0.0,0.0,1.0094057657849989,0.8154753215150046,0.010161783098526445,0.28,0,0,0.0
3.8267515739999,178,500.03,-103.0,3.5,-74.3,0.66,0.31,0.55,0.03,-0.98,-0.24,-1.78,-0.74,-0.07,0.0,1.0094057657849989,0.9133454987024352,0.009958547436555887,0.28,0,0,0.0
3.8355701440000303,179,500.04,-102.9,3.4,-74.3,0.81,0.39,0.46,0.03,-0.97,-0.23,-1.78,-0.79,0.05,0.0,0.9973464794142505,1.0098514742277698,0.0020587241555086733,0.28,0,0,0.0
3.846805246999793,180,500.05,-102.8,3.4,-74.2,0.74,0.44,0.41,0.03,-0.98,-0.22,-1.79,-0.74,0.17,0.0,1.0048382954485762,0.9535722311393091,0.005324430041240724,0.28,0,0,0.0
3.85555622999982,181,500.06,-102.8,3.3,-74.2,0.61,0.48,0.36,0.04,-0.99,-0.22,-1.8,-0.67,0.2,0.0,1.0149384217774002,0.8556284240252892,0.015116065242663512,0.28,0,0,0.0
3.866740522999862,182,500.07,-102.7,3.3,-74.1,0.58,0.51,0.34,0.03,-0.99,-0.23,-1.8,-0.61,0.11,0.0,1.0168087332433766,0.8438601779915913,0.01664664917446701,0.28,0,0,0.0
3.875497711999742,183,500.08,-102.6,3.3,-74.1,0.73,0.5,0.35,0.03,-0.99,-0.22,-1.81,-0.6,0.05,0.0,1.0145935146648632,0.9515250916292223,0.014142801984034614,0.28,0,0,0.0
3.887022680999962,184,500.09,-102.5,3.2,-74.0,1.03,0.46,0.35,0.03,-0.99,-0.22,-1.82,-0.56,-0.06,0.0,1.0145935146648632,1.1811011811017718,0.013859945944354024,0.28,0,0,0.0
3.8954915429999346,185,500.1,-102.4,3.2,-73.9,1.21,0.39,0.32,0.02,-0.97,-0.21,-1.82,-0.54,0.15,0.0,0.9926731586982696,1.310953851209111,0.007899201821794932,0.28,0,0,0.0
3.9069254799996997,186,500.11,-102.3,3.1,-73.9,1.16,0.32,0.31,0.01,-0.97,-0.2,-1.83,-0.62,0.07,0.0,0.9904544411531506,1.2426182036329583,0.009915560979575577,0.28,0,0,0.0
3.915539046000049,187,500.12,-102.2,3.1,-73.9,1.1,0.24,0.26,0.0,-0.97,-0.2,-1.83,-0.64,0.01,0.0,0.9904039579888602,1.1555085460523433,0.009766723260988819,0.28,0,0,0.0
3.926851381999768,188,500.13,-102.1,3.0,-73.8,0.99,0.17,0.18,0.0,-0.97,-0.19,-1.84,-0.7,-0.03,0.0,0.9884331034521254,1.0204900783447137,0.011502826241769126,0.28,0,0,0.0
3.935576358999697,189,500.14,-102.0,3.0,-73.8,0.93,0.09,0.1,0.0,-0.98,-0.19,-1.85,-0.64,-0.01,0.0,0.9982484660644363,0.9396807968666807,0.0016537143568691182,0.28,0,0,0.0
3.963428084000043,191,500.16,-101.7,2.9,-73.8,0.98,-0.18,-0.07,-0.01,-0.98,-0.18,-1.86,-0.54,-0.05,0.0,0.9964436762808021,0.9988493379884675,0.0033893340576932607,0.28,0,0,0.0
3.971636622999995,192,500.17,-101.6,2.9,-73.9,1.04,-0.34,-0.15,-0.01,-0.98,-0.17,-1.87,-0.51,0.0,0.0,0.9946858800646564,1.1044002897500524,0.005044187668362121,0.28,0,0,0.0
3.9833692659999542,193,500.18,-101.5,2.9,-73.9,1.05,-0.52,-0.24,-0.01,-0.97,-0.17,-1.87,-0.48,0.16,0.0,0.9848350115628506,1.1960351165413163,0.01459715504676462,0.28,0,0,0.0
3.9915392220000285,194,500.19,-101.4,2.8,-74.0,1.05,-0.68,-0.29,0.0,-0.96,-0.18,-1.87,-0.49,0.04,0.0,0.9767292357659824,1.2841339493993609,0.022248872226760197,0.28,0,0,0.0
3.999491209000098,195,500.2,-101.3,2.8,-74.1,1.04,-0.84,-0.34,0.0,-0.96,-0.17,-1.88,-0.49,0.04,0.0,0.9749358953285082,1.3794201680416305,0.02356136841094969,0.28,0,0,0.0
4.0072635139999875,196,500.21,-101.2,2.8,-74.2,1.04,-0.99,-0.38,0.0,-0.96,-0.17,-1.88,-0.41,-0.05,0.0,0.9749358953285082,1.4852945835759317,0.02309014104273066,0.28,0,0,0.0
4.015515762999712,197,500.22,-101.1,2.8,-74.3,1.08,-1.16,-0.43,0.0,-0.96,-0.18,-1.89,-0.45,-0.02,0.0,0.9767292357659824,1.6422241016377759,0.02087086459315135,0.28,0,0,0.0
4.026845626000068,198,500.23,-101.0,2.8,-74.4,1.07,-1.32,-0.5,0.0,-0.96,-0.19,-1.89,-0.52,0.16,0.0,0.9786214794290998,1.7712425017484197,0.018599048511433236,0.28,0,0,0.0
4.035526372999811,199,500.24,-100.9,2.8,-74.6,1.04,-1.48,-0.58,-0.01,-0.97,-0.19,-1.9,-0.57,-0.08,0.0,0.9884836872705588,1.8995789007040482,0.008562103856574743,0.28,0,0,0.0
4.04675020500008,200,500.25,-100.8,2.8,-74.7,1.07,-1.62,-0.67,-0.02,-0.98,-0.19,-1.91,-0.61,-0.01,0.0,0.9984487968844471,2.053825698544061,0.0013749456421673356,0.28,0,0,0.0
4.0555259749999095,201,500.26,-100.7,2.8,-74.9,1.14,-1.74,-0.76,-0.03,-0.97,-0.18,-1.91,-0.71,0.03,0.0,0.9870157040290696,2.2146783062106334,0.00985698426894599,0.28,0,0,0.0
4.066788863000056,202,500.27,-100.6,2.8,-75.1,1.24,-1.87,-0.81,-0.03,-0.97,-0.18,-1.92,-0.7,0.1,0.0,0.9870157040290696,2.3854978516024703,0.009659844583567057,0.28,0,0,0.0
4.075538630999745,203,500.28,-100.5,2.8,-75.3,1.31,-2.0,-0.86,-0.02,-0.95,-0.17,-1.93,-0.66,-0.1,0.0,0.9652978814852957,2.540806958428759,0.030750113784794086,0.28,0,0,0.0
4.086890512000082,204,500.29,-100.3,2.8,-75.5,1.25,-2.1,-0.92,0.0,-0.95,-0.18,-1.93,-0.53,0.01,0.0,0.966902270139025,2.611302357062468,0.02856281062844357,0.28,0,0,0.0
4.095516137999766,205,500.3,-100.2,2.8,-75.8,1.02,-2.25,-0.99,0.0,-0.93,-0.17,-1.94,-0.54,0.05,0.0,0.9454099639838794,2.661390613946025,0.04905401444791735,0.28,0,0,0.0
4.106659875999867,206,500.31,-100.2,2.8,-76.0,0.73,-2.31,-1.01,0.0,-0.93,-0.19,-1.94,-0.42,0.09,0.0,0.9492101980067429,2.6247095077360467,0.04434870481655284,0.28,0,0,0.0
4.115583563999735,207,500.32,-100.1,2.9,-76.3,0.52,-2.42,-1.04,0.0,-0.93,-0.19,-1.95,-0.45,-0.02,0.0,0.9492101980067429,2.6848463643195677,0.04346173072022175,0.28,0,0,0.0
4.126680477999798,208,500.33,-100.1,2.9,-76.5,0.49,-2.48,-1.08,0.0,-0.94,-0.2,-1.95,-0.43,-0.03,0.0,0.9610411021387171,2.7489816296221408,0.030998210056482622,0.28,0,0,0.0
4.135506122999686,209,500.34,-100.1,3.0,-76.8,0.51,-2.54,-1.13,0.0,-0.94,-0.2,-1.95,-0.35,0.03,0.0,0.9610411021387171,2.8264111519734705,0.03037824585535298,0.28,0,0,0.0
4.146595781000087,210,500.35,-100.1,3.0,-77.1,0.45,-2.6,-1.16,0.0,-0.94,-0.21,-1.96,-0.33,-0.03,0.0,0.96317184344228,2.8823774908918507,0.027682554460754183,0.28,0,0,0.0
4.155486624999867,211,500.36,-100.1,3.0,-77.3,0.28,-2.65,-1.2,0.0,-0.93,-0.21,-1.96,-0.26,0.03,0.0,0.9534149149242422,2.9224818220136117,0.03669069331921615,0.28,0,0,0.0
4.166725006999968,212,500.37,-100.1,3.1,-77.6,0.07,-2.69,-1.21,-0.02,-0.93,-0.21,-1.96,-0.21,-0.07,0.0,0.9536246641105713,2.95044064505626,0.03575132525022928,0.28,0,0,0.0
4.175528476999716,213,500.38,-100.2,3.1,-77.9,-0.12,-2.76,-1.19,-0.02,-0.93,-0.21,-1.96,-0.04,-0.07,0.0,0.9536246641105713,3.0080059840366005,0.035036298745224737,0.28,0,0,0.0
4.186828952999804,214,500.39,-100.2,3.1,-78.2,-0.25,-2.81,-1.2,0.0,-0.96,-0.13,-1.96,0.01,-0.03,0.0,0.9687620966986683,3.065713620023893,0.019500888833985264,0.28,0,0,0.0
4.19553419299973,215,500.4,-100.3,3.1,-78.5,-1.26,-3.05,-0.87,0.05,-1.0,-0.07,-1.96,0.0,0.02,0.0,1.0036931802099682,3.412770135828078,0.015121590783768402,0.28,0,0,0.0
4.206770263999715,216,500.41,-100.5,3.2,-78.8,-3.36,-3.06,-0.26,0.19,-1.19,-0.19,-1.96,-0.01,-0.17,0.0,1.219959015705036,4.5520105448032515,0.22675967775325945,0.28,0,0,0.0
4.21551303599972,217,500.42,-100.9,3.2,-79.1,-3.35,-2.71,0.01,0.27,-1.37,-0.32,-1.96,0.0,-0.09,0.0,1.4325501736413981,4.308909374772229,0.4305638189758292,0.28,1,1,0.5
4.226683267999761,218,500.43,-101.1,3.1,-79.3,-0.89,-1.91,0.3,0.31,-1.34,-0.29,-1.96,0.01,0.02,0.0,1.4056315306651315,2.1284266489592727,0.39557227247957116,0.28,0,1,0.5
4.235569876999762,219,500.44,-101.0,3.0,-79.5,2.59,-1.61,0.55,0.3,-1.27,-0.17,-1.97,-0.27,0.8,0.62,1.3159787232322566,3.098822356960786,0.2998010757457623,0.28,0,1,0.5
4.246497610000006,220,500.45,-100.6,2.9,-79.6,5.16,-1.38,0.54,0.25,-1.09,-0.26,-1.97,-0.8,0.57,0.62,1.1481289126226202,5.368575229984208,0.12931223983340345,0.28,0,1,0.5
4.2555103059999055,221,500.46,-100.0,2.9,-79.7,5.48,-0.91,0.44,0.16,-0.89,-0.26,-1.98,-1.15,0.6,0.62,0.9409038208021051,5.572441116781765,0.07635459494736929,0.28,0,1,0.5
4.266538185999707,222,500.47,-99.6,2.8,-79.8,3.95,-0.6,0.28,0.06,-0.79,-0.18,-2.0,-1.51,0.7,0.62,0.8124653838779842,4.005109236962208,0.2006971712340605,0.28,0,1,0.5
4.275384946000031,223,500.48,-99.3,2.8,-79.9,1.85,-0.65,0.07,-0.03,-0.84,-0.06,-2.01,-1.73,0.74,0.62,0.8426743143112884,1.9621162045098146,0.16707847598474113,0.28,0,1,0.5
4.2867295169999124,224,500.49,-99.2,2.8,-79.9,0.11,-1.02,0.03,-0.1,-0.89,-0.07,-2.03,-1.92,0.6,0.62,0.8983317872590283,1.026352765865616,0.10919258297626111,0.28,0,1,0.5
4.295367697000074,225,500.5,-99.2,2.7,-80.1,-0.48,-1.35,0.02,-0.14,-1.01,-0.03,-2.05,-1.89,0.59,0.62,1.0200980345045274,1.4329340529138108,0.012322190983853343,0.28,0,1,0.5
4.306632398999682,226,500.51,-99.3,2.7,-80.2,0.01,-1.99,0.13,-0.15,-1.06,-0.01,-2.07,-1.89,0.63,0.62,1.07060730429042,1.9942667825544307,0.06157483155435117,0.28,0,1,0.5
4.315386014000069,227,500.52,-99.2,2.7,-80.5,1.24,-2.62,0.19,-0.12,-1.12,-0.02,-2.09,-1.77,0.53,0.62,1.126587768440613,2.904840787375446,0.11520418979045322,0.28,0,1,0.5
4.3267210659996636,228,500.53,-99.0,2.6,-80.7,2.84,-3.31,0.02,-0.07,-1.11,-0.03,-2.11,-1.65,0.61,0.62,1.1126095451684745,4.361433250664281,0.09920144718794854,0.28,0,1,0.5
4.335263469999973,229,500.54,-98.7,2.5,-81.1,3.73,-3.81,-0.14,-0.03,-1.01,-0.04,-2.12,-1.44,0.68,0.62,1.011236866416568,5.333722902438784,0.0021278069326786664,0.28,0,1,0.5
4.346818012999847,230,500.55,-98.3,2.5,-81.5,3.68,-4.29,-0.28,0.0,-0.94,-0.03,-2.13,-1.25,0.62,0.62,0.9404786015641184,5.659054691377351,0.07142835034942574,0.28,0,1,0.5
4.355392232999748,231,500.56,-97.9,2.5,-82.0,3.34,-4.76,-0.44,0.04,-0.91,-0.03,-2.15,-1.15,0.67,0.62,0.9113725912051559,5.831534960882941,0.09852367349422042,0.28,0,1,0.5
4.36668667999993,232,500.57,-97.6,2.5,-82.5,3.11,-4.98,-0.62,0.06,-0.92,-0.06,-2.16,-0.93,0.56,0.62,0.9239047569960879,5.903973238421733,0.08427167754922271,0.28,0,1,0.5
4.3753927140001,233,500.58,-97.3,2.5,-83.0,3.04,-5.12,-0.79,0.07,-0.92,-0.08,-2.16,-0.82,0.62,0.62,0.9261209424259879,6.006671291156192,0.0804143822769362,0.28,0,1,0.5
4.38675490300011,234,500.59,-97.0,2.5,-83.5,2.97,-5.12,-0.95,0.08,-0.95,-0.1,-2.17,-0.83,0.5,0.62,0.9585927185202274,5.994814425818368,0.04698375405904276,0.28,0,1,0.5
4.395393424999838,235,500.6,-96.7,2.6,-84.0,2.88,-5.13,-1.09,0.09,-0.97,-0.12,-2.18,-0.81,0.78,0.62,0.9815294188153506,5.983259980980268,0.023566112688641172,0.28,0,1,0.5
4.406788051999683,236,500.61,-96.5,2.7,-84.5,2.79,-5.01,-1.24,0.08,-0.99,-0.13,-2.19,-0.89,0.61,0.62,1.0016985574512922,5.867009459682164,0.0033290345716456837,0.28,0,1,0.0
4.415383546999692,237,500.62,-96.2,2.8,-85.0,2.54,-4.91,-1.36,0.08,-1.02,-0.1,-2.2,-0.94,0.45,0.62,1.0280077820717117,5.692916651418673,0.022520586247798402,0.28,0,1,0.0
4.426749386999745,238,500.63,-96.0,2.9,-85.5,2.52,-4.88,-1.44,0.09,-1.01,-0.08,-2.21,-1.08,0.06,0.0,1.017152889196113,5.677886930892512,0.01143237950475573,0.28,0,1,0.0
4.435270383999978,239,500.64,-95.7,3.0,-86.0,2.74,-4.89,-1.47,0.12,-1.01,-0.08,-2.22,-0.62,0.04,0.0,1.0202450685987166,5.794877047875994,0.014234067729212097,0.28,0,1,0.0
4.4467937539998275,240,500.65,-95.5,3.2,-86.5,3.12,-4.94,-1.51,0.13,-0.99,-0.08,-2.22,-0.2,0.26,0.0,1.0016985574512924,6.034741088066662,0.00422619454984785,0.28,0,1,0.0
4.455272656000034,241,500.66,-95.2,3.3,-87.1,3.29,-4.98,-1.49,0.15,-0.95,-0.09,-2.22,-0.23,-0.08,0.0,0.9659710140578753,6.151796485580452,0.03915466318439964,0.28,0,1,0.0
4.46681332199978,242,500.67,-94.9,3.5,-87.6,3.16,-4.98,-1.43,0.17,-0.93,-0.1,-2.23,-0.43,0.04,0.0,0.9506839643120105,6.0688466779117105,0.053352878671659165,0.28,0,1,0.0
4.47539449199985,243,500.68,-94.6,3.6,-88.1,2.73,-4.88,-1.37,0.19,-0.93,-0.12,-2.23,-0.67,-0.18,0.0,0.9567653839891994,5.757099964391794,0.046326029814580894,0.28,0,1,0.0
4.486785198999769,244,500.69,-94.4,3.7,-88.6,2.2,-4.59,-1.36,0.2,-0.95,-0.14,-2.24,-1.06,-0.07,0.0,0.9808669634563089,5.268557677391413,0.02177996134052196,0.28,0,1,0.0
4.495380132999799,245,500.7,-94.3,3.8,-89.0,1.63,-4.31,-1.4,0.2,-0.98,-0.14,-2.25,-1.55,-0.09,0.0,1.0099504938362078,4.81591112874812,0.007157497658589529,0.28,0,1,0.0
4.50681520299986,246,500.71,-94.1,3.9,-89.4,1.15,-4.0,-1.43,0.19,-1.02,-0.14,-2.27,-2.08,-0.08,0.0,1.0469479452198185,4.4008408287507965,0.043271850061356254,0.28,0,1,0.0
4.515439880000031,247,500.72,-94.1,4.0,-89.8,0.96,-3.73,-1.51,0.18,-1.07,-0.13,-2.3,-2.54,-0.1,0.0,1.0927945827098522,4.136979574520522,0.08733611780036221,0.28,0,1,0.0
4.526717603999714,248,500.73,-94.0,4.2,-90.2,1.09,-3.57,-1.59,0.16,-1.09,-0.12,-2.33,-2.94,-0.17,0.0,1.1081967334368028,4.0572281178164,0.10068350315676655,0.28,0,1,0.0
4.53527508399975,249,500.74,-93.9,4.4,-90.6,1.52,-3.54,-1.64,0.15,-1.07,-0.11,-2.36,-3.38,0.08,0.0,1.0860478810807561,4.187075351602835,0.07696395778470544,0.28,0,1,0.0
4.546577939999679,250,500.75,-93.8,4.5,-90.9,2.02,-3.55,-1.67,0.14,-1.03,-0.12,-2.39,-3.73,-0.02,0.0,1.0463746938836012,4.412686256692175,0.036544955175799476,0.28,0,1,0.0
4.555262072999994,251,500.76,-93.7,4.7,-91.3,2.22,-3.57,-1.68,0.15,-0.98,-0.11,-2.43,-4.05,0.02,0.0,0.9974968671630001,4.527217688603012,0.012086214113905425,0.28,0,1,0.0
4.566638254999816,252,500.77,-93.5,4.9,-91.7,2.22,-3.57,-1.67,0.16,-0.94,-0.12,-2.48,-4.33,-0.04,0.0,0.961041102138717,4.523516331351088,0.04757113955542491,0.28,0,1,0.0
4.575399602999823,253,500.78,-93.3,5.0,-92.0,2.04,-3.42,-1.61,0.19,-0.91,-0.14,-2.52,-4.54,0.1,0.0,0.9401063769595439,4.295357959472062,0.06713574743990591,0.28,0,1,0.0
4.586656499999663,254,500.79,-93.1,5.2,-92.4,1.74,-3.22,-1.51,0.22,-0.9,-0.14,-2.57,-4.6,0.09,0.0,0.9370165420097982,3.959305494654334,0.06882107074185861,0.28,0,1,0.0
4.595382156999676,255,500.8,-93.0,5.3,-92.7,1.52,-2.95,-1.39,0.23,-0.9,-0.12,-2.61,-4.55,-0.16,0.0,0.9366429415737888,3.597916063501204,0.06781077775431077,0.28,0,1,0.0
4.606809916999737,256,500.81,-92.9,5.4,-93.0,1.39,-2.7,-1.24,0.24,-0.9,-0.12,-2.66,-4.41,0.22,0.0,0.9391485505499116,3.280198164745539,0.06399906540262423,0.28,0,1,0.0
4.615378345999943,257,500.82,-92.8,5.5,-93.3,1.23,-2.48,-1.11,0.24,-0.91,-0.12,-2.7,-4.03,0.15,0.0,0.9487360012142472,2.982515716639227,0.05332338244352286,0.28,0,1,0.0
4.626713722999739,258,500.83,-92.7,5.6,-93.5,1.19,-2.33,-1.02,0.23,-0.9,-0.12,-2.74,-3.57,0.0,0.0,0.9366429415737888,2.8080954399735063,0.0641081132423017,0.28,0,1,0.0
4.635402655999769,259,500.84,-92.6,5.7,-93.7,1.15,-2.19,-0.92,0.22,-0.9,-0.12,-2.77,-2.96,0.05,0.0,0.9342376571301331,2.6391286440793293,0.06518312973223828,0.28,0,1,0.0
4.6467930159997195,260,500.85,-92.5,5.8,-94.0,1.17,-2.08,-0.82,0.22,-0.9,-0.12,-2.79,-2.31,0.0,0.0,0.9342376571301331,2.523430205097815,0.06387946713759352,0.28,0,1,0.0
4.655276756999683,261,500.86,-92.4,5.8,-94.2,1.29,-1.93,-0.72,0.23,-0.89,-0.13,-2.81,-1.58,0.11,0.0,0.9283856957105705,2.430514348857048,0.06833679998601294,0.28,0,1,0.0
4.666830435000065,262,500.87,-92.3,5.9,-94.4,1.23,-1.8,-0.58,0.23,-0.87,-0.12,-2.82,-0.96,0.12,0.0,0.9078546139112804,2.255947694429106,0.08709052414959695,0.28,0,1,0.0
4.675397501999669,263,500.88,-92.2,5.9,-94.5,1.03,-1.68,-0.44,0.24,-0.86,-0.13,-2.83,-0.49,0.09,0.0,0.9022749026765623,2.0191334775095973,0.09081683067662871,0.28,0,1,0.0
4.686757286000102,264,500.89,-92.1,6.0,-94.7,0.73,-1.49,-0.29,0.24,-0.86,-0.13,-2.83,-0.08,0.1,0.0,0.9022749026765623,1.684369318172235,0.08900049406309618,0.28,0,1,0.0
4.695392983999682,265,500.9,-92.1,6.0,-94.8,0.45,-1.28,-0.15,0.25,-0.86,-0.14,-2.83,0.09,0.15,0.0,0.9064766957842876,1.3650641010589941,0.08310272693626353,0.28,0,1,0.0
4.706789468999887,266,500.91,-92.1,6.0,-94.9,0.29,-1.04,0.01,0.26,-0.86,-0.14,-2.83,0.0,0.0,0.0,0.9092854337335443,1.0797221864905806,0.07868810920726665,0.28,0,1,0.0
4.715426679999837,267,500.92,-92.0,6.0,-95.0,0.24,-0.81,0.19,0.27,-0.87,-0.14,-2.83,-0.01,0.2,0.0,0.9216289925995167,0.8659099260315707,0.06501765933446835,0.28,0,1,0.0
4.726782632999857,268,500.93,-92.0,5.9,-95.1,0.22,-0.57,0.41,0.27,-0.88,-0.15,-2.83,0.0,-0.04,0.0,0.9326306878931231,0.735798885565886,0.05293564476004475,0.28,0,1,0.0
4.73529777199974,269,500.94,-92.0,5.9,-95.1,0.23,-0.27,0.65,0.28,-0.89,-0.15,-2.83,0.0,0.05,0.0,0.944986772394196,0.740472821918536,0.03976796905379232,0.28,0,1,0.0
4.746512772999722,270,500.95,-92.0,5.8,-95.2,0.23,0.0,0.87,0.29,-0.89,-0.15,-2.83,0.01,-0.08,0.0,0.9479978902930111,0.8998888820293315,0.03602171413187771,0.28,0,1,0.0
4.75528638500009,271,500.96,-92.0,5.7,-95.1,0.21,0.28,1.09,0.29,-0.89,-0.16,-2.83,0.0,0.2,0.0,0.9496315074806648,1.1448143954370946,0.03370033500533942,0.28,0,1,0.0
4.766831852999985,272,500.97,-91.9,5.6,-95.1,0.14,0.6,1.3,0.28,-0.88,-0.16,-2.83,0.0,0.05,0.0,0.9372299611087985,1.4386104406683555,0.04517984374966166,0.28,0,1,0.0
4.775388794999799,273,500.98,-91.9,5.5,-95.0,0.01,0.92,1.5,0.27,-0.88,-0.16,-2.83,0.0,0.09,0.0,0.9342911751697112,1.75968747225182,0.04715625709497406,0.28,0,1,0.0
4.786779671999739,274,500.99,-91.9,5.3,-94.9,-0.09,1.24,1.67,0.26,-0.89,-0.15,-2.83,0.1,0.24,0.0,0.9392550239418472,2.081970220728433,0.04134856015638122,0.28,0,1,0.0
4.795402913000089,275,501.0,-91.9,5.1,-94.7,-0.2,1.55,1.82,0.26,-0.89,-0.15,-2.83,0.17,0.15,0.0,0.9392550239418472,2.3989372647070204,0.04052158895325364,0.28,0,1,0.0
4.806715539999914,276,501.01,-91.9,4.9,-94.6,-0.31,1.84,1.97,0.25,-0.9,-0.15,-2.83,0.28,0.0,0.0,0.9460443964212251,2.713411137295637,0.033057572144398306,0.28,0,1,0.0
4.815401444999679,277,501.02,-92.0,4.7,-94.4,-0.39,2.1,2.09,0.24,-0.9,-0.15,-2.82,0.35,-0.24,0.0,0.9434511116109833,2.9883440230334926,0.03493783981554732,0.28,0,1,0.0
4.826729597999929,278,501.03,-92.0,4.5,-94.1,-0.44,2.38,2.25,0.23,-0.9,-0.15,-2.82,0.65,0.05,0.0,0.9409569596958194,3.304617980947268,0.03668335189609695,0.28,0,1,0.0
4.835305388000052,279,501.04,-92.0,4.3,-93.9,-0.52,2.63,2.39,0.22,-0.91,-0.14,-2.81,0.86,0.08,0.0,0.9466255859631093,3.59157347133537,0.030394431116230858,0.28,0,1,0.0
4.846761189000063,280,501.05,-92.0,4.1,-93.6,-0.6,2.82,2.51,0.22,-0.92,-0.13,-2.8,1.12,0.06,0.0,0.954829827770373,3.82262998470948,0.021746385522787848,0.28,0,1,0.0
4.855312746999971,281,501.06,-92.1,3.8,-93.3,-0.6,3.06,2.68,0.22,-0.9,-0.14,-2.79,1.45,0.02,0.0,0.9370165420097982,4.111690649842227,0.03876847785769533,0.28,0,1,0.0
4.866831345999799,282,501.07,-92.1,3.6,-92.9,-0.55,3.27,2.94,0.23,-0.87,-0.15,-2.77,1.83,-0.06,0.0,0.9123047736365298,4.431591136375286,0.06221064130634446,0.28,0,1,0.0
4.875393042999804,283,501.08,-92.1,3.2,-92.6,-0.44,3.5,3.31,0.26,-0.85,-0.15,-2.75,2.3,-0.06,0.0,0.9014432871789549,4.837323640196096,0.071610685208641,0.28,0,1,0.0
4.886889264999809,284,501.09,-92.2,2.9,-92.2,-0.34,3.86,3.8,0.27,-0.81,-0.18,-2.72,2.8,0.01,0.0,0.8725823743349392,5.427264504333651,0.09846216609160352,0.28,0,1,0.0
4.8956503229997,285,501.1,-92.2,2.5,-91.8,-0.62,4.38,4.17,0.23,-0.86,-0.16,-2.69,3.04,0.2,0.0,0.9044888059008801,6.079284497373026,0.06522461983514938,0.28,0,1,0.0
4.906750791999912,286,501.11,-92.3,2.1,-91.3,-1.14,5.03,4.17,0.22,-0.97,-0.08,-2.66,3.12,-0.03,0.0,0.9978476837674174,6.632450527519976,0.027571572870760175,0.28,0,1,0.0
4.919610250000005,287,501.12,-92.4,1.8,-90.7,-2.91,6.0,3.63,0.12,-1.2,-0.02,-2.63,2.63,-0.03,0.0,1.2061509026651682,7.592430440906258,0.23115729593314083,0.28,0,1,0.0
4.927635760999692,288,501.13,-92.8,1.5,-90.1,-5.25,6.55,2.42,-0.03,-1.43,0.1,-2.61,1.83,0.0,0.0,1.4338061235745925,8.736211993764803,0.44963626650571376,0.28,1,2,0.5
4.935612865999701,289,501.14,-93.4,1.4,-89.4,-6.49,6.61,1.32,-0.17,-1.46,0.1,-2.6,0.99,-0.12,0.0,1.4732616875490925,9.357061504553661,0.47930999387060946,0.28,0,2,0.5
4.947002311999768,290,501.15,-94.0,1.3,-88.7,-5.72,6.16,0.71,-0.24,-1.49,0.14,-2.6,0.0,0.42,0.62,1.5156846637740977,8.436118775835247,0.5112983106937024,0.28,0,2,0.5
4.955417777000093,291,501.16,-94.4,1.3,-88.2,-2.95,5.1,0.19,-0.23,-1.44,0.15,-2.6,-1.02,0.62,0.62,1.4659467930317254,5.894794313629611,0.4523292311523035,0.28,0,2,0.5
4.966645927999707,292,501.17,-94.5,1.3,-87.7,0.14,4.19,0.02,-0.17,-1.23,0.04,-2.62,-1.29,0.71,0.62,1.2423365083583433,4.1923859555150695,0.22414456754934298,0.28,0,2,0.5
4.975384959999701,293,501.18,-94.4,1.3,-87.3,2.35,3.72,0.18,-0.05,-1.03,-0.05,-2.63,-1.04,0.77,0.62,1.0324243313676793,4.403782465108829,0.013947742747505432,0.28,0,2,0.5
4.986936671999956,294,501.19,-94.0,1.3,-87.0,3.87,3.53,0.33,0.06,-0.85,-0.07,-2.64,-0.54,0.68,0.62,0.8549853799919622,5.248495022384988,0.1602213844556475,0.28,0,2,0.5
4.995302445000107,295,501.2,-93.6,1.3,-86.6,3.97,3.58,0.45,0.12,-0.72,-0.09,-2.64,-0.03,0.74,0.62,0.7354590403278757,5.36468079199499,0.27415276963733926,0.28,0,2,0.5
5.006906118999723,296,501.21,-93.3,1.3,-86.2,2.64,4.1,0.49,0.14,-0.66,-0.12,-2.64,0.0,0.55,0.62,0.6852736679604726,4.900989695969581,0.31785137916464745,0.28,0,2,0.5
5.01542923199986,297,501.22,-93.1,1.3,-85.8,0.48,4.76,0.43,0.12,-0.67,-0.13,-2.64,0.0,0.6,0.62,0.6929646455628167,4.80342586077895,0.3039571935310573,0.28,0,2,0.5
5.026795916000083,298,501.23,-93.2,1.3,-85.3,-1.66,5.36,0.32,0.08,-0.74,-0.09,-2.64,0.0,0.6,0.62,0.7497332859090624,5.6202846902981705,0.24224478212111533,0.28,0,2,0.5
5.035392228000092,299,501.24,-93.4,1.3,-84.7,-3.12,5.45,0.14,0.03,-0.87,-0.01,-2.64,-0.01,0.5,0.62,0.8705745229444749,6.281440917496558,0.1189754741839888,0.28,0,2,0.5
5.046888125999885,300,501.25,-93.7,1.3,-84.2,-3.34,5.15,-0.04,-0.02,-1.02,0.0,-2.64,0.0,0.63,0.62,1.020196059588548,6.138379264920017,0.03003314121088263,0.28,0,2,0.5
5.055290710999998,301,501.26,-94.0,1.3,-83.7,-3.2,4.98,-0.08,-0.1,-1.11,-0.02,-2.64,-0.03,0.6,0.62,1.1146748404803977,5.920033783687387,0.12202168366067767,0.28,0,2,0.5
5.066923192000104,302,501.27,-94.3,1.4,-83.2,-2.69,4.46,-0.13,-0.18,-1.19,-0.01,-2.64,-0.06,0.75,0.62,1.203577999134248,5.210047984423944,0.2067063454682373,0.28,0,2,0.5
5.075387441999737,303,501.28,-94.5,1.4,-82.8,-1.79,3.93,-0.07,-0.23,-1.22,-0.04,-2.64,-0.13,0.62,0.62,1.2421352583354197,4.319016091657914,0.24035833257602102,0.28,0,2,0.5
5.0869237309998425,304,501.29,-94.6,1.5,-82.4,-0.69,3.33,0.04,-0.26,-1.22,-0.03,-2.64,-0.23,0.59,0.62,1.2477579893553077,3.4009704497393094,0.24106144232399074,0.28,0,2,0.5
5.095397603000038,305,501.3,-94.6,1.5,-82.1,0.18,2.74,0.09,-0.24,-1.14,-0.06,-2.64,-0.17,0.76,0.62,1.166533325713415,2.7473805706527084,0.15664004310845603,0.28,0,2,0.5
5.106747930999973,306,501.31,-94.6,1.5,-81.9,0.58,2.39,0.12,-0.19,-1.07,-0.08,-2.64,-0.08,0.54,0.62,1.0896788517723925,2.462295676802443,0.07818985778408494,0.28,0,2,0.5
5.115408447999926,307,501.32,-94.5,1.5,-81.7,0.55,2.02,0.05,-0.15,-1.03,-0.06,-2.64,0.0,0.45,0.62,1.0425929215182692,2.0941346661568834,0.030481848979362347,0.28,0,2,0.0
5.126743364000049,308,501.33,-94.5,1.5,-81.5,0.26,1.8,0.04,-0.09,-0.99,-0.08,-2.64,0.0,0.65,0.62,0.9972963451251589,1.8191206666958628,0.014518432865473052,0.28,0,2,0.0
5.135396669999864,309,501.34,-94.5,1.4,-81.3,-0.25,1.69,0.1,-0.05,-1.01,-0.06,-2.64,0.23,-0.09,0.0,1.013015300970326,1.7113152836341992,0.0011765125201002036,0.28,0,2,0.0
5.147566660999928,310,501.35,-94.5,1.4,-81.1,-0.43,1.64,0.19,-0.02,-1.05,-0.06,-2.64,0.35,0.11,0.0,1.0519030373565808,1.7060480649735514,0.03926296392822781,0.28,0,2,0.0
5.155285232000097,311,501.36,-94.5,1.4,-81.0,-0.27,1.55,0.32,-0.03,-1.07,-0.04,-2.64,0.16,-0.13,0.0,1.071167587261676,1.6055528642807126,0.057356963556656426,0.28,0,2,0.0
5.166784245999679,312,501.37,-94.5,1.3,-80.8,0.09,1.41,0.52,-0.03,-1.05,-0.04,-2.64,0.1,-0.04,0.0,1.0511898020814319,1.5055231648832241,0.036631594808884005,0.28,0,2,0.0
5.175428149999789,313,501.38,-94.4,1.2,-80.7,0.41,1.33,0.72,-0.05,-1.02,-0.05,-2.64,0.02,-0.03,0.0,1.0224480426897007,1.5669716015295236,0.007732038708809785,0.28,0,2,0.0
5.186866536999787,314,501.39,-94.4,1.1,-80.5,0.45,1.17,0.86,-0.06,-0.99,-0.04,-2.64,0.0,0.04,0.0,0.992622788374315,1.5201973556088038,0.0216513512944444,0.28,0,2,0.0
5.1954255229998125,315,501.4,-94.3,0.9,-80.4,0.28,1.02,0.9,-0.08,-0.97,-0.03,-2.64,0.0,-0.12,0.0,0.973755616158387,1.3888124423405777,0.03970815304016495,0.28,0,2,0.0
5.206765407999683,316,501.41,-94.3,0.8,-80.3,0.02,0.87,0.87,-0.08,-0.97,-0.05,-2.64,0.0,0.03,0.0,0.9745768312452333,1.2305283418109474,0.03810919919425226,0.28,0,2,0.0
5.215436896000028,317,501.42,-94.3,0.7,-80.2,-0.09,0.71,0.79,-0.08,-0.97,-0.07,-2.64,0.01,-0.04,0.0,0.9758073580374356,1.0659737332598773,0.036141098954008966,0.28,0,2,0.0
5.226817880999988,318,501.43,-94.3,0.5,-80.2,0.0,0.58,0.7,-0.08,-0.96,-0.08,-2.64,0.01,0.04,0.0,0.9666436778875657,0.9090654541890809,0.04439868352180121,0.28,0,2,0.0
5.235611350999989,319,501.44,-94.3,0.4,-80.1,0.11,0.52,0.61,-0.08,-0.96,-0.09,-2.64,0.0,-0.03,0.0,0.9675226095549395,0.8090735442467515,0.042649356817338835,0.28,0,2,0.0
5.2469505330000175,320,501.45,-94.3,0.3,-80.1,0.21,0.52,0.48,-0.09,-0.96,-0.08,-2.64,0.02,0.12,0.0,0.9675226095549395,0.738173421358423,0.041796369680992096,0.28,0,2,0.0
5.25560485699998,321,501.46,-94.3,0.2,-80.0,0.27,0.48,0.3,-0.11,-0.95,-0.06,-2.64,-0.02,-0.04,0.0,0.9582275303913993,0.6271363488110061,0.05006961986764169,0.28,0,2,0.0
5.266872563000106,322,501.47,-94.2,0.2,-80.0,0.26,0.37,0.12,-0.13,-0.94,-0.05,-2.64,0.0,0.05,0.0,0.9502631214563679,0.4678675026115834,0.05687334822661949,0.28,0,2,0.0
5.275665920999927,323,501.48,-94.2,0.2,-79.9,0.11,0.12,-0.06,-0.15,-0.93,-0.04,-2.64,0.0,0.04,0.0,0.9428679653058535,0.17349351572897473,0.06298313428959135,0.28,0,2,0.0
5.286729281999669,324,501.49,-94.2,0.2,-79.9,-0.08,-0.16,-0.26,-0.16,-0.93,-0.04,-2.64,0.0,-0.03,0.0,0.94451045520947,0.31559467676119,0.06011383149825533,0.28,0,2,0.0
5.2954618139997365,325,501.5,-94.2,0.2,-80.0,-0.29,-0.5,-0.48,-0.17,-0.95,-0.04,-2.64,0.0,-0.04,0.0,0.96591925128346,0.7513321502504734,0.03793093471577991,0.28,0,2,0.0
5.306816538000021,326,501.51,-94.3,0.3,-80.0,-0.37,-0.86,-0.68,-0.16,-0.97,-0.04,-2.64,0.0,0.04,0.0,0.9839207285142436,1.1571084650973738,0.01953086833529627,0.28,0,2,0.0
5.315565350999805,327,501.52,-94.3,0.3,-80.2,-0.34,-1.21,-0.9,-0.15,-0.98,-0.05,-2.64,0.0,-0.02,0.0,0.9926731586982696,1.5458654533949583,0.010562869388244911,0.28,0,2,0.0
5.326746399000058,328,501.53,-94.3,0.4,-80.3,-0.32,-1.51,-1.1,-0.14,-0.98,-0.06,-2.64,-0.01,0.04,0.0,0.991766101457395,1.8953891421024867,0.011240528096537195,0.28,0,2,0.0
5.335542405000069,329,501.54,-94.4,0.5,-80.5,-0.37,-1.76,-1.29,-0.12,-0.98,-0.06,-2.64,0.01,-0.03,0.0,0.9891410415102591,2.213278111760924,0.013588276282799683,0.28,0,2,0.0
5.346836450999945,330,501.55,-94.4,0.6,-80.7,-0.52,-1.97,-1.49,-0.11,-0.97,-0.07,-2.64,0.0,0.03,0.0,0.9787236586493656,2.524163227685563,0.02352554596081935,0.28,0,2,0.0
5.354966663999676,331,501.56,-94.5,0.7,-80.9,-0.67,-2.09,-1.66,-0.08,-0.96,-0.08,-2.64,0.0,-0.03,0.0,0.9666436778875657,2.7518357509124702,0.03489341618816699,0.28,0,2,0.0
5.366664571999991,332,501.57,-94.6,0.8,-81.1,-0.83,-2.17,-1.82,-0.07,-0.96,-0.1,-2.64,0.0,-0.11,0.0,0.9677293009927931,2.9513047961876118,0.03313163722128076,0.28,0,2,0.0
5.379582704999848,333,501.58,-94.7,0.9,-81.4,-0.97,-2.21,-1.92,-0.05,-0.96,-0.11,-2.64,0.01,0.04,0.0,0.9675742865537508,3.0840557712207475,0.03262091862711658,0.28,0,2,0.0
5.391563809999752,334,501.59,-94.8,1.1,-81.6,-1.09,-2.2,-1.97,-0.05,-0.96,-0.1,-2.64,0.03,-0.03,0.0,0.9664884893261791,3.147856413497922,0.033032581537594474,0.28,0,2,0.0
5.403530892999697,335,501.6,-95.0,1.2,-81.8,-1.29,-2.26,-1.98,-0.04,-0.97,-0.1,-2.64,0.04,-0.03,0.0,0.9759610647971567,3.269877673552942,0.02308880594528462,0.28,0,2,0.0
5.411536217000048,336,501.61,-95.1,1.3,-82.1,-1.39,-2.27,-2.01,-0.02,-1.01,-0.04,-2.63,0.07,0.04,0.0,1.0109896141899777,3.3354310066316764,0.011700948578585613,0.28,0,2,0.0
5.423484772999927,337,501.62,-95.2,1.5,-82.3,-2.14,-2.46,-1.8,0.01,-1.04,0.05,-2.63,0.13,0.11,0.0,1.0412492496996097,3.7244059929067883,0.041121372406453416,0.28,0,2,0.0
5.435655671999939,339,501.64,-96.0,1.7,-82.9,-4.77,-2.85,-0.32,0.21,-1.34,-0.09,-2.63,0.5,-0.24,0.0,1.3593380742111214,5.565770386927581,0.3520259929796057,0.28,1,3,0.5
5.446877376999964,340,501.65,-96.5,1.6,-83.1,-3.56,-2.17,0.52,0.28,-1.44,-0.17,-2.62,0.67,-0.03,0.0,1.4767870530310048,4.201535433624236,0.4600854723634993,0.28,0,3,0.5
5.455556599999909,341,501.66,-96.7,1.5,-83.3,-0.23,-1.59,1.12,0.27,-1.44,-0.16,-2.61,0.64,0.36,0.62,1.4738046003456495,1.9584177286779245,0.44796095928458124,0.28,0,3,0.5
5.466845072000069,342,501.67,-96.4,1.4,-83.4,5.32,-0.82,1.0,0.2,-1.41,-0.2,-2.61,0.06,0.68,0.62,1.4380890097626085,5.474924657015839,0.40400046132750944,0.28,0,3,0.5
5.475562335999712,343,501.68,-95.7,1.4,-83.5,8.21,-0.27,0.26,0.12,-1.09,-0.11,-2.61,-0.06,0.37,0.62,1.1020889256316844,8.218552183931182,0.06664036965265363,0.28,0,3,0.5
5.486924791000092,344,501.69,-94.8,1.4,-83.5,7.9,-0.11,-0.46,0.0,-0.87,0.09,-2.61,0.0,0.77,0.62,0.8746427842267951,7.914145563483149,0.1575896563171909,0.28,0,3,0.5
5.495712678000018,345,501.7,-94.2,1.5,-83.5,5.68,-1.02,-1.13,-0.12,-0.71,0.23,-2.61,0.0,0.37,0.62,0.7559100475585703,5.880450663001944,0.27079594512570737,0.28,0,3,0.5
5.506820426000104,346,501.71,-93.8,1.6,-83.7,1.96,-2.33,-1.55,-0.2,-0.64,0.15,-2.61,-0.01,0.69,0.62,0.6870953354520754,3.4165772346019048,0.33281844408755823,0.28,0,3,0.5
5.515554184999928,347,501.72,-93.8,1.8,-84.0,-0.84,-3.1,-1.67,-0.23,-0.67,0.01,-2.61,0.0,0.53,0.62,0.7084490101623405,3.620013812128346,0.30523547398974726,0.28,0,3,0.5
5.526955888999964,348,501.73,-94.0,1.9,-84.4,-2.26,-3.75,-1.61,-0.22,-0.78,-0.05,-2.61,-0.01,0.69,0.62,0.8119729059519166,4.664997320470827,0.19767734663616776,0.28,0,3,0.5
5.5356362519996765,349,501.74,-94.2,2.0,-84.8,-1.94,-4.23,-1.35,-0.17,-0.87,-0.07,-2.61,0.0,0.53,0.62,0.8892131353055914,4.8455133886926784,0.11802837493684315,0.28,0,3,0.5
5.546906260000014,350,501.75,-94.3,2.1,-85.2,-0.58,-4.69,-0.81,-0.07,-0.96,-0.06,-2.61,0.01,0.62,0.62,0.9644169222903547,4.794642843841447,0.04196809619303821,0.28,0,3,0.5
5.555558250000104,351,501.76,-94.3,2.1,-85.7,1.21,-5.15,-0.33,0.04,-1.06,-0.08,-2.61,0.0,0.46,0.62,1.063766891757776,5.300518842528532,0.056234235808895416,0.28,0,3,0.5
5.566870689000098,352,501.77,-94.1,2.1,-86.3,2.7,-5.33,0.07,0.14,-1.08,-0.12,-2.61,0.0,0.3,0.62,1.095627673984187,5.975265684469604,0.08633311767460028,0.28,0,3,0.5
5.575641939999969,353,501.78,-93.9,2.0,-86.8,3.16,-5.12,0.24,0.22,-1.13,-0.15,-2.61,-0.03,0.7,0.62,1.160947888580706,6.021428401965767,0.14862026562569697,0.28,0,3,0.5
5.586916328999905,354,501.79,-93.6,2.0,-87.3,2.9,-4.73,0.08,0.27,-1.14,-0.15,-2.61,-0.24,0.53,0.62,1.1811011811017715,5.54881068338072,0.16539808698382719,0.28,0,3,0.5
5.595636582999759,355,501.8,-93.3,1.9,-87.7,2.36,-4.26,-0.32,0.33,-1.12,-0.16,-2.62,-0.39,0.64,0.62,1.1785160160133592,4.880532757804213,0.15955666345750652,0.28,0,3,0.5
5.606968974999745,356,501.81,-93.1,2.0,-88.1,1.7,-3.71,-0.68,0.38,-1.08,-0.17,-2.62,-0.42,0.65,0.62,1.1574541027617467,4.137209204282519,0.13572485520177602,0.28,0,3,0.5
5.615501962000053,357,501.82,-93.0,2.0,-88.5,1.17,-3.07,-1.01,0.4,-1.05,-0.21,-2.63,-0.56,0.58,0.62,1.1430660523346847,3.437135435213457,0.11891006867921972,0.28,0,3,0.5
5.626808551000067,358,501.83,-92.9,2.1,-88.7,0.76,-2.32,-1.27,0.37,-1.01,-0.23,-2.63,-0.71,0.7,0.62,1.0999545445153631,2.7518902594398638,0.07428258964270018,0.28,0,3,0.0
5.635613547000048,359,501.84,-92.9,2.3,-88.9,0.19,-1.54,-1.49,0.32,-0.99,-0.21,-2.64,-0.9,0.54,0.62,1.0614141510268271,2.151232205039707,0.03502735223108089,0.28,0,3,0.0
5.646934803000022,360,501.85,-92.9,2.4,-89.1,-0.19,-0.98,-1.66,0.26,-0.98,-0.16,-2.65,-0.76,0.1,0.0,1.0264501936285073,1.9370338148829513,6.212693610585518e-05,0.28,0,3,0.0
5.655568986999697,361,501.86,-92.9,2.6,-89.2,-0.41,-0.64,-1.82,0.2,-0.97,-0.13,-2.65,-0.04,0.0,0.0,0.9988993943335835,1.972333643175008,0.026938898911641473,0.28,0,3,0.0
5.666831859000013,362,501.87,-93.0,2.8,-89.2,-0.49,-0.55,-1.85,0.14,-0.93,-0.11,-2.65,0.12,-0.08,0.0,0.9468896451012653,1.991255885113714,0.07736967518108051,0.28,0,3,0.0
5.675299631999678,363,501.88,-93.1,3.0,-89.3,-0.74,-0.56,-1.73,0.11,-0.9,-0.09,-2.65,0.0,-0.05,0.0,0.9111531155629113,1.9631861857704684,0.1108440806250457,0.28,0,3,0.0
5.686924056999942,364,501.89,-93.2,3.2,-89.4,-0.94,-0.74,-1.6,0.11,-0.92,-0.09,-2.65,-0.02,0.28,0.0,0.9309135298189624,1.997798788667167,0.08926199304161475,0.28,0,3,0.0
5.695563383999797,365,501.9,-93.3,3.4,-89.5,-0.94,-0.98,-1.47,0.12,-0.91,-0.09,-2.65,0.03,0.0,0.0,0.9222797840135064,2.001224625073357,0.09593782407012919,0.28,0,3,0.0
5.706811829999879,366,501.91,-93.4,3.6,-89.6,-0.87,-1.21,-1.34,0.13,-0.92,-0.08,-2.65,0.03,-0.17,0.0,0.9325770745627409,2.004145703286066,0.0839277228504769,0.28,0,3,0.0
5.715619669999796,367,501.92,-93.5,3.7,-89.7,-0.65,-1.46,-1.15,0.15,-0.94,-0.1,-2.65,-0.03,0.13,0.0,0.9571311299921239,1.9689083269670022,0.058186194072672004,0.28,0,3,0.0
5.726949029000025,368,501.93,-93.6,3.8,-89.9,-0.24,-1.67,-0.92,0.16,-0.93,-0.1,-2.65,0.0,0.06,0.0,0.9489467845985886,1.9216919628285902,0.06504312867688311,0.28,0,3,0.0
5.735465715999908,369,501.94,-93.6,3.9,-90.1,0.22,-1.83,-0.69,0.18,-0.92,-0.11,-2.65,0.03,0.09,0.0,0.9438749917229505,1.9680955261368793,0.06871262312147075,0.28,0,3,0.0
5.7468240889998015,370,501.95,-93.6,3.9,-90.3,0.72,-1.92,-0.5,0.2,-0.9,-0.13,-2.65,-0.03,0.0,0.0,0.9310746479203481,2.1106397134518247,0.0798827075855918,0.28,0,3,0.0
5.755584575999819,371,501.96,-93.5,4.0,-90.5,0.93,-1.88,-0.3,0.22,-0.87,-0.15,-2.65,-0.01,0.0,0.0,0.9098351499035415,2.1187968283910563,0.09909976149035038,0.28,0,3,0.0
5.766844530000071,372,501.97,-93.4,4.0,-90.6,0.85,-1.65,-0.1,0.25,-0.84,-0.17,-2.65,0.03,-0.14,0.0,0.8927485648266257,1.8587630295441104,0.11386261963592081,0.28,0,3,0.0
5.775678452999728,373,501.98,-93.4,4.0,-90.8,0.57,-1.28,0.04,0.27,-0.84,-0.19,-2.65,0.0,-0.11,0.0,0.902551937563706,1.401748907615055,0.10197806196086379,0.28,0,3,0.0
5.786757880000096,374,501.99,-93.3,3.9,-90.9,0.24,-0.84,0.22,0.29,-0.83,-0.19,-2.65,0.0,-0.02,0.0,0.899499861033897,0.9008884503644166,0.10292953572085939,0.28,0,3,0.0
5.795611479999934,375,502.0,-93.3,3.9,-91.0,-0.1,-0.37,0.48,0.31,-0.83,-0.19,-2.65,0.02,0.34,0.0,0.9061456836513652,0.6142475071174485,0.09435803884132332,0.28,0,3,0.0
5.806957837000027,376,502.01,-93.3,3.8,-91.0,-0.32,0.06,0.72,0.31,-0.86,-0.19,-2.65,0.09,-0.05,0.0,0.9337023080189959,0.7901898506055364,0.06546538618421871,0.28,0,3,0.0
5.815636771999834,377,502.02,-93.4,3.8,-90.9,-0.36,0.55,1.0,0.31,-0.88,-0.19,-2.65,0.19,-0.14,0.0,0.9521554494934112,1.196703806294607,0.04607199981560728,0.28,0,3,0.0
5.826910460999898,378,502.03,-93.4,3.6,-90.8,-0.29,0.95,1.28,0.28,-0.89,-0.17,-2.65,0.21,0.08,0.0,0.9483670175622938,1.620185174601965,0.048863223111790255,0.28,0,3,0.0
5.8355677489998925,379,502.04,-93.4,3.5,-90.7,-0.17,1.16,1.51,0.25,-0.89,-0.14,-2.64,0.32,0.08,0.0,0.934986630920464,1.911700813411973,0.06099873755854768,0.28,0,3,0.0
5.846946180000032,380,502.05,-93.4,3.4,-90.6,-0.07,1.29,1.71,0.21,-0.89,-0.11,-2.64,0.49,-0.02,0.0,0.9210320298447824,2.143151884491624,0.07345427186154463,0.28,0,3,0.0
5.855574313000034,381,502.06,-93.4,3.2,-90.4,-0.13,1.3,1.86,0.17,-0.88,-0.08,-2.63,0.55,0.04,0.0,0.8998333178983761,2.2729936207565564,0.0927599241317919,0.28,0,3,0.0
5.866926792999948,382,502.07,-93.4,3.0,-90.3,-0.3,1.26,2.01,0.15,-0.88,-0.07,-2.63,0.7,0.14,0.0,0.8954328562209453,2.391171261118701,0.0952171780930382,0.28,0,3,0.0
5.875694444999681,383,502.08,-93.5,2.8,-90.2,-0.46,1.25,2.18,0.15,-0.88,-0.09,-2.62,0.87,0.05,0.0,0.897217922246318,2.5547015481265127,0.09156346982631214,0.28,0,3,0.0
5.886825494999812,384,502.09,-93.5,2.6,-90.0,-0.49,1.32,2.41,0.16,-0.88,-0.12,-2.61,1.14,-0.05,0.0,0.9024411338142782,2.7911646314755423,0.08461345309318502,0.28,0,3,0.0
5.895364211000015,385,502.1,-93.6,2.3,-89.9,-0.34,1.43,2.67,0.17,-0.87,-0.13,-2.59,1.42,-0.01,0.0,0.8959352655186646,3.047851702429106,0.08929693496102253,0.28,0,3,0.0
5.906887681999706,386,502.11,-93.6,2.0,-89.7,-0.15,1.5,2.99,0.18,-0.84,-0.12,-2.58,1.82,0.01,0.0,0.8674099376880575,3.3485220620446867,0.1154658175357971,0.28,0,3,0.0
5.915637817000061,387,502.12,-93.6,1.7,-89.5,-0.06,1.66,3.42,0.21,-0.79,-0.14,-2.56,2.22,-0.01,0.0,0.8293370846646133,3.802052077497098,0.15046789714805653,0.28,0,3,0.0
5.926813726000091,388,502.13,-93.6,1.4,-89.3,-0.16,1.93,3.87,0.21,-0.77,-0.13,-2.54,1.99,-0.01,0.0,0.8086408349817612,4.32751660886472,0.16774086389429044,0.28,0,3,0.0
5.9355641259999175,389,502.14,-93.7,1.0,-89.1,-1.24,2.18,4.05,0.14,-0.88,-0.03,-2.52,1.28,-0.11,0.0,0.8915716460273958,4.763664555780561,0.08311385179168274,0.28,0,3,0.0
5.946924794000097,390,502.15,-93.8,0.6,-88.8,-2.4,2.35,3.86,0.19,-0.96,0.0,-2.51,0.61,-0.25,0.0,0.9786214794290998,5.116844730886408,0.0038572619778208805,0.28,0,3,0.0
5.955509986999914,391,502.16,-94.2,0.3,-88.5,-4.58,2.77,3.35,0.13,-1.22,0.0,-2.51,0.08,-0.03,0.0,1.226906679417795,6.314412086647498,0.24709961272718572,0.28,0,3,0.0
5.966860116999669,392,502.17,-94.7,0.0,-88.2,-6.49,3.24,2.27,-0.02,-1.46,-0.02,-2.51,-0.16,0.0,0.0,1.4602739469017447,7.600697336429072,0.4708575426069128,0.28,1,4,0.5
5.975660484999935,393,502.18,-95.4,0.0,-87.9,-6.69,3.29,1.44,-0.17,-1.54,0.01,-2.51,-0.14,-0.18,0.0,1.5493869755487168,7.593009943362382,0.5487711598288072,0.28,0,4,0.5
5.986771764999958,394,502.19,-96.0,-0.1,-87.6,-4.82,2.6,0.7,-0.24,-1.55,0.03,-2.52,-0.48,0.31,0.62,1.5687574701017364,5.521086849525191,0.5567788212941902,0.28,0,4,0.5
5.995628545999807,395,502.2,-96.3,-0.1,-87.4,-1.34,1.7,0.37,-0.21,-1.37,-0.05,-2.53,-1.12,0.53,0.62,1.386903024728117,2.1960191255997747,0.3674258884021595,0.28,0,4,0.5
6.006936661000054,396,502.21,-96.2,-0.2,-87.2,1.53,1.09,0.56,-0.11,-1.14,-0.1,-2.54,-1.17,0.6,0.62,1.149652121295829,1.960255085441688,0.12757148527047413,0.28,0,4,0.5
6.015534714999831,397,502.22,-96.0,-0.3,-87.1,3.2,0.63,0.87,0.0,-0.97,-0.09,-2.55,-0.75,0.69,0.62,0.9741663102366043,3.3754703375974144,0.046956039272975536,0.28,0,4,0.5
6.026820266999948,398,502.23,-95.6,-0.3,-87.1,3.62,0.48,1.15,0.07,-0.85,-0.14,-2.55,-0.05,0.58,0.62,0.864291617453276,3.8284853401835037,0.1536941174151778,0.28,0,4,0.5
6.035512791999736,399,502.24,-95.3,-0.5,-87.0,2.77,0.89,1.4,0.12,-0.79,-0.19,-2.55,0.05,0.81,0.62,0.8213403679352428,3.228776858192588,0.19271245959454675,0.28,0,4,0.5
6.046944235999945,400,502.25,-95.1,-0.6,-86.8,1.16,1.67,1.59,0.14,-0.79,-0.22,-2.55,0.0,0.57,0.62,0.8319254774317228,2.581201270726481,0.17848480309610526,0.28,0,4,0.5
6.055412443000023,401,502.26,-95.1,-0.7,-86.6,-0.24,2.48,1.51,0.12,-0.87,-0.16,-2.55,0.0,0.69,0.62,0.8926925562588723,2.913434399467405,0.11536336978357675,0.28,0,4,0.5
6.06680280899991,402,502.27,-95.2,-0.8,-86.3,-0.74,2.99,1.24,0.08,-0.94,-0.1,-2.55,0.01,0.66,0.62,0.9486832980505138,3.320436718264632,0.05818517543209656,0.28,0,4,0.5
6.075432129000092,403,502.28,-95.2,-0.9,-86.0,-0.63,3.19,0.91,0.05,-0.99,-0.06,-2.55,0.0,0.48,0.62,0.9930760293149764,3.376551495238892,0.013516595284281174,0.28,0,4,0.5
6.086637716000041,404,502.29,-95.3,-0.9,-85.7,-0.4,3.36,0.57,0.0,-1.02,-0.08,-2.55,-0.02,0.61,0.62,1.023132444994293,3.4313991315496946,0.01620902398713464,0.28,0,4,0.5
6.095676937999997,405,502.3,-95.3,-0.9,-85.3,-0.43,3.41,0.2,-0.07,-1.03,-0.05,-2.55,-0.12,0.4,0.62,1.0335859906171327,3.4428186127067457,0.026129318217775088,0.28,0,4,0.5
6.10680752799999,406,502.31,-95.3,-0.9,-85.0,-0.48,3.33,-0.05,-0.14,-1.02,-0.05,-2.55,-0.42,0.64,0.62,1.0307764064044151,3.3647882548534906,0.022853339324956368,0.28,0,4,0.5
6.115635256999667,407,502.32,-95.4,-0.9,-84.7,-0.5,3.13,-0.21,-0.17,-1.02,-0.04,-2.56,-0.8,0.52,0.62,1.034842983258813,3.1766334380913386,0.026381517855767145,0.28,0,4,0.5
6.1269535060000635,408,502.33,-95.4,-0.8,-84.4,-0.42,2.77,-0.33,-0.18,-1.04,-0.03,-2.57,-1.15,0.58,0.62,1.0558882516630252,2.82102818135516,0.04647825053477983,0.28,0,4,0.5
6.135504419999961,409,502.34,-95.5,-0.8,-84.1,-0.23,2.53,-0.4,-0.16,-1.05,-0.06,-2.58,-1.33,0.46,0.62,1.0638138934982944,2.5717309346041626,0.053315814522648,0.28,0,4,0.5
6.146907934999945,410,502.35,-95.5,-0.7,-83.9,-0.02,2.04,-0.5,-0.14,-1.1,-0.03,-2.6,-1.38,0.62,0.62,1.1092790451459904,2.1004761364985796,0.0968053468469372,0.28,0,4,0.0
6.155512995999743,411,502.36,-95.5,-0.6,-83.7,0.24,1.73,-0.52,-0.12,-1.09,-0.07,-2.61,-1.47,0.7,0.62,1.0988175462741756,1.8223336686787082,0.08461697101561994,0.28,0,4,0.0
6.166877568000018,412,502.37,-95.4,-0.6,-83.6,0.48,1.57,-0.43,-0.11,-1.08,-0.09,-2.63,-1.11,0.15,0.0,1.0893117092916977,1.6971151993898352,0.07360891135247916,0.28,0,4,0.0
6.175487183999849,413,502.38,-95.4,-0.6,-83.4,0.66,1.38,-0.3,-0.11,-1.07,-0.07,-2.63,-0.3,0.14,0.0,1.0779146533933008,1.5588457268119895,0.06096761834500053,0.28,0,4,0.0
6.186725992999982,414,502.39,-95.3,-0.7,-83.3,0.96,1.27,-0.17,-0.11,-1.03,-0.06,-2.63,0.16,0.06,0.0,1.0375933692926145,1.6010621474508728,0.02023340755942793,0.28,0,4,0.0
6.1956539119996705,415,502.4,-95.1,-0.7,-83.2,1.1,1.03,-0.04,-0.09,-0.98,-0.04,-2.63,0.02,0.01,0.0,0.9849365461794988,1.5074813431681335,0.03177494724261409,0.28,0,4,0.0
6.2069412179998835,416,502.41,-95.0,-0.7,-83.1,0.85,0.87,0.16,-0.06,-0.94,-0.04,-2.63,-0.06,0.01,0.0,0.942761899951414,1.2267844146385298,0.07247060160128482,0.28,0,4,0.0
6.215541547999692,417,502.42,-94.9,-0.7,-83.0,0.44,0.73,0.31,-0.03,-0.95,-0.06,-2.63,0.02,-0.07,0.0,0.9523654760647301,0.9069729874698583,0.0616096849782094,0.28,0,4,0.0
6.226944782999908,418,502.43,-94.9,-0.8,-82.9,0.24,0.69,0.4,-0.02,-0.95,-0.08,-2.63,0.0,0.01,0.0,0.9535722311393091,0.8328865468957942,0.05919487130555767,0.28,0,4,0.0
6.235521313999925,419,502.44,-94.9,-0.8,-82.9,0.19,0.71,0.46,-0.02,-0.97,-0.1,-2.63,0.0,0.06,0.0,0.9753460924205315,0.8670640114778148,0.03667258982384869,0.28,0,4,0.0
6.246950410999943,420,502.45,-94.9,-0.9,-82.8,0.19,0.81,0.51,-0.03,-0.98,-0.12,-2.63,0.0,-0.02,0.0,0.9877752780870758,0.9758585963140357,0.023758536074158232,0.28,0,4,0.0
6.2555730559997755,421,502.46,-94.9,-0.9,-82.7,0.24,0.95,0.54,-0.05,-0.98,-0.12,-2.63,0.01,-0.08,0.0,0.9885848471426213,1.1187939935484101,0.02248998767824051,0.28,0,4,0.0
6.2668591699998615,422,502.47,-94.9,-1.0,-82.6,0.36,1.04,0.47,-0.08,-0.98,-0.11,-2.63,0.0,0.06,0.0,0.9893937537704591,1.196703806294607,0.021247459429394544,0.28,0,4,0.0
6.275616316999731,423,502.48,-94.9,-1.1,-82.5,0.46,1.05,0.34,-0.11,-0.96,-0.09,-2.63,-0.01,0.01,0.0,0.9704638066409277,1.1957006314291216,0.03937385842774743,0.28,0,4,0.0
6.2868504509997365,424,502.49,-94.8,-1.2,-82.4,0.39,0.98,0.14,-0.12,-0.94,-0.07,-2.63,0.0,0.01,0.0,0.9502105029939418,1.0640018796975876,0.05843461883323853,0.28,0,4,0.0
6.295655745999738,425,502.5,-94.8,-1.2,-82.3,0.25,0.85,-0.08,-0.14,-0.93,-0.06,-2.63,0.0,0.06,0.0,0.9423905772024677,0.8896066546513689,0.06492945373221848,0.28,0,4,0.0
6.306927352000002,426,502.51,-94.8,-1.2,-82.2,0.08,0.69,-0.29,-0.13,-0.92,-0.08,-2.63,0.0,0.01,0.0,0.9325770745627409,0.7527283706623524,0.07324809724450643,0.28,0,4,0.0
6.315458099999887,427,502.52,-94.8,-1.3,-82.1,-0.14,0.54,-0.5,-0.13,-0.93,-0.08,-2.63,-0.01,-0.03,0.0,0.942443632266673,0.7491328320131218,0.06211390874976275,0.28,0,4,0.0
6.326806830999885,428,502.53,-94.8,-1.3,-82.1,-0.26,0.43,-0.73,-0.11,-0.93,-0.08,-2.63,0.0,0.06,0.0,0.9398936110007345,0.8862279616441809,0.06337065141538734,0.28,0,4,0.0
6.3357704599998215,429,502.54,-94.9,-1.2,-82.1,-0.39,0.35,-0.96,-0.1,-0.93,-0.09,-2.63,0.0,-0.07,0.0,0.9396807968666807,1.0937092849564731,0.06231179623845229,0.28,0,4,0.0
6.3468383969998285,430,502.55,-94.9,-1.2,-82.0,-0.61,0.28,-1.19,-0.09,-0.94,-0.1,-2.63,0.0,0.02,0.0,0.9495788540189803,1.366235704408284,0.051365464304429564,0.28,0,4,0.0
6.355548079000073,431,502.56,-95.0,-1.1,-82.0,-0.83,0.19,-1.43,-0.08,-0.94,-0.09,-2.63,0.0,0.02,0.0,0.9476813810558905,1.6643016553497745,0.052197678522169055,0.28,0,4,0.0
6.366890956999669,432,502.57,-95.1,-0.9,-82.0,-1.1,0.09,-1.64,-0.07,-0.94,-0.09,-2.63,0.0,0.07,0.0,0.9468896451012652,1.9767903277788466,0.05192962618725849,0.28,0,4,0.0
6.375604288999966,433,502.58,-95.2,-0.8,-82.0,-1.37,-0.02,-1.85,-0.09,-0.95,-0.08,-2.63,0.0,0.06,0.0,0.957601169589929,2.3021294490101987,0.040393739664622785,0.28,0,4,0.0
6.386931459999687,434,502.59,-95.4,-0.7,-82.1,-1.66,-0.12,-1.99,-0.12,-0.96,-0.08,-2.63,0.0,0.09,0.0,0.9707728879609278,2.5942436277265863,0.026677580867751627,0.28,0,4,0.0
6.395657605999986,435,502.6,-95.6,-0.5,-82.1,-1.93,-0.25,-2.09,-0.13,-0.98,-0.07,-2.63,0.0,-0.02,0.0,0.9910600385445879,2.8557836052474284,0.00626262167840963,0.28,0,4,0.0
6.406787792999694,436,502.61,-95.7,-0.3,-82.2,-1.77,-0.47,-2.33,-0.15,-1.01,-0.07,-2.63,0.0,0.16,0.0,1.023474474522936,2.9635620459170413,0.0256287780139397,0.28,0,4,0.0
6.415694987999814,437,502.62,-95.9,-0.1,-82.2,-1.64,-0.63,-2.59,-0.16,-1.02,0.02,-2.63,0.0,0.02,0.0,1.032666451474047,3.129632566292727,0.03412433986574959,0.28,0,4,0.0
6.426721689999795,438,502.63,-96.1,0.1,-82.4,-3.05,-1.19,-2.35,-0.09,-1.06,0.08,-2.63,0.0,-0.07,0.0,1.0668176976409793,4.030024813819389,0.06691007431202833,0.28,0,4,0.0
6.43549893799991,439,502.64,-96.5,0.3,-82.5,-4.31,-1.65,-1.91,0.03,-1.25,0.03,-2.63,0.03,-0.02,0.0,1.2507197927593534,4.994667156077569,0.24579592604179434,0.28,0,4,0.0
6.4469640600000275,440,502.65,-97.0,0.4,-82.7,-4.58,-1.82,-1.29,0.2,-1.37,-0.14,-2.63,0.06,0.03,0.0,1.3915818337417316,5.094398885050129,0.3789248076836891,0.28,1,5,0.5
6.45563508999976,441,502.66,-97.4,0.5,-82.9,-2.74,-1.16,-0.57,0.28,-1.41,-0.21,-2.63,0.13,0.0,0.0,1.4527904184706062,3.029537918561179,0.4313307245643123,0.28,0,5,0.5
6.4668166169999495,442,502.67,-97.4,0.5,-83.0,1.21,-0.61,-0.01,0.28,-1.39,-0.18,-2.63,-0.03,0.57,0.62,1.4293005282305047,1.3551014722152728,0.39968401763772654,0.28,0,5,0.5
6.475558986999658,443,502.68,-97.0,0.5,-83.0,5.8,0.02,0.02,0.27,-1.24,-0.22,-2.63,-0.11,0.63,0.62,1.2879829191413992,5.800068965107225,0.2531990803776487,0.28,0,5,0.5
6.486905760999889,444,502.69,-96.4,0.5,-83.0,7.22,0.81,-0.14,0.2,-1.0,-0.12,-2.63,0.0,0.75,0.62,1.0268398122394748,7.266642966322206,0.007785145993790099,0.28,0,5,0.5
6.495646932999989,445,502.7,-95.7,0.6,-82.9,6.73,0.68,-0.79,0.05,-0.85,0.04,-2.63,0.0,0.69,0.62,0.8524083528450433,6.810242286438861,0.17857227328045722,0.28,0,5,0.5
6.506786594999994,446,502.71,-95.1,0.7,-82.9,4.48,-0.07,-1.38,-0.09,-0.74,0.12,-2.63,-0.01,0.63,0.62,0.7550496672405067,4.68825127312946,0.27041233970729395,0.28,0,5,0.5
6.515646937999918,447,502.72,-94.8,0.8,-82.9,1.53,-1.07,-1.72,-0.18,-0.69,0.06,-2.63,0.0,0.66,0.62,0.7156116265125938,2.538542889139358,0.30365337282650273,0.28,0,5,0.5
6.526918168000066,448,502.73,-94.8,1.0,-83.1,-1.15,-1.88,-1.93,-0.23,-0.73,-0.02,-2.63,0.0,0.54,0.62,0.7656369897020388,2.929470941996182,0.24855544944431673,0.28,0,5,0.5
6.535499079999681,449,502.74,-95.0,1.2,-83.3,-2.75,-2.41,-1.85,-0.22,-0.84,-0.1,-2.63,0.01,0.69,0.62,0.8740709353364863,4.097938506127196,0.13731907373367191,0.28,0,5,0.5
6.546826034999867,450,502.75,-95.3,1.3,-83.6,-2.56,-2.77,-1.49,-0.16,-0.95,-0.1,-2.63,0.0,0.54,0.62,0.9685556256612213,4.0554407898525655,0.04197769574075805,0.28,0,5,0.5
6.5556256079999,451,502.76,-95.5,1.4,-83.9,-0.86,-3.19,-1.05,-0.06,-1.06,-0.08,-2.63,0.0,0.66,0.62,1.0647065323364933,3.466727563567694,0.05308974671582356,0.28,0,5,0.5
6.566832894000072,452,502.77,-95.5,1.4,-84.3,1.51,-3.56,-0.6,0.05,-1.11,-0.13,-2.63,0.0,0.48,0.62,1.1187046080176841,3.913272287996326,0.10494606594907419,0.28,0,5,0.5
6.575530917999913,453,502.78,-95.2,1.4,-84.6,3.1,-3.57,-0.17,0.16,-1.09,-0.14,-2.63,0.0,0.67,0.62,1.1105404089901458,4.731152079567935,0.09484622958310518,0.28,0,5,0.5
6.586954135999804,454,502.79,-94.9,1.4,-85.0,3.47,-3.62,0.0,0.25,-1.05,-0.13,-2.63,0.0,0.6,0.62,1.0871522432483869,5.014508949039776,0.07002890256451932,0.28,0,5,0.5
6.595598177999818,455,502.8,-94.6,1.4,-85.4,2.78,-3.45,-0.11,0.3,-1.03,-0.16,-2.63,-0.03,0.7,0.62,1.084665847162157,4.432042418569569,0.0661916563487237,0.28,0,5,0.5
6.606961685999977,456,502.81,-94.4,1.4,-85.7,1.62,-2.94,-0.41,0.32,-1.03,-0.19,-2.63,0.0,0.66,0.62,1.095171219490359,3.381730326327042,0.0751630881033869,0.28,0,5,0.5
6.615661395999723,457,502.82,-94.3,1.4,-85.9,0.65,-2.35,-0.77,0.33,-1.02,-0.18,-2.63,0.0,0.46,0.62,1.0870602559196063,2.55693175505331,0.06571108204198173,0.28,0,5,0.5
6.626993280000079,458,502.83,-94.3,1.5,-86.2,-0.04,-1.86,-1.05,0.31,-1.04,-0.17,-2.63,0.0,0.41,0.62,1.098453458276681,2.136281816615027,0.07556219871107528,0.28,0,5,0.0
6.635515255999962,459,502.84,-94.3,1.6,-86.3,-0.31,-1.49,-1.28,0.26,-1.03,-0.16,-2.63,-0.05,0.56,0.62,1.074290463515338,1.9886176103011861,0.05037121987073778,0.28,0,5,0.0
6.647007169000062,460,502.85,-94.3,1.8,-86.5,-0.42,-1.12,-1.44,0.2,-1.02,-0.15,-2.63,0.14,-0.08,0.0,1.0501904589168576,1.8720042734993956,0.025745790966812176,0.28,0,5,0.0
6.655638527000065,461,502.86,-94.4,1.9,-86.6,-0.46,-0.92,-1.59,0.15,-0.99,-0.12,-2.63,0.11,-0.08,0.0,1.0084641788382966,1.8937000818503442,0.015660879329513877,0.28,0,5,0.0
6.6668198909997045,462,502.87,-94.5,2.1,-86.7,-0.51,-0.8,-1.65,0.11,-0.97,-0.1,-2.63,-0.05,-0.03,0.0,0.9813256340277675,1.9033129012330052,0.041943435657242234,0.28,0,5,0.0
6.675484904999848,463,502.88,-94.5,2.3,-86.8,-0.61,-0.92,-1.72,0.09,-0.95,-0.07,-2.63,0.04,0.0,0.0,0.9568176419778223,2.0437465596301316,0.06512239915304363,0.28,0,5,0.0
6.686888549999821,464,502.89,-94.6,2.5,-86.9,-0.71,-1.09,-1.74,0.08,-0.93,-0.07,-2.63,-0.01,0.09,0.0,0.936055553906925,2.1725100690215453,0.0841667974794621,0.28,0,5,0.0
6.6954353030000675,465,502.9,-94.7,2.7,-87.0,-0.73,-1.3,-1.78,0.09,-0.93,-0.08,-2.63,0.0,0.02,0.0,0.9377632963600143,2.321917311189182,0.08080987392584527,0.28,0,5,0.0
6.706865578999896,466,502.91,-94.8,2.9,-87.2,-0.68,-1.52,-1.7,0.11,-0.92,-0.09,-2.63,0.0,0.02,0.0,0.9309135298189624,2.379663841806233,0.08590644765755928,0.28,0,5,0.0
6.715637078999862,467,502.92,-94.8,3.1,-87.4,-0.5,-1.71,-1.6,0.14,-0.92,-0.1,-2.63,0.0,0.02,0.0,0.9359487165438072,2.39459808736247,0.0792538357140602,0.28,0,5,0.0
6.726974229999996,468,502.93,-94.9,3.2,-87.6,-0.29,-1.83,-1.49,0.17,-0.92,-0.12,-2.63,0.0,0.09,0.0,0.9432391001225512,2.3776248652804757,0.07052418309260988,0.28,0,5,0.0
6.735610622999957,469,502.94,-94.9,3.4,-87.8,0.0,-1.9,-1.3,0.19,-0.92,-0.14,-2.63,0.0,0.09,0.0,0.9497894503520241,2.3021728866442674,0.06269435620587416,0.28,0,5,0.0
6.746944649999932,470,502.95,-94.9,3.5,-88.0,0.3,-1.91,-1.11,0.21,-0.9,-0.15,-2.63,0.0,-0.06,0.0,0.9362691920596341,2.229394536639937,0.07469032220829896,0.28,0,5,0.0
6.755518338999991,471,502.96,-94.9,3.5,-88.2,0.57,-1.83,-0.9,0.23,-0.89,-0.16,-2.63,0.0,0.02,0.0,0.93305948363435,2.1174985242025555,0.07634203002091144,0.28,0,5,0.0
6.766856722999819,472,502.97,-94.8,3.6,-88.3,0.67,-1.64,-0.72,0.25,-0.89,-0.18,-2.63,0.0,0.02,0.0,0.9418067742376883,1.9123022773609823,0.06624284462922159,0.28,0,5,0.0
6.775538571999732,473,502.98,-94.8,3.7,-88.5,0.63,-1.36,-0.58,0.26,-0.88,-0.19,-2.63,0.0,0.02,0.0,0.9370699013414101,1.6071403174583108,0.06956012317498983,0.28,0,5,0.0
6.786828145000072,474,502.99,-94.7,3.7,-88.6,0.48,-1.02,-0.47,0.28,-0.87,-0.19,-2.63,0.0,-0.02,0.0,0.9334880824091971,1.2213517101965345,0.07167910326505877,0.28,0,5,0.0
6.7953448419998495,475,503.0,-94.7,3.7,-88.7,0.25,-0.63,-0.3,0.28,-0.86,-0.2,-2.63,0.0,-0.19,0.0,0.9262828941527529,0.7412152184082569,0.07730660569107284,0.28,0,5,0.0
6.806927582999833,476,503.01,-94.7,3.7,-88.7,0.06,-0.26,-0.11,0.29,-0.86,-0.2,-2.63,0.0,0.09,0.0,0.9293546147730692,0.28861739379323625,0.07275018736934136,0.28,0,5,0.0
6.815615277999768,477,503.02,-94.7,3.7,-88.7,-0.04,0.12,0.09,0.3,-0.88,-0.2,-2.63,0.0,0.09,0.0,0.9509994742374992,0.15524174696260024,0.0500832213468132,0.28,0,5,0.0
6.827077653999822,478,503.03,-94.7,3.7,-88.7,-0.12,0.55,0.29,0.29,-0.9,-0.21,-2.63,0.0,0.02,0.0,0.968607247546703,0.6332456079595026,0.03182593907685727,0.28,0,5,0.0
6.835589033999895,479,503.04,-94.7,3.7,-88.6,-0.16,0.9,0.46,0.27,-0.9,-0.19,-2.63,0.0,0.09,0.0,0.9586448768965492,1.0233279044372825,0.04095254353247091,0.28,0,5,0.0
6.84710011199968,480,503.05,-94.7,3.6,-88.5,-0.17,1.13,0.67,0.23,-0.9,-0.16,-2.63,0.0,0.0,0.0,0.9426027795418386,1.324650897406558,0.05585474806943791,0.28,0,5,0.0
6.855470374000106,481,503.06,-94.7,3.6,-88.4,-0.13,1.25,0.88,0.21,-0.9,-0.14,-2.63,0.0,-0.2,0.0,0.9347192091746056,1.5342098943756033,0.06246355206793741,0.28,0,5,0.0
6.86687928099991,482,503.07,-94.7,3.5,-88.3,-0.12,1.31,1.1,0.18,-0.89,-0.14,-2.63,-0.02,0.02,0.0,0.9187491496594704,1.7147886167105262,0.07686493935141114,0.28,0,5,0.0
6.87547976399992,483,503.08,-94.7,3.4,-88.1,-0.15,1.3,1.28,0.16,-0.9,-0.13,-2.63,0.02,-0.04,0.0,0.9233092656309694,1.8305463665255792,0.07085872691231399,0.28,0,5,0.0
6.886870714999986,484,503.09,-94.7,3.3,-88.0,-0.16,1.28,1.43,0.15,-0.91,-0.14,-2.63,-0.03,0.02,0.0,0.9328451104015071,1.925850461484484,0.060096424498940704,0.28,0,5,0.0
6.8954676250000375,485,503.1,-94.7,3.1,-87.8,-0.19,1.23,1.56,0.16,-0.93,-0.14,-2.63,0.0,-0.03,0.0,0.9539916142189092,1.9956452590578317,0.03817092226790775,0.28,0,5,0.0
6.9068741259998205,486,503.11,-94.8,3.0,-87.7,-0.08,1.21,1.7,0.17,-0.93,-0.14,-2.63,0.03,0.14,0.0,0.9557196241576292,2.0881810266353824,0.035714054082603974,0.28,0,5,0.0
6.915489606999927,487,503.12,-94.7,2.8,-87.6,0.08,1.2,1.89,0.19,-0.92,-0.15,-2.63,0.06,0.11,0.0,0.9513148795220224,2.240200883849482,0.03931642274384661,0.28,0,5,0.0
6.926953333999791,488,503.13,-94.7,2.6,-87.4,0.26,1.26,2.15,0.21,-0.91,-0.17,-2.62,0.16,0.17,0.0,0.9492628719169417,2.5055338752449545,0.040541061741948825,0.28,0,5,0.0
6.9355098799996995,489,503.14,-94.7,2.4,-87.3,0.46,1.38,2.42,0.23,-0.91,-0.17,-2.62,0.28,0.0,0.0,0.9538867857350788,2.8235438725119892,0.03519880496533545,0.28,0,5,0.0
6.946952763999889,490,503.15,-94.6,2.1,-87.1,0.58,1.54,2.72,0.26,-0.9,-0.18,-2.62,0.52,0.14,0.0,0.9539392014169457,3.179056463795508,0.0344434614977992,0.28,0,5,0.0
6.955351397999948,491,503.16,-94.5,1.9,-86.9,0.62,1.76,3.06,0.27,-0.87,-0.2,-2.61,0.79,-0.08,0.0,0.9326306878931231,3.5840758920536264,0.05463693552118931,0.28,0,5,0.0
6.96704355699967,492,503.17,-94.5,1.5,-86.7,0.69,2.09,3.44,0.28,-0.84,-0.23,-2.6,1.06,0.04,0.0,0.9148223871331528,4.083846226292072,0.07099633155553642,0.28,0,5,0.0
6.975602727000023,493,503.18,-94.4,1.2,-86.4,0.79,2.52,3.82,0.3,-0.81,-0.26,-2.59,1.34,-0.01,0.0,0.9020532135079394,4.644017657158508,0.08209019507713478,0.28,0,5,0.0
6.986825578999742,494,503.19,-94.3,0.8,-86.1,0.73,3.13,4.12,0.27,-0.8,-0.27,-2.57,1.25,-0.22,0.0,0.8864536084872124,5.225342094064272,0.09573600409590455,0.28,0,5,0.0
6.99547845699999,495,503.2,-94.3,0.4,-85.7,-0.28,3.72,4.17,0.22,-0.89,-0.16,-2.56,1.01,-0.04,0.0,0.9306449376641985,5.5951496852184395,0.05051378142054008,0.28,0,5,0.0
7.006947500000024,496,503.21,-94.4,0.1,-85.3,-1.82,4.35,3.84,0.2,-1.04,-0.1,-2.56,0.47,-0.05,0.0,1.063766891757776,6.0811594289247175,0.08095600921957669,0.28,0,5,0.0
7.01534432499966,497,503.22,-94.7,-0.1,-84.8,-4.12,4.96,3.1,0.07,-1.27,-0.04,-2.56,-0.2,-0.02,0.0,1.272556482047064,7.154439181375435,0.28395068751868735,0.28,1,6,0.5
7.027115471999878,498,503.23,-95.2,-0.3,-84.3,-5.95,5.35,2.15,-0.11,-1.43,0.01,-2.56,-0.32,0.03,0.0,1.4342593907658403,8.285378687784887,0.43674052431271426,0.28,0,6,0.5
7.035516479999842,499,503.24,-95.8,-0.5,-83.7,-5.84,4.96,1.42,-0.24,-1.45,0.05,-2.57,-0.86,0.52,0.62,1.4705781176122539,7.792534889238546,0.46359806613594534,0.28,0,6,0.5
7.046960033999767,500,503.25,-96.3,-0.5,-83.3,-3.28,4.01,1.03,-0.26,-1.42,0.09,-2.58,-1.64,0.74,0.62,1.4464093473149295,5.281988262008919,0.43064070992184855,0.28,0,6,0.5
7.055464778999976,501,503.26,-96.4,-0.6,-82.9,-0.14,3.03,0.83,-0.19,-1.28,0.03,-2.6,-1.96,0.6,0.62,1.2943724348115577,3.1447416428062893,0.27303172147010724,0.28,0,6,0.5
7.067129627999748,502,503.27,-96.3,-0.6,-82.7,1.87,2.36,0.78,-0.1,-1.1,-0.01,-2.62,-1.78,0.74,0.62,1.104581368664165,3.1104501281968817,0.08157584221626024,0.28,0,6,0.5
7.075595122999857,503,503.28,-96.0,-0.7,-82.4,2.73,2.04,0.81,0.0,-0.91,-0.06,-2.63,-1.12,0.79,0.62,0.9119758768739445,3.5029416209808577,0.10880905658248108,0.28,0,6,0.5
7.087039573999846,504,503.29,-95.8,-0.7,-82.2,2.6,2.13,0.94,0.1,-0.78,-0.11,-2.64,-0.3,0.75,0.62,0.7940403012442127,3.490057306119772,0.22220973956796863,0.28,0,6,0.5
7.095555039999908,505,503.3,-95.6,-0.8,-82.0,1.57,2.59,1.04,0.16,-0.76,-0.16,-2.64,0.16,0.5,0.62,0.7929691040639603,3.202280437438295,0.2188153180132567,0.28,0,6,0.5
7.106853884999964,506,503.31,-95.5,-0.9,-81.7,0.33,3.2,0.98,0.16,-0.77,-0.17,-2.64,0.0,0.61,0.62,0.8046117075956576,3.362930269868824,0.20302926019192813,0.28,0,6,0.5
7.115509390999705,507,503.32,-95.5,-0.9,-81.3,-0.71,3.75,0.89,0.14,-0.82,-0.15,-2.64,0.01,0.68,0.62,0.8452810183601663,3.919017734075721,0.15911275043887108,0.28,0,6,0.5
7.126961321999715,508,503.33,-95.6,-1.0,-80.9,-1.14,4.07,0.67,0.1,-0.91,-0.12,-2.64,0.0,0.7,0.62,0.9233092656309694,4.279415847986732,0.0794628131047066,0.28,0,6,0.5
7.135825090999788,509,503.34,-95.8,-0.9,-80.5,-1.3,4.19,0.44,0.03,-0.97,-0.1,-2.64,0.0,0.7,0.62,0.975602378020882,4.409047516187596,0.026626306700498148,0.28,0,6,0.5
7.14682565899966,510,503.35,-95.9,-0.9,-80.1,-1.37,4.32,0.19,-0.03,-1.04,-0.09,-2.64,-0.01,0.62,0.62,1.044317959244214,4.536011463830311,0.04124748903237707,0.28,0,6,0.5
7.159677445999932,511,503.36,-96.0,-0.9,-79.6,-1.31,4.21,-0.03,-0.11,-1.07,-0.08,-2.64,0.0,0.59,0.62,1.0786102168995062,4.409206277778349,0.07402895175391588,0.28,0,6,0.5
7.167668622999827,512,503.37,-96.2,-0.9,-79.2,-1.28,4.0,-0.19,-0.18,-1.11,-0.04,-2.64,-0.05,0.7,0.62,1.1252110913068714,4.2041051366491775,0.11821722963805548,0.28,0,6,0.5
7.175560860999667,513,503.38,-96.3,-0.8,-78.9,-1.01,3.57,-0.34,-0.22,-1.12,-0.04,-2.64,-0.06,0.7,0.62,1.142103322821539,3.725667725388296,0.1324072719296685,0.28,0,6,0.5
7.1869609199998195,514,503.39,-96.4,-0.7,-78.5,-0.49,3.23,-0.42,-0.22,-1.13,-0.08,-2.64,-0.08,0.53,0.62,1.153993067570165,3.293842740629856,0.14141107634472871,0.28,0,6,0.5
7.195514413999717,515,503.4,-96.4,-0.6,-78.2,0.15,2.54,-0.61,-0.18,-1.14,-0.05,-2.64,-0.12,0.5,0.62,1.1552056094046634,2.6165244122690696,0.13977114581564254,0.28,0,6,0.0
7.206864054000107,516,503.41,-96.3,-0.6,-78.0,0.66,2.22,-0.67,-0.13,-1.08,-0.09,-2.64,-0.14,0.51,0.62,1.091512711790385,2.4109956449566643,0.07455668323733677,0.28,0,6,0.0
7.215591642999698,517,503.42,-96.2,-0.5,-77.8,0.96,1.82,-0.72,-0.09,-1.04,-0.07,-2.64,0.19,0.13,0.0,1.0462313319720453,2.18,0.028689797350617274,0.28,0,6,0.0
7.226960663999762,518,503.43,-96.1,-0.5,-77.7,0.88,1.66,-0.64,-0.07,-1.01,-0.09,-2.64,0.19,-0.04,0.0,1.0164152694642086,1.9848425630260955,0.001103739854075192,0.28,0,6,0.0
7.235556870999972,519,503.44,-96.0,-0.4,-77.5,0.61,1.54,-0.54,-0.05,-1.01,-0.07,-2.64,0.06,-0.01,0.0,1.0136567466356645,1.7422112386275093,0.0037850174289668637,0.28,0,6,0.0
7.246941506999974,520,503.45,-96.0,-0.4,-77.4,0.36,1.38,-0.43,-0.04,-1.0,-0.06,-2.64,-0.01,0.04,0.0,1.0025966287595427,1.4895972610071488,0.014548232598986965,0.28,0,6,0.0
7.255498406999777,521,503.46,-95.9,-0.4,-77.2,0.35,1.33,-0.24,-0.04,-1.0,-0.07,-2.64,0.01,0.16,0.0,1.0032447358446492,1.3960659010233007,0.013622123003602882,0.28,0,6,0.0
7.26684130600006,522,503.47,-95.9,-0.4,-77.1,0.37,1.14,-0.03,-0.03,-1.01,-0.08,-2.64,-0.01,0.02,0.0,1.0136074190730846,1.1989161772200756,0.0031942509796640817,0.28,0,6,0.0
7.275681671999791,523,503.48,-95.8,-0.4,-77.0,0.47,1.09,0.16,-0.04,-1.01,-0.08,-2.64,0.02,0.02,0.0,1.0139526616169021,1.197747886660628,0.0027920282671296537,0.28,0,6,0.0
7.286905001999912,524,503.49,-95.8,-0.4,-76.9,0.62,0.9,0.33,-0.04,-0.99,-0.08,-2.64,0.0,0.03,0.0,0.9940321926376429,1.1416216536138408,0.022258247301461087,0.28,0,6,0.0
7.29555690899997,525,503.5,-95.7,-0.5,-76.8,0.62,0.75,0.52,-0.05,-0.97,-0.08,-2.64,0.0,-0.03,0.0,0.9745768312452333,1.103313192162588,0.040879336519993204,0.28,0,6,0.0
7.306829559000107,526,503.51,-95.6,-0.6,-76.8,0.54,0.61,0.64,-0.06,-0.96,-0.08,-2.64,0.01,-0.06,0.0,0.9651942809610923,1.0360019305001318,0.049256649068051495,0.28,0,6,0.0
7.3156947249999575,527,503.52,-95.6,-0.7,-76.7,0.38,0.51,0.69,-0.07,-0.95,-0.08,-2.64,0.0,0.02,0.0,0.955928867646542,0.938402898546248,0.05735162113494974,0.28,0,6,0.0
7.326822093999908,528,503.53,-95.5,-0.8,-76.6,0.27,0.5,0.68,-0.08,-0.95,-0.11,-2.64,0.0,0.05,0.0,0.9596874491208062,0.886171540955813,0.052521178867471874,0.28,0,6,0.0
7.335514066000087,529,503.54,-95.5,-0.9,-76.6,0.15,0.52,0.62,-0.09,-0.95,-0.11,-2.64,0.0,0.02,0.0,0.9605727458136629,0.8229823813423954,0.05060316453112279,0.28,0,6,0.0
7.346975674000078,530,503.55,-95.5,-1.0,-76.5,0.09,0.58,0.55,-0.09,-0.95,-0.11,-2.64,0.0,0.02,0.0,0.9605727458136629,0.8043631020876082,0.04959110124050026,0.28,0,6,0.0
7.355610009999964,531,503.56,-95.5,-1.1,-76.4,0.03,0.58,0.44,-0.1,-0.95,-0.1,-2.64,0.0,0.03,0.0,0.9604686356149273,0.7286288492778747,0.04870130721045107,0.28,0,6,0.0
7.3667586169999595,532,503.57,-95.5,-1.1,-76.4,-0.05,0.44,0.26,-0.11,-0.95,-0.09,-2.64,0.0,-0.05,0.0,0.9605727458136629,0.5135172830587107,0.047625253071481244,0.28,0,6,0.0
7.3749821970000085,533,503.58,-95.6,-1.2,-76.4,-0.14,0.34,0.05,-0.11,-0.94,-0.09,-2.64,0.0,-0.01,0.0,0.9506839643120104,0.37107950630558945,0.05636375388167103,0.28,0,6,0.0
7.387274662999971,534,503.59,-95.6,-1.3,-76.3,-0.28,0.18,-0.18,-0.1,-0.95,-0.09,-2.64,0.03,0.14,0.0,0.9594790253048786,0.37841775856849,0.04661731903102684,0.28,0,6,0.0
7.395521709999684,535,503.6,-95.6,-1.3,-76.3,-0.36,0.03,-0.43,-0.1,-0.95,-0.09,-2.64,0.02,0.04,0.0,0.9594790253048786,0.5616048432839589,0.045684972650406275,0.28,0,6,0.0
7.4069275309998375,536,503.61,-95.7,-1.3,-76.3,-0.39,-0.13,-0.69,-0.09,-0.95,-0.09,-2.64,0.01,-0.05,0.0,0.9584883932526257,0.8031811750782011,0.045742092608605955,0.28,0,6,0.0
7.41562951800006,537,503.62,-95.7,-1.2,-76.4,-0.48,-0.28,-0.93,-0.09,-0.95,-0.09,-2.64,0.02,0.1,0.0,0.9584883932526257,1.0833743581975717,0.0448272507564339,0.28,0,6,0.0
7.426852010999937,538,503.63,-95.7,-1.2,-76.4,-0.64,-0.45,-1.17,-0.09,-0.94,-0.09,-2.64,0.0,0.12,0.0,0.9485778829384544,1.4074800176201436,0.05364300584919324,0.28,0,6,0.0
7.435518357000092,539,503.64,-95.8,-1.1,-76.5,-0.9,-0.62,-1.39,-0.1,-0.93,-0.08,-2.64,0.03,0.04,0.0,0.9387757985802574,1.7681911661356076,0.06217618840324235,0.28,0,6,0.0
7.4468053919999875,540,503.65,-95.9,-1.0,-76.6,-1.22,-0.84,-1.57,-0.12,-0.93,-0.08,-2.64,0.06,-0.04,0.0,0.9411163583744574,2.1584485168750263,0.058638916036861555,0.28,0,6,0.0
7.459503793999829,541,503.66,-96.1,-0.9,-76.7,-1.61,-1.0,-1.64,-0.14,-0.93,-0.08,-2.63,0.1,0.04,0.0,0.9438749917229505,2.5063319812028095,0.054762677034601026,0.28,0,6,0.0
7.46755926700007,542,503.67,-96.2,-0.7,-76.8,-1.76,-1.32,-1.72,-0.15,-0.96,-0.07,-2.63,0.16,0.05,0.0,0.9741663102366043,2.7925615481131296,0.023981931350528285,0.28,0,6,0.0
7.4757150569998885,543,503.68,-96.4,-0.6,-77.0,-1.54,-1.56,-1.91,-0.18,-0.99,-0.05,-2.63,0.32,-0.1,0.0,1.0074720839804943,2.9074559325981193,0.009137365545494491,0.28,0,6,0.0
7.4876468899997235,544,503.69,-96.5,-0.4,-77.2,-1.66,-1.88,-1.95,-0.21,-1.0,0.08,-2.63,0.35,0.0,0.0,1.0249390225764652,3.1768695283250143,0.026072218058636132,0.28,0,6,0.0
7.49550470999975,545,503.7,-96.8,-0.3,-77.4,-3.88,-2.6,-1.25,-0.08,-1.08,0.09,-2.62,0.37,0.01,0.0,1.0866922287382017,4.834966390782877,0.08606891573596509,0.28,0,6,0.0
7.506743155000095,546,503.71,-97.3,-0.2,-77.7,-5.58,-2.75,-0.41,0.13,-1.4,-0.14,-2.62,0.44,-0.05,0.0,1.4129755836531641,6.234340382109402,0.4041052252379089,0.28,1,7,0.5
7.5155904599996575,547,503.72,-97.8,-0.2,-78.0,-4.41,-2.31,0.11,0.24,-1.54,-0.24,-2.61,0.65,0.21,0.0,1.5769590990257165,4.979588336398903,0.5567269657982521,0.28,0,7,0.5
7.526948667999932,548,503.73,-98.1,-0.3,-78.1,-0.29,-1.8,0.57,0.28,-1.53,-0.17,-2.61,0.45,0.54,0.62,1.5646724896923316,1.910235587565052,0.5335515493355698,0.28,0,7,0.5
7.535515502999715,549,503.74,-97.8,-0.3,-78.3,5.67,-1.56,0.51,0.28,-1.46,-0.19,-2.61,-0.01,0.37,0.62,1.4986994361779147,5.902762065338565,0.4582269259047298,0.28,0,7,0.5
7.546953135999956,550,503.75,-97.0,-0.4,-78.4,8.02,-1.1,0.36,0.22,-1.05,-0.1,-2.61,0.0,0.62,0.62,1.0774506949276148,8.103085831953157,0.03623862096134123,0.28,0,7,0.5
7.55550214799996,551,503.76,-96.2,-0.4,-78.5,7.6,-1.14,-0.02,0.06,-0.87,0.09,-2.61,0.0,0.62,0.62,0.8766983517721475,7.68505042273634,0.16122344775024355,0.28,0,7,0.5
7.5669294259996605,552,503.77,-95.5,-0.4,-78.7,6.27,-1.86,-0.76,-0.09,-0.75,0.14,-2.61,0.0,0.52,0.62,0.7682447526667526,6.584079282633221,0.26428350591852556,0.28,0,7,0.5
7.575588991999666,553,503.78,-95.0,-0.3,-78.9,3.59,-2.59,-1.23,-0.21,-0.65,0.07,-2.61,-0.02,0.53,0.62,0.6866585760041157,4.594464060148909,0.3389522889295391,0.28,0,7,0.5
7.586894719999691,554,503.79,-94.9,-0.2,-79.2,0.7,-3.19,-1.34,-0.27,-0.63,-0.02,-2.61,0.02,0.42,0.62,0.6857113095173508,3.5301133126289304,0.333101564307978,0.28,0,7,0.5
7.595486350000101,555,503.8,-94.9,-0.1,-79.6,-1.04,-3.69,-1.3,-0.26,-0.72,-0.05,-2.61,-0.03,0.57,0.62,0.7671375365604266,4.048172427157716,0.2466418305196042,0.28,0,7,0.5
7.606802963000064,556,503.81,-95.0,0.0,-80.0,-1.2,-4.12,-1.03,-0.21,-0.84,-0.04,-2.61,0.02,0.68,0.62,0.8667756341753038,4.41308282269889,0.14406365824663248,0.28,0,7,0.5
7.615535730999909,557,503.82,-95.1,0.0,-80.4,-0.12,-4.62,-0.6,-0.11,-0.96,-0.06,-2.61,0.0,0.58,0.62,0.9681425514871248,4.660343334991532,0.04184280611611524,0.28,0,7,0.5
7.6269328139997015,558,503.83,-95.0,0.0,-80.9,1.31,-4.96,-0.28,0.01,-1.08,-0.09,-2.61,-0.01,0.62,0.62,1.083789647487002,5.137713499213439,0.07232820408608664,0.28,0,7,0.5
7.635785781999857,559,503.84,-94.8,0.0,-81.4,2.29,-5.04,-0.12,0.12,-1.16,-0.13,-2.61,-0.01,0.52,0.62,1.1734138229968145,5.537156309876036,0.1587133320039813,0.28,0,7,0.5
7.64681570599987,560,503.85,-94.6,0.0,-81.9,2.48,-4.96,-0.25,0.21,-1.22,-0.12,-2.61,-0.07,0.57,0.62,1.2437443467208202,5.551080975810027,0.22446297861342734,0.28,0,7,0.5
7.655445842000063,561,503.86,-94.3,0.0,-82.4,2.09,-4.91,-0.6,0.27,-1.22,-0.11,-2.61,-0.37,0.54,0.62,1.2543524225671188,5.3699348226957095,0.2303696333705314,0.28,0,7,0.5
7.666854480999973,562,503.87,-94.2,0.0,-82.9,1.87,-4.69,-1.03,0.33,-1.17,-0.13,-2.62,-0.79,0.33,0.62,1.2225792407856433,5.153047641929968,0.1946245225572747,0.28,0,7,0.5
7.675562506000006,563,503.88,-94.0,0.0,-83.4,1.88,-4.34,-1.3,0.35,-1.12,-0.16,-2.63,-1.15,0.41,0.62,1.1842719282327012,4.905099387372289,0.153190865804246,0.28,0,7,0.5
7.686871538000105,564,503.89,-93.8,0.1,-83.8,1.95,-3.9,-1.51,0.32,-1.07,-0.19,-2.64,-1.52,0.49,0.62,1.1328724553099525,4.614390533970873,0.09975556502386729,0.28,0,7,0.0
7.695489997000095,565,503.9,-93.6,0.3,-84.2,1.69,-3.41,-1.62,0.26,-1.02,-0.19,-2.66,-1.6,0.63,0.62,1.0696261028976435,4.136254344210472,0.035779028359327114,0.28,0,7,0.0
7.706814971999847,566,503.91,-93.4,0.4,-84.5,1.39,-2.96,-1.73,0.19,-0.99,-0.13,-2.67,-1.52,0.1,0.0,1.0164152694642086,3.6995405120095657,0.01708316897262563,0.28,0,7,0.0
7.7155443490000835,567,503.92,-93.3,0.6,-84.8,1.04,-2.74,-1.84,0.13,-0.98,-0.09,-2.68,-0.89,0.15,0.0,0.9926731586982696,3.460462396848144,0.040008774143793335,0.28,0,7,0.0
7.726942052999675,568,503.93,-93.2,0.8,-85.1,0.92,-2.64,-1.89,0.1,-0.94,-0.09,-2.69,-0.45,0.1,0.0,0.9495788540189803,3.3746259051930485,0.08144101724662078,0.28,0,7,0.0
7.735675939999965,569,503.94,-93.2,1.0,-85.3,0.75,-2.55,-1.9,0.09,-0.92,-0.09,-2.69,-0.11,0.12,0.0,0.9287626176801045,3.267261850540908,0.10021210851378681,0.28,0,7,0.0
7.746851265999794,570,503.95,-93.2,1.2,-85.6,0.37,-2.5,-1.84,0.1,-0.9,-0.11,-2.69,0.01,-0.22,0.0,0.9121951545584969,3.1260998064681176,0.11444398020268653,0.28,0,7,0.0
7.755626911000036,571,503.96,-93.1,1.4,-85.8,0.11,-2.46,-1.82,0.13,-0.91,-0.1,-2.69,-0.01,0.03,0.0,0.9246621004453465,3.062041802457961,0.0999374936295202,0.28,0,7,0.0
7.7668736669998,572,503.97,-93.1,1.5,-86.1,0.0,-2.4,-1.79,0.17,-0.91,-0.12,-2.69,-0.09,0.05,0.0,0.9334880824091971,2.994010688023675,0.08928928143235626,0.28,0,7,0.0
7.775570746000085,573,503.98,-93.1,1.7,-86.3,-0.02,-2.38,-1.65,0.21,-0.9,-0.13,-2.69,-0.22,0.02,0.0,0.9332738076256079,2.8960835623303414,0.08771348509162669,0.28,0,7,0.0
7.787399973999982,574,503.99,-93.1,1.9,-86.6,0.14,-2.31,-1.46,0.23,-0.9,-0.13,-2.7,-0.35,0.07,0.0,0.9379765455489812,2.7362931129540926,0.0813505322248882,0.28,0,7,0.0
7.79550245900009,575,504.0,-93.1,2.0,-86.8,0.39,-2.24,-1.21,0.26,-0.89,-0.14,-2.7,-0.49,-0.05,0.0,0.937709976485267,2.575616431070434,0.07998475926283044,0.28,0,7,0.0
7.806970816000103,576,504.01,-93.1,2.1,-87.0,0.73,-2.1,-0.98,0.26,-0.89,-0.15,-2.71,-0.58,-0.13,0.0,0.9392550239418472,2.4296707595886318,0.0768709175701251,0.28,0,7,0.0
7.815690098999767,577,504.02,-93.0,2.1,-87.2,1.13,-1.85,-0.7,0.27,-0.87,-0.17,-2.71,-0.61,0.04,0.0,0.9266606714434362,2.2780254607883554,0.08767596466716543,0.28,0,7,0.0
7.826965622999978,578,504.03,-92.9,2.2,-87.4,1.27,-1.51,-0.48,0.28,-0.85,-0.18,-2.72,-0.54,-0.06,0.0,0.9128526715741154,2.030615670184784,0.0994542852457565,0.28,0,7,0.0
7.83573947800005,579,504.04,-92.8,2.2,-87.5,1.16,-1.07,-0.32,0.29,-0.83,-0.19,-2.73,-0.61,-0.05,0.0,0.899499861033897,1.6102484280383569,0.11055095387025549,0.28,0,7,0.0
7.846770143999947,580,504.05,-92.7,2.2,-87.6,0.88,-0.54,-0.16,0.29,-0.82,-0.19,-2.73,-0.61,0.05,0.0,0.8902808545621993,1.0447966309287182,0.11737456113511413,0.28,0,7,0.0
7.8555731229998855,581,504.06,-92.6,2.2,-87.6,0.51,0.0,-0.01,0.31,-0.82,-0.19,-2.74,-0.6,0.13,0.0,0.8969949832635631,0.510098029794274,0.10844722378507532,0.28,0,7,0.0
7.86686745399993,582,504.07,-92.5,2.2,-87.6,0.26,0.51,0.16,0.31,-0.83,-0.19,-2.74,-0.51,-0.03,0.0,0.9061456836513652,0.5943904440685432,0.09731059292932775,0.28,0,7,0.0
7.875558190999982,583,504.08,-92.5,2.2,-87.5,0.03,0.98,0.36,0.3,-0.83,-0.18,-2.75,-0.35,0.11,0.0,0.9007219326740078,1.0444615837837214,0.10067965702855142,0.28,0,7,0.0
7.886887608000052,584,504.09,-92.5,2.2,-87.4,-0.24,1.42,0.56,0.28,-0.85,-0.18,-2.75,-0.12,0.1,0.0,0.9128526715741154,1.5451860729374958,0.08677793976587489,0.28,0,7,0.0
7.895568746999743,585,504.1,-92.6,2.1,-87.2,-0.51,1.77,0.74,0.25,-0.87,-0.18,-2.75,0.11,0.11,0.0,0.9229301165310405,1.9850944561909392,0.07516648491277078,0.28,0,7,0.0
7.906951125999967,586,504.11,-92.6,2.0,-87.1,-0.65,2.05,0.9,0.21,-0.88,-0.16,-2.75,0.02,-0.24,0.0,0.9187491496594704,2.3313086453749534,0.07776050274865409,0.28,0,7,0.0
7.915500320999854,587,504.12,-92.7,2.0,-86.8,-0.69,2.2,1.02,0.18,-0.9,-0.14,-2.75,-0.02,0.24,0.0,0.9284395510748128,2.5212100269513447,0.06670869930664547,0.28,0,7,0.0
7.9268586819998745,588,504.13,-92.7,1.9,-86.6,-0.72,2.26,1.13,0.16,-0.91,-0.12,-2.75,0.04,-0.11,0.0,0.9317188417113824,2.627337054890369,0.062160820496674374,0.28,0,7,0.0
7.935625331999745,589,504.14,-92.8,1.8,-86.4,-0.77,2.19,1.23,0.14,-0.92,-0.11,-2.75,0.0,0.01,0.0,0.9370699013414101,2.627146741238487,0.055673565649313805,0.28,0,7,0.0
7.946872811000048,590,504.15,-92.9,1.6,-86.2,-0.91,2.04,1.33,0.14,-0.93,-0.1,-2.75,0.0,0.09,0.0,0.9457801012920498,2.5997307552898627,0.04602409838470056,0.28,0,7,0.0
7.9555096779999985,591,504.16,-93.0,1.5,-86.0,-0.93,1.88,1.45,0.14,-0.94,-0.12,-2.75,0.09,-0.06,0.0,0.9579144011862437,2.549862741403937,0.03321200252069656,0.28,0,7,0.0
7.966808619999938,592,504.17,-93.1,1.4,-85.8,-0.73,1.74,1.6,0.15,-0.95,-0.12,-2.75,0.21,-0.03,0.0,0.9692264957170743,2.47396442981705,0.02146190983006868,0.28,0,7,0.0
7.9755104709997795,593,504.18,-93.1,1.2,-85.6,-0.51,1.63,1.77,0.17,-0.94,-0.12,-2.74,0.32,0.11,0.0,0.9627564593395361,2.459654447275064,0.027373307283454773,0.28,0,7,0.0
7.987498534999759,594,504.19,-93.2,1.0,-85.4,-0.34,1.54,2.0,0.18,-0.92,-0.12,-2.74,0.38,-0.06,0.0,0.9450925880568528,2.546998233214935,0.04413643499481534,0.28,0,7,0.0
7.9955126380000365,595,504.2,-93.2,0.8,-85.3,-0.27,1.52,2.26,0.2,-0.91,-0.14,-2.73,0.63,0.11,0.0,0.9421783270697751,2.736950858163149,0.046109682062255186,0.28,0,7,0.0
8.007570843999929,596,504.21,-93.2,0.6,-85.1,-0.25,1.59,2.52,0.2,-0.91,-0.13,-2.72,0.96,0.13,0.0,0.940744386111339,2.99015049788468,0.04659275056027745,0.28,0,7,0.0
8.015556860999823,597,504.22,-93.2,0.3,-84.9,-0.39,1.64,2.74,0.2,-0.9,-0.12,-2.71,1.28,0.08,0.0,0.9297311439335568,3.21703279436191,0.056453872883298506,0.28,0,7,0.0
8.026959203999922,598,504.23,-93.3,0.1,-84.7,-0.57,1.79,3.0,0.19,-0.89,-0.13,-2.7,1.68,0.09,0.0,0.9192932067626738,3.5396327493117137,0.06555397385309791,0.28,0,7,0.0
8.035498408999956,599,504.24,-93.3,-0.2,-84.5,-0.6,2.02,3.29,0.19,-0.86,-0.15,-2.68,2.12,-0.03,0.0,0.893420393767682,3.906980931614589,0.08959825111112785,0.28,0,7,0.0
8.046901077999792,600,504.25,-93.4,-0.5,-84.3,-0.51,2.32,3.63,0.22,-0.84,-0.17,-2.65,2.75,0.33,0.0,0.8848163651289458,4.338133239078763,0.09623823415486676,0.28,0,7,0.0
8.05551388999993,601,504.26,-93.5,-0.9,-84.0,-0.38,2.73,3.9,0.24,-0.83,-0.19,-2.62,3.37,0.09,0.0,0.8846468221838588,4.775698901731557,0.09447962155795464,0.28,0,7,0.0
8.066801208000015,602,504.27,-93.5,-1.2,-83.7,-0.46,3.33,4.14,0.22,-0.84,-0.19,-2.59,3.4,-0.14,0.0,0.8888756943465155,5.332926026113619,0.08844573440739201,0.28,0,7,0.0
8.075567468999907,603,504.28,-93.6,-1.6,-83.3,-1.27,4.0,4.01,0.21,-1.01,-0.06,-2.55,2.85,-0.08,0.0,1.0333440859655607,5.804567167326088,0.05490220406742019,0.28,0,7,0.0
8.087538275000043,604,504.29,-93.9,-2.0,-82.8,-3.67,4.8,3.08,0.14,-1.35,0.08,-2.53,1.97,-0.21,0.0,1.3595955280891447,6.781983485677328,0.3735305732671841,0.28,1,8,0.5
8.095572804999847,605,504.3,-94.4,-2.1,-82.3,-6.82,5.52,1.66,-0.03,-1.61,0.06,-2.52,0.98,-0.18,0.0,1.6113969095167089,8.929636050814166,0.6128253156008533,0.28,0,8,0.5
8.106774691999817,606,504.31,-95.2,-2.2,-81.7,-8.14,5.77,0.24,-0.24,-1.78,0.13,-2.52,-0.25,0.3,0.62,1.8008053753806934,9.980485960112363,0.786189105835541,0.28,0,8,0.5
8.1155980489998,607,504.32,-95.9,-2.1,-81.2,-5.36,4.94,-0.8,-0.36,-1.68,0.19,-2.53,-1.55,0.36,0.62,1.7286121600868134,7.333021205478681,0.6997159727308278,0.28,0,8,0.5
8.127525481999783,608,504.33,-96.2,-2.0,-80.8,-0.17,3.45,-1.02,-0.3,-1.39,0.12,-2.55,-2.45,0.34,0.62,1.4270599146496967,3.601638516009068,0.3902004527478369,0.28,0,8,0.5
8.135690613999941,609,504.34,-96.0,-1.8,-80.5,3.76,2.64,-0.86,-0.12,-1.12,0.0,-2.58,-2.76,0.58,0.62,1.126410227226298,4.674056054434948,0.08775975001794922,0.28,0,8,0.5
8.146847424000043,610,504.35,-95.5,-1.7,-80.3,5.57,1.99,-0.46,0.05,-0.8,-0.01,-2.6,-2.35,0.79,0.62,0.8016233529532433,5.932672247815481,0.23228658177000328,0.28,0,8,0.5
8.155513680999775,611,504.36,-94.9,-1.7,-80.1,5.55,1.92,0.06,0.2,-0.66,-0.06,-2.62,-1.46,0.8,0.62,0.6922427319950712,5.873031585135568,0.3348338586736117,0.28,0,8,0.5
8.166765704999762,612,504.37,-94.4,-1.7,-79.8,3.88,2.54,0.46,0.29,-0.62,-0.19,-2.63,-0.59,0.68,0.62,0.7103520254071217,4.660214587333935,0.31039007395633,0.28,0,8,0.5
8.175499216999924,613,504.38,-94.2,-1.8,-79.5,0.91,3.64,0.77,0.31,-0.67,-0.23,-2.63,0.07,0.7,0.62,0.7732399368889323,3.830221925685247,0.24255211922502895,0.28,0,8,0.5
8.186817279000024,614,504.39,-94.3,-1.8,-79.1,-1.66,4.59,0.94,0.26,-0.83,-0.16,-2.63,-0.04,0.59,0.62,0.8843641783790205,4.97064382147826,0.1287993201802421,0.28,0,8,0.5
8.195562872999744,615,504.4,-94.5,-1.9,-78.6,-2.57,5.08,1.08,0.19,-0.99,-0.07,-2.63,0.02,0.63,0.62,1.0104949282406122,5.794626821461413,0.00261519891227735,0.28,0,8,0.5
8.206960040000013,616,504.41,-94.8,-1.9,-78.1,-2.0,5.01,1.04,0.09,-1.12,-0.02,-2.63,0.0,0.58,0.62,1.1237882362794158,5.493787400327756,0.10846454694399577,0.28,0,8,0.5
8.21558861099993,617,504.42,-94.9,-2.0,-77.6,-0.55,4.71,0.95,-0.04,-1.15,-0.05,-2.63,-0.02,0.59,0.62,1.1517812292271479,4.83622786890775,0.13372838909389317,0.28,0,8,0.5
8.226974006000091,618,504.43,-94.9,-2.1,-77.1,0.65,4.66,0.8,-0.17,-1.1,-0.08,-2.63,-0.09,0.62,0.62,1.1159301053381434,4.772640778437028,0.09591971990079085,0.28,0,8,0.5
8.235512063999977,619,504.44,-94.8,-2.1,-76.7,0.96,4.35,0.56,-0.28,-1.05,-0.04,-2.63,-0.29,0.65,0.62,1.0874281585465773,4.489732731466317,0.06606941764704022,0.28,0,8,0.5
8.246875089999776,620,504.45,-94.8,-2.1,-76.2,0.58,3.91,0.35,-0.34,-1.0,-0.01,-2.64,-0.71,0.52,0.62,1.0562670116973265,3.9682489841238544,0.03421010538183378,0.28,0,8,0.5
8.255511014999684,621,504.46,-94.7,-2.1,-75.9,0.05,3.16,0.16,-0.35,-0.98,0.02,-2.65,-1.01,0.66,0.62,1.0408169867945085,3.164443078963501,0.018384878869435406,0.28,0,8,0.5
8.266797062000023,622,504.47,-94.8,-2.1,-75.6,-0.32,2.16,-0.06,-0.32,-0.99,0.03,-2.66,-1.09,0.46,0.62,1.0408650248711404,2.1843992309099542,0.018064258607146,0.28,0,8,0.5
8.275540545999775,623,504.48,-94.8,-2.1,-75.5,-0.32,1.3,-0.15,-0.24,-1.0,-0.05,-2.67,-1.03,0.64,0.62,1.0296115772464878,1.3471822445385777,0.006674594762843489,0.28,0,8,0.0
8.286813357000028,624,504.49,-94.8,-2.0,-75.4,-0.24,0.62,-0.13,-0.17,-1.02,-0.06,-2.68,-0.77,0.56,0.62,1.0358088626768938,0.677421582177598,0.012614442589384378,0.28,0,8,0.0
8.295532330999777,625,504.5,-94.9,-2.1,-75.3,-0.02,0.28,0.0,-0.11,-1.04,-0.13,-2.68,-0.09,0.15,0.0,1.0538500842150178,0.28071337695236404,0.030042550844958216,0.28,0,8,0.0
8.306826698999885,626,504.51,-94.9,-2.1,-75.3,0.24,0.12,0.14,-0.08,-1.07,-0.11,-2.68,0.35,-0.1,0.0,1.0786102168995062,0.3026549190084311,0.05370662985885777,0.28,0,8,0.0
8.315620432999822,627,504.52,-94.8,-2.2,-75.3,0.77,-0.04,0.25,-0.07,-1.04,-0.1,-2.68,0.52,-0.08,0.0,1.0471389592599447,0.8105553651663778,0.02179066477491043,0.28,0,8,0.0
8.326883617000021,628,504.53,-94.7,-2.2,-75.3,1.04,-0.34,0.33,-0.06,-0.99,-0.06,-2.67,0.55,-0.03,0.0,0.9936297097007517,1.1428473213863697,0.03108421308859699,0.28,0,8,0.0
8.335620987999846,629,504.54,-94.6,-2.3,-75.4,0.85,-0.63,0.4,-0.06,-0.94,-0.08,-2.66,0.51,-0.08,0.0,0.9453041838477179,1.1311056537742175,0.0778215441627983,0.28,0,8,0.0
8.346958215000086,630,504.55,-94.6,-2.3,-75.4,0.32,-0.64,0.48,-0.06,-0.94,-0.07,-2.66,0.45,-0.09,0.0,0.9445104552094699,0.8616263691415206,0.07704296734502547,0.28,0,8,0.0
8.355518641999879,631,504.56,-94.6,-2.4,-75.5,-0.05,-0.62,0.46,-0.07,-0.95,-0.07,-2.66,0.29,-0.08,0.0,0.9551439682058407,0.7736278174936576,0.06508126526168145,0.28,0,8,0.0
8.366853975999675,632,504.57,-94.6,-2.5,-75.6,-0.16,-0.66,0.43,-0.08,-0.98,-0.07,-2.65,0.28,-0.1,0.0,0.9857484466130291,0.8038034585643433,0.033787251117403105,0.28,0,8,0.0
8.375608431999808,633,504.58,-94.6,-2.5,-75.6,0.01,-0.75,0.35,-0.08,-1.0,-0.09,-2.65,0.2,-0.06,0.0,1.0072239075796403,0.8277076778670112,0.01206555434777612,0.28,0,8,0.0
8.3869431600001,634,504.59,-94.6,-2.6,-75.7,0.24,-0.76,0.22,-0.07,-0.99,-0.11,-2.65,0.15,-0.08,0.0,0.9985489472229191,0.8268010643437755,0.020325704410407375,0.28,0,8,0.0
8.395570397000029,635,504.6,-94.5,-2.6,-75.8,0.45,-0.72,0.06,-0.06,-0.97,-0.11,-2.65,0.14,-0.06,0.0,0.9780593029055038,0.8511756575466665,0.039999041753266296,0.28,0,8,0.0
8.40692871300007,636,504.61,-94.5,-2.6,-75.8,0.48,-0.67,-0.07,-0.07,-0.95,-0.09,-2.65,0.1,0.09,0.0,0.9568176419778223,0.8271638289964087,0.060015888627328984,0.28,0,8,0.0
8.41561663099992,637,504.62,-94.5,-2.6,-75.9,0.37,-0.61,-0.18,-0.07,-0.93,-0.09,-2.65,0.01,0.0,0.0,0.9369631796394137,0.7357988855658861,0.07827294394642281,0.28,0,8,0.0
8.426925531000052,638,504.63,-94.5,-2.7,-76.0,0.16,-0.56,-0.27,-0.09,-0.92,-0.08,-2.65,0.0,0.01,0.0,0.9278469701410896,0.6419501538281613,0.08564137037585184,0.28,0,8,0.0
8.43568894300006,639,504.64,-94.4,-2.7,-76.0,-0.04,-0.6,-0.4,-0.13,-0.92,-0.06,-2.65,0.0,0.09,0.0,0.9310746479203481,0.7222188034107115,0.08076541874466148,0.28,0,8,0.0
8.446826834999683,640,504.65,-94.5,-2.7,-76.1,-0.26,-0.76,-0.48,-0.15,-0.91,-0.05,-2.65,0.0,0.08,0.0,0.9236341266973628,0.9357350052231668,0.08644182116829391,0.28,0,8,0.0
8.455500561000008,641,504.66,-94.5,-2.7,-76.2,-0.43,-1.01,-0.55,-0.15,-0.92,-0.05,-2.65,0.0,-0.06,0.0,0.9334880824091971,1.2278029157808674,0.07505610814733044,0.28,0,8,0.0
8.466883631999735,642,504.67,-94.5,-2.7,-76.3,-0.61,-1.28,-0.65,-0.16,-0.93,-0.05,-2.65,0.0,0.0,0.0,0.944986772394196,1.559807680452946,0.062286269799084915,0.28,0,8,0.0
8.475603154000055,643,504.68,-94.6,-2.6,-76.5,-0.77,-1.53,-0.77,-0.15,-0.94,-0.06,-2.65,0.0,0.01,0.0,0.9537819457297354,1.877951011075635,0.0524212745342747,0.28,0,8,0.0
8.486843090000093,644,504.69,-94.7,-2.6,-76.6,-0.85,-1.77,-0.91,-0.14,-0.95,-0.07,-2.65,0.02,0.01,0.0,0.9628083921528727,2.164139551877374,0.042526931548914515,0.28,0,8,0.0
8.495558342000095,645,504.7,-94.7,-2.6,-76.8,-0.94,-1.95,-1.07,-0.12,-0.95,-0.07,-2.65,0.0,0.09,0.0,0.9601041610158764,2.4147463634924473,0.04432653943219267,0.28,0,8,0.0
8.506905586999892,646,504.71,-94.8,-2.5,-77.0,-1.1,-2.01,-1.2,-0.1,-0.94,-0.09,-2.65,0.03,-0.06,0.0,0.9495788540189803,2.5865227623201,0.05375480950050682,0.28,0,8,0.0
8.515616255999703,647,504.72,-95.0,-2.5,-77.2,-1.46,-1.94,-1.28,-0.09,-0.93,-0.1,-2.65,0.02,-0.07,0.0,0.9396807968666807,2.744740424885384,0.06237980931975029,0.28,0,8,0.0
8.526896177999788,648,504.73,-95.1,-2.4,-77.4,-2.02,-1.8,-1.28,-0.06,-0.94,-0.09,-2.65,0.09,0.03,0.0,0.9462029380635002,2.99312545677591,0.05474051476047226,0.28,0,8,0.0
8.535631015000035,649,504.74,-95.3,-2.3,-77.6,-2.3,-1.7,-1.31,-0.04,-0.98,-0.06,-2.64,0.22,0.29,0.0,0.9826494797230597,3.1458067327793677,0.01792809363889447,0.28,0,8,0.0
8.546966047999831,650,504.75,-95.5,-2.2,-77.8,-2.31,-1.56,-1.31,-0.05,-1.0,-0.05,-2.64,0.38,0.12,0.0,1.002496882788171,3.0799025958624084,0.0018809232376926222,0.28,0,8,0.0
8.555524415000036,651,504.76,-95.8,-2.1,-78.0,-3.23,-1.34,-0.92,0.0,-1.06,0.02,-2.64,0.41,0.03,0.0,1.0601886624558858,3.6159231186517227,0.05838124884729923,0.28,0,8,0.0
8.56683818800002,652,504.77,-96.2,-2.0,-78.1,-4.86,-1.17,-0.24,0.14,-1.25,0.04,-2.63,0.47,0.09,0.0,1.2584514293368656,5.004607876747189,0.2515111354137134,0.28,0,8,0.0
8.57551516600006,653,504.78,-96.7,-2.1,-78.2,-5.58,-1.23,0.47,0.29,-1.45,-0.04,-2.63,0.61,-0.03,0.0,1.479256570037801,5.7332538754183915,0.4628699505923559,0.28,1,9,0.5
8.587508210999658,654,504.79,-97.2,-2.1,-78.3,-3.1,-1.02,1.1,0.41,-1.53,-0.15,-2.62,0.75,-0.23,0.0,1.5910688231500232,3.4438931458452657,0.5631885596304864,0.28,0,9,0.5
8.595524734999799,655,504.8,-97.2,-2.3,-78.4,1.66,-0.95,1.46,0.36,-1.46,-0.1,-2.61,0.52,0.63,0.62,1.5070500987027602,2.4061795444230674,0.46958643847955894,0.28,0,9,0.5
8.606889314,656,504.81,-96.8,-2.5,-78.5,5.7,-0.89,1.57,0.32,-1.21,-0.17,-2.61,-0.11,0.39,0.62,1.2630914456206248,5.978879493684414,0.22111522968947517,0.28,0,9,0.5
8.615702895999675,657,504.82,-96.1,-2.6,-78.5,6.88,-0.29,1.45,0.21,-0.98,-0.13,-2.61,0.03,0.55,0.62,1.010643359449811,7.03711588649782,0.030706199351711927,0.28,0,9,0.5
8.627040973000021,658,504.83,-95.4,-2.7,-78.5,7.28,-0.15,0.7,-0.01,-0.81,0.01,-2.61,-0.03,0.39,0.62,0.8101234473831751,7.315114489876423,0.22660158918998086,0.28,0,9,0.5
8.6356962939999,659,504.84,-94.7,-2.8,-78.5,6.32,-0.56,0.16,-0.22,-0.6,0.16,-2.61,0.0,0.55,0.62,0.6587867636800242,6.3467787104955855,0.37037950743526915,0.28,0,9,0.5
8.646952966999834,660,504.85,-94.2,-2.8,-78.7,3.32,-1.53,0.16,-0.35,-0.44,0.18,-2.61,-0.02,0.55,0.62,0.5903388857258176,3.659084584974772,0.4300508376816863,0.28,0,9,0.5
8.65548111499993,661,504.86,-94.1,-2.8,-78.9,-0.27,-2.45,0.37,-0.42,-0.52,0.05,-2.61,-0.01,0.64,0.62,0.6702984409947557,2.4924485952572826,0.3430894567644933,0.28,0,9,0.5
8.666869402999964,662,504.87,-94.3,-2.9,-79.1,-2.6,-3.12,0.39,-0.41,-0.66,-0.05,-2.61,0.0,0.39,0.62,0.7785884663928692,4.080012254883557,0.23010344273905214,0.28,0,9,0.5
8.6754717230001,663,504.88,-94.5,-3.0,-79.5,-3.21,-3.55,0.37,-0.35,-0.8,-0.08,-2.61,0.02,0.4,0.62,0.8768694315575153,4.800364569488447,0.1291860280229179,0.28,0,9,0.5
8.68743735299995,664,504.89,-94.8,-3.0,-79.8,-2.61,-3.95,0.54,-0.24,-0.97,-0.09,-2.61,-0.03,0.88,0.62,1.0032945728947207,4.7651023074011745,0.002705668951998197,0.28,0,9,0.5
8.69552656399992,665,504.9,-95.0,-3.2,-80.3,-1.12,-4.21,0.63,-0.09,-1.13,-0.1,-2.61,0.0,0.39,0.62,1.137980667674104,4.401749652126981,0.12934081731083746,0.28,0,9,0.5
8.706910956999764,666,504.91,-95.0,-3.2,-80.7,0.31,-4.21,0.63,0.06,-1.28,-0.11,-2.61,0.0,0.56,0.62,1.286118190525272,4.268149481918364,0.2719287733587654,0.28,0,9,0.5
8.715584495999792,667,504.92,-94.9,-3.3,-81.1,1.53,-4.16,0.52,0.21,-1.34,-0.12,-2.61,0.0,0.64,0.62,1.361653406708183,4.462835421567773,0.34051470975084275,0.28,0,9,0.5
8.726968542999657,668,504.93,-94.6,-3.4,-81.5,2.77,-4.03,0.24,0.34,-1.32,-0.15,-2.61,0.0,0.72,0.62,1.3713132391981053,4.896059640159626,0.34317105139594983,0.28,0,9,0.5
8.735627313999885,669,504.94,-94.3,-3.4,-81.9,3.75,-3.87,0.0,0.41,-1.21,-0.14,-2.61,-0.01,0.55,0.62,1.2852237159343116,5.388821763614009,0.25193989756951307,0.28,0,9,0.5
8.747010449999834,670,504.95,-93.8,-3.4,-82.3,3.96,-3.5,-0.32,0.41,-1.08,-0.16,-2.61,0.0,0.64,0.62,1.1662332528272379,5.294714345458119,0.1302904457731906,0.28,0,9,0.5
8.755630742999983,671,504.96,-93.5,-3.4,-82.6,3.2,-2.9,-0.55,0.33,-0.94,-0.19,-2.61,0.0,0.72,0.62,1.0141991914806479,4.353446910208048,0.02130874326193144,0.28,0,9,0.0
8.767025433000072,672,504.97,-93.2,-3.4,-82.8,1.72,-2.32,-0.62,0.19,-0.9,-0.12,-2.61,-0.01,0.64,0.62,0.9276313923105449,2.9538449519228323,0.10571901158339359,0.28,0,9,0.0
8.77555689699966,673,504.98,-93.1,-3.3,-83.1,0.63,-2.02,-0.78,0.04,-0.95,-0.08,-2.61,0.13,-0.08,0.0,0.95420123663722,2.25514966243928,0.0775661839115841,0.28,0,9,0.0
8.78695212499997,674,504.99,-93.1,-3.2,-83.3,0.07,-1.89,-1.01,-0.06,-1.01,-0.04,-2.61,-0.04,-0.09,0.0,1.0125709851659783,2.1440848863792685,0.018812506675169205,0.28,0,9,0.0
8.795662832999824,675,505.0,-93.0,-3.1,-83.5,0.04,-1.91,-1.19,-0.12,-1.02,-0.04,-2.61,-0.1,0.0,0.0,1.0278132126023678,2.2507332138660945,0.003498873654004031,0.28,0,9,0.0
8.806945611999708,676,505.01,-93.0,-3.0,-83.7,0.14,-2.03,-1.3,-0.12,-1.01,-0.04,-2.61,-0.08,-0.86,0.0,1.0178899744078433,2.4146428307308723,0.01315366961155795,0.28,0,9,0.0
8.815651552999952,677,505.02,-93.0,-3.0,-83.9,0.13,-2.08,-1.35,-0.09,-0.99,-0.06,-2.61,-0.11,0.06,0.0,0.9958915603618699,2.4831028975860026,0.03444904198438081,0.28,0,9,0.0
8.826930295999773,678,505.03,-93.0,-2.8,-84.1,0.03,-2.22,-1.45,-0.06,-0.98,-0.07,-2.62,-0.22,-0.18,0.0,0.9843271813782245,2.6517541364161197,0.04509315254866564,0.28,0,9,0.0
8.835670135999862,679,505.04,-93.0,-2.7,-84.3,-0.19,-2.28,-1.57,-0.01,-0.99,-0.11,-2.62,-0.38,0.0,0.0,0.9961425600786264,2.7747792705006287,0.03261221837129846,0.28,0,9,0.0
8.846932251999988,680,505.05,-93.0,-2.5,-84.6,-0.22,-2.29,-1.62,0.04,-0.98,-0.13,-2.62,-0.56,0.01,0.0,0.9893937537704591,2.813698633471609,0.038573804185876526,0.28,0,9,0.0
8.855667170999823,681,505.06,-93.0,-2.4,-84.8,-0.22,-2.36,-1.66,0.1,-0.98,-0.14,-2.63,-0.74,-0.04,0.0,0.9949874371066199,2.8937173324289986,0.032320518432721546,0.28,0,9,0.0
8.866874762999942,682,505.07,-93.0,-2.2,-85.1,-0.11,-2.46,-1.59,0.15,-0.96,-0.16,-2.64,-0.9,0.11,0.0,0.984733466477097,2.931177237902887,0.04172299928099954,0.28,0,9,0.0
8.875557740999739,683,505.08,-93.0,-2.1,-85.3,0.05,-2.5,-1.46,0.19,-0.96,-0.19,-2.65,-0.98,0.0,0.0,0.9968951800465282,2.8955310393777514,0.02897005999733704,0.28,0,9,0.0
8.886837019999803,684,505.09,-93.0,-2.0,-85.6,0.26,-2.46,-1.28,0.23,-0.97,-0.21,-2.66,-1.0,-0.01,0.0,1.0187737727287645,2.785246847229164,0.006949637968798772,0.28,0,9,0.0
8.895635755000058,685,505.1,-93.0,-1.9,-85.8,0.5,-2.24,-1.04,0.24,-0.98,-0.22,-2.67,-1.05,0.04,0.0,1.032666451474047,2.5197618935129564,0.006804179960953949,0.28,0,9,0.0
8.906835752999996,686,505.11,-92.9,-1.8,-86.0,0.73,-2.03,-0.83,0.24,-0.96,-0.21,-2.68,-0.99,-0.01,0.0,1.0115829180052418,2.3114281299664063,0.013993766437694122,0.28,0,9,0.0
8.915638274999765,687,505.12,-92.8,-1.7,-86.2,0.82,-1.78,-0.57,0.23,-0.94,-0.21,-2.69,-1.02,0.05,0.0,0.9902524930541705,2.04100465457578,0.03461770756099014,0.28,0,9,0.0
8.926971471999877,688,505.13,-92.7,-1.7,-86.4,0.78,-1.47,-0.28,0.21,-0.92,-0.21,-2.7,-0.99,-0.06,0.0,0.9667471230885563,1.687512962913174,0.05696061597607227,0.28,0,9,0.0
8.935615823999797,689,505.14,-92.6,-1.7,-86.5,0.58,-1.05,-0.1,0.19,-0.93,-0.21,-2.71,-0.93,0.11,0.0,0.9721625378505387,1.2037026210821342,0.050514297189808044,0.28,0,9,0.0
8.946930178000002,690,505.15,-92.6,-1.7,-86.6,0.31,-0.62,0.03,0.16,-0.92,-0.2,-2.72,-0.73,0.02,0.0,0.9549869109050658,0.6938299503480663,0.0663361256525753,0.28,0,9,0.0
8.955581491999965,691,505.16,-92.6,-1.7,-86.6,-0.02,-0.18,0.13,0.15,-0.93,-0.18,-2.72,-0.58,-0.11,0.0,0.9590620417887469,0.22293496809607952,0.06101577487351639,0.28,0,9,0.0
8.966909079999823,692,505.17,-92.6,-1.7,-86.6,-0.14,0.18,0.2,0.13,-0.95,-0.16,-2.73,-0.39,0.14,0.0,0.972111104761179,0.30331501776206204,0.04700737766306262,0.28,0,9,0.0
8.975605460999759,693,505.18,-92.6,-1.7,-86.6,-0.09,0.41,0.32,0.13,-0.94,-0.14,-2.73,-0.33,-0.15,0.0,0.959218431849597,0.5278257288158659,0.058702049563151726,0.28,0,9,0.0
8.986862536999979,694,505.19,-92.6,-1.8,-86.5,0.08,0.6,0.5,0.13,-0.94,-0.14,-2.73,-0.16,0.12,0.0,0.959218431849597,0.7851114570556209,0.05752800857188867,0.28,0,9,0.0
8.995577169999706,695,505.2,-92.6,-1.8,-86.5,0.25,0.77,0.62,0.14,-0.94,-0.14,-2.74,-0.07,-0.02,0.0,0.9606247966818262,1.0197058399362045,0.054999210864866255,0.28,0,9,0.0
9.00694778199977,696,505.21,-92.6,-1.9,-86.4,0.29,0.92,0.7,0.14,-0.94,-0.13,-2.74,0.0,0.05,0.0,0.959218431849597,1.1918473056562238,0.0552774641831536,0.28,0,9,0.0
9.015589477000049,697,505.22,-92.6,-2.0,-86.3,0.19,1.0,0.77,0.13,-0.93,-0.11,-2.74,0.0,0.02,0.0,0.9454628496138809,1.2763228431709588,0.06765238549049235,0.28,0,9,0.0
9.026928968999982,698,505.23,-92.5,-2.0,-86.2,0.05,1.05,0.88,0.12,-0.93,-0.11,-2.74,0.01,-0.07,0.0,0.9441398201537736,1.3709121051329294,0.06759590665158766,0.28,0,9,0.0
9.03557058999968,699,505.24,-92.5,-2.1,-86.1,0.0,1.16,0.97,0.12,-0.94,-0.12,-2.74,0.01,0.02,0.0,0.9551963149007642,1.512117720285031,0.05540862366650512,0.28,0,9,0.0
9.046910087000015,700,505.25,-92.5,-2.2,-85.9,0.06,1.26,1.05,0.12,-0.95,-0.12,-2.74,0.01,-0.02,0.0,0.9650388593212192,1.6412495239907916,0.04465475766112903,0.28,0,9,0.0
9.055569430000105,701,505.26,-92.5,-2.3,-85.8,0.06,1.36,1.12,0.12,-0.95,-0.12,-2.74,0.01,0.02,0.0,0.9650388593212192,1.7628386199536248,0.04376166250790636,0.28,0,9,0.0
9.066836370999681,702,505.27,-92.6,-2.4,-85.6,-0.03,1.46,1.12,0.12,-0.96,-0.12,-2.74,0.0,0.02,0.0,0.9748846085563152,1.8403532269648673,0.03323759500735424,0.28,0,9,0.0
9.075480827999854,703,505.28,-92.6,-2.5,-85.5,-0.08,1.57,1.11,0.13,-0.96,-0.14,-2.74,0.03,0.03,0.0,0.9788258272031853,1.924421991144354,0.028710448833274338,0.28,0,9,0.0
9.086764201999813,704,505.29,-92.6,-2.6,-85.3,-0.17,1.71,1.11,0.13,-0.96,-0.12,-2.73,0.12,0.0,0.0,0.9761659694949419,2.0457516955877124,0.03074290041068728,0.28,0,9,0.0
9.09559296999987,705,505.3,-92.6,-2.8,-85.1,-0.27,1.84,1.12,0.14,-0.97,-0.14,-2.73,0.3,0.05,0.0,0.9899999999999999,2.1709214633422373,0.01657069250751675,0.28,0,9,0.0
9.106950983999923,706,505.31,-92.7,-2.9,-84.9,-0.37,2.03,1.13,0.14,-0.97,-0.14,-2.73,0.55,-0.01,0.0,0.9899999999999999,2.352594312668463,0.016239278657366518,0.28,0,9,0.0
9.115589264999926,707,505.32,-92.7,-3.0,-84.7,-0.44,2.21,1.16,0.14,-0.96,-0.17,-2.72,0.99,0.0,0.0,0.9849365461794988,2.5344230112591704,0.020876677828310264,0.28,0,9,0.0
9.126959373999853,708,505.33,-92.8,-3.1,-84.5,-0.42,2.38,1.23,0.14,-0.94,-0.16,-2.71,1.54,0.0,0.0,0.9637427042525406,2.7117706392687415,0.04122910936016311,0.28,0,9,0.0
9.135577512000054,709,505.34,-92.8,-3.2,-84.2,-0.43,2.51,1.28,0.14,-0.92,-0.16,-2.69,2.14,0.16,0.0,0.9442457307290301,2.8501578903632687,0.0595115612260001,0.28,0,9,0.0
9.146945511000013,710,505.35,-92.9,-3.3,-84.0,-0.58,2.68,1.39,0.14,-0.89,-0.17,-2.66,3.08,0.05,0.0,0.9168424073961675,3.0742316113136305,0.08517658686768537,0.28,0,9,0.0
