host_time_s,seq,device_time_s,roll,pitch,yaw,gyro_x,gyro_y,gyro_z,accel_x,accel_y,accel_z
2.0673599419997117,2,196.02,-102.4,5.9,-151.8,0.0,0.0,0.0,0.1,-0.97,-0.21
2.075305546999971,3,196.03,-102.4,5.9,-151.8,0.0,0.0,0.0,0.1,-0.97,-0.21
2.0855895099998634,4,196.04,-102.4,5.9,-151.8,0.0,0.0,0.0,0.1,-0.96,-0.21
2.095287298999665,5,196.05,-102.4,5.9,-151.8,0.0,0.0,0.0,0.1,-0.97,-0.22
2.104904888999954,6,196.06,-102.4,5.9,-151.8,0.0,0.0,0.0,0.1,-0.97,-0.22
2.1152537009998014,7,196.07,-102.4,5.9,-151.8,0.0,0.0,0.0,0.1,-0.97,-0.22
2.1252197949997935,8,196.08,-102.4,5.9,-151.8,0.03,0.0,0.0,0.1,-0.97,-0.22
2.135566536999704,9,196.09,-102.4,5.9,-151.8,0.05,0.0,0.0,0.1,-0.97,-0.22
2.1456352870000046,10,196.1,-102.4,5.9,-151.8,0.07,0.0,0.01,0.1,-0.97,-0.22
2.155323128999953,11,196.11,-102.4,5.9,-151.8,0.09,0.01,0.01,0.1,-0.97,-0.22
2.165260395999667,12,196.12,-102.4,5.9,-151.8,0.11,0.02,0.0,0.1,-0.98,-0.22
2.1755980039997667,13,196.13,-102.4,5.9,-151.8,0.13,0.04,0.0,0.1,-0.97,-0.22
2.1854272259997742,14,196.14,-102.4,5.9,-151.8,0.15,0.04,0.0,0.1,-0.97,-0.21
2.195284000999891,15,196.15,-102.4,5.9,-151.7,0.18,0.02,0.0,0.1,-0.97,-0.2
2.2054311869997036,16,196.16,-102.3,5.9,-151.7,0.17,0.0,0.0,0.1,-0.96,-0.2
2.2154307010000593,17,196.17,-102.3,5.9,-151.7,0.15,0.0,0.01,0.1,-0.96,-0.2
2.2251173259996904,18,196.18,-102.3,5.9,-151.7,0.11,-0.01,0.01,0.1,-0.96,-0.21
2.235411837999891,19,196.19,-102.3,5.9,-151.7,0.07,-0.02,0.02,0.1,-0.96,-0.21
2.2455419699999766,20,196.2,-102.3,5.9,-151.8,0.04,-0.01,0.02,0.1,-0.96,-0.21
2.2553259619999153,21,196.21,-102.3,5.9,-151.8,0.01,0.0,0.03,0.1,-0.96,-0.21
2.2654125720000593,22,196.22,-102.3,5.9,-151.7,0.02,0.02,0.03,0.1,-0.96,-0.2
2.275259953999921,23,196.23,-102.3,5.9,-151.7,0.05,0.05,0.03,0.1,-0.96,-0.2
2.285263947999738,24,196.24,-102.3,5.9,-151.7,0.04,0.06,0.03,0.1,-0.96,-0.2
2.2955946199999744,25,196.25,-102.3,5.9,-151.7,0.0,0.08,0.02,0.1,-0.96,-0.2
2.305390680000073,26,196.26,-102.3,5.9,-151.7,-0.05,0.11,0.02,0.1,-0.96,-0.2
2.3152851419999934,27,196.27,-102.3,5.9,-151.7,-0.09,0.14,0.03,0.1,-0.96,-0.2
2.3255868269998246,28,196.28,-102.3,5.9,-151.7,-0.14,0.15,0.04,0.1,-0.96,-0.2
2.3354204209999807,29,196.29,-102.3,5.9,-151.7,-0.16,0.16,0.05,0.1,-0.96,-0.2
2.345308572999784,30,196.3,-102.3,5.9,-151.6,-0.18,0.18,0.05,0.1,-0.96,-0.2
2.355613876999996,31,196.31,-102.3,5.9,-151.6,-0.21,0.22,0.06,0.11,-0.96,-0.21
2.365597254000022,32,196.32,-102.3,5.9,-151.6,-0.22,0.25,0.07,0.11,-0.96,-0.21
2.3752557949997026,33,196.33,-102.4,5.9,-151.6,-0.25,0.3,0.06,0.11,-0.96,-0.21
2.385375368000041,34,196.34,-102.4,5.9,-151.5,-0.27,0.34,0.07,0.11,-0.96,-0.21
2.3953650640000888,35,196.35,-102.4,5.9,-151.5,-0.3,0.36,0.08,0.11,-0.96,-0.2
2.4053336899996793,36,196.36,-102.4,5.9,-151.5,-0.31,0.37,0.1,0.11,-0.96,-0.2
2.415307961000053,37,196.37,-102.5,5.9,-151.4,-0.31,0.38,0.12,0.11,-0.96,-0.2
2.4254184219998933,38,196.38,-102.5,6.0,-151.4,-0.32,0.41,0.13,0.11,-0.96,-0.2
2.435344404999796,39,196.39,-102.5,5.9,-151.3,-0.35,0.44,0.15,0.11,-0.96,-0.21
2.445330732000002,40,196.4,-102.5,5.9,-151.3,-0.4,0.48,0.16,0.11,-0.96,-0.2
2.45560698700001,41,196.41,-102.6,5.9,-151.2,-0.43,0.52,0.15,0.1,-0.96,-0.2
2.4656107739997424,42,196.42,-102.6,5.9,-151.2,-0.47,0.52,0.17,0.1,-0.96,-0.2
2.475297463000061,43,196.43,-102.6,5.9,-151.1,-0.5,0.52,0.16,0.1,-0.96,-0.2
2.4854451979999794,44,196.44,-102.7,5.9,-151.1,-0.5,0.52,0.15,0.1,-0.96,-0.2
2.49563582699966,45,196.45,-102.7,5.9,-151.0,-0.52,0.52,0.13,0.1,-0.96,-0.2
2.5052906860000803,46,196.46,-102.8,5.9,-151.0,-0.56,0.5,0.11,0.09,-0.97,-0.21
2.515606535999723,47,196.47,-102.8,5.9,-150.9,-0.57,0.5,0.09,0.09,-0.97,-0.22
2.5255969579998236,48,196.48,-102.9,5.9,-150.9,-0.52,0.48,0.07,0.09,-0.98,-0.21
2.535279031999835,49,196.49,-102.9,5.9,-150.8,-0.43,0.43,0.05,0.09,-0.98,-0.21
2.5456502580000233,50,196.5,-102.9,5.9,-150.8,-0.35,0.35,0.05,0.09,-0.98,-0.21
2.5554464189999635,51,196.51,-103.0,5.9,-150.7,-0.3,0.27,0.04,0.09,-0.98,-0.21
2.5652639350000754,52,196.52,-103.0,5.9,-150.7,-0.25,0.22,0.03,0.09,-0.97,-0.22
2.5756191420000505,53,196.53,-103.0,5.9,-150.7,-0.23,0.18,0.03,0.1,-0.97,-0.21
2.585416887000065,54,196.54,-103.0,5.9,-150.7,-0.25,0.14,0.02,0.1,-0.97,-0.22
2.5953854539998247,55,196.55,-103.0,5.9,-150.7,-0.28,0.13,0.02,0.1,-0.97,-0.22
2.6056162159998166,56,196.56,-103.1,5.9,-150.6,-0.29,0.08,0.01,0.1,-0.97,-0.22
2.615439101999982,57,196.57,-103.1,5.9,-150.6,-0.28,0.03,0.01,0.1,-0.98,-0.22
2.625291319000098,58,196.58,-103.1,5.9,-150.6,-0.23,0.0,0.01,0.1,-0.98,-0.23
2.635366791999786,59,196.59,-103.1,5.9,-150.6,-0.17,-0.02,0.01,0.09,-0.98,-0.23
2.6456259560000035,60,196.6,-103.1,5.9,-150.6,-0.09,-0.05,0.0,0.09,-0.98,-0.23
2.6553123969997614,61,196.61,-103.2,5.9,-150.6,-0.01,-0.08,0.0,0.09,-0.98,-0.22
2.665247236999676,62,196.62,-103.2,5.9,-150.7,0.03,-0.13,-0.03,0.09,-0.97,-0.22
2.675607086999662,63,196.63,-103.1,5.9,-150.7,0.03,-0.19,-0.04,0.08,-0.97,-0.21
2.685335575999943,64,196.64,-103.1,5.9,-150.7,0.0,-0.3,-0.05,0.09,-0.97,-0.21
2.695287401999849,65,196.65,-103.1,5.9,-150.7,0.0,-0.35,-0.06,0.09,-0.96,-0.21
2.70539004200009,66,196.66,-103.1,5.8,-150.8,0.0,-0.38,-0.05,0.1,-0.96,-0.22
2.7155731819998437,67,196.67,-103.1,5.8,-150.8,0.0,-0.39,-0.04,0.1,-0.96,-0.22
2.725352819999898,68,196.68,-103.1,5.8,-150.9,-0.02,-0.41,-0.02,0.1,-0.96,-0.22
2.735389398999814,69,196.69,-103.2,5.8,-150.9,-0.07,-0.41,-0.02,0.1,-0.96,-0.22
2.7454910579999705,70,196.7,-103.2,5.8,-150.9,-0.09,-0.42,-0.02,0.1,-0.96,-0.22
2.7552988369998275,71,196.71,-103.2,5.8,-151.0,-0.11,-0.43,-0.02,0.1,-0.96,-0.22
2.7654208859999017,72,196.72,-103.2,5.8,-151.0,-0.06,-0.42,-0.02,0.1,-0.96,-0.22
2.7755801829998745,73,196.73,-103.2,5.8,-151.1,-0.05,-0.41,-0.01,0.1,-0.96,-0.23
2.785296170000038,74,196.74,-103.2,5.8,-151.1,-0.05,-0.38,-0.01,0.1,-0.96,-0.23
2.795585134999783,75,196.75,-103.2,5.8,-151.1,-0.1,-0.35,-0.02,0.1,-0.96,-0.22
2.8053849249999985,76,196.76,-103.3,5.8,-151.2,-0.12,-0.28,-0.03,0.1,-0.96,-0.23
2.8153919960000167,77,196.77,-103.3,5.8,-151.2,-0.14,-0.24,-0.04,0.1,-0.96,-0.22
2.825532440999723,78,196.78,-103.3,5.8,-151.2,-0.15,-0.18,-0.05,0.1,-0.96,-0.22
2.8353994639996927,79,196.79,-103.3,5.8,-151.2,-0.16,-0.15,-0.05,0.1,-0.96,-0.23
2.8453515149999475,80,196.8,-103.3,5.8,-151.2,-0.15,-0.1,-0.07,0.1,-0.96,-0.23
2.8553059989999383,81,196.81,-103.3,5.8,-151.3,-0.14,-0.05,-0.07,0.1,-0.97,-0.23
2.8653695009998046,82,196.82,-103.4,5.8,-151.3,-0.12,-0.01,-0.07,0.1,-0.97,-0.23
2.8752727789997152,83,196.83,-103.4,5.8,-151.3,-0.1,0.0,-0.06,0.1,-0.97,-0.23
2.8856214929996895,84,196.84,-103.4,5.8,-151.3,-0.08,0.02,-0.05,0.09,-0.97,-0.23
2.895429206999779,85,196.85,-103.4,5.8,-151.3,-0.03,0.03,-0.05,0.1,-0.97,-0.23
2.905276554000011,86,196.86,-103.4,5.8,-151.3,0.01,0.02,-0.05,0.1,-0.97,-0.23
2.915425192999919,87,196.87,-103.4,5.8,-151.3,0.03,0.02,-0.04,0.1,-0.97,-0.23
2.9254030349998175,88,196.88,-103.4,5.8,-151.3,0.0,0.0,0.0,0.1,-0.97,-0.23
2.9353196379997826,89,196.89,-103.4,5.8,-151.3,0.01,0.03,0.0,0.1,-0.97,-0.23
2.9453742820001025,90,196.9,-103.4,5.8,-151.3,0.0,0.05,0.0,0.1,-0.97,-0.23
2.955416709000019,91,196.91,-103.4,5.8,-151.2,0.0,0.07,0.02,0.1,-0.97,-0.23
2.9653398199998264,92,196.92,-103.4,5.8,-151.2,0.03,0.08,0.02,0.1,-0.97,-0.23
2.975474969000061,93,196.93,-103.4,5.8,-151.2,0.07,0.08,0.02,0.09,-0.97,-0.23
2.985416933999659,94,196.94,-103.4,5.8,-151.2,0.13,0.08,0.02,0.09,-0.97,-0.23
2.9954296999999315,95,196.95,-103.4,5.8,-151.2,0.15,0.07,0.03,0.09,-0.97,-0.23
3.0052281509997556,96,196.96,-103.3,5.8,-151.2,0.14,0.07,0.02,0.1,-0.97,-0.23
3.015411560999837,97,196.97,-103.3,5.8,-151.2,0.14,0.07,0.02,0.1,-0.97,-0.23
3.025445433999721,98,196.98,-103.3,5.8,-151.2,0.15,0.08,0.02,0.1,-0.97,-0.23
3.035307954000018,99,196.99,-103.3,5.8,-151.2,0.18,0.07,0.02,0.1,-0.97,-0.23
3.0454376429997865,100,197.0,-103.3,5.8,-151.2,0.23,0.05,0.02,0.1,-0.97,-0.23
3.0553888459999143,101,197.01,-103.3,5.8,-151.2,0.29,0.04,0.02,0.1,-0.97,-0.23
3.0654001029997744,102,197.02,-103.2,5.8,-151.2,0.34,0.03,0.02,0.1,-0.97,-0.23
3.075496194999687,103,197.03,-103.2,5.8,-151.2,0.37,0.01,0.03,0.1,-0.96,-0.22
3.08534913099993,104,197.04,-103.1,5.8,-151.2,0.36,0.0,0.03,0.1,-0.96,-0.22
3.095359014999758,105,197.05,-103.1,5.8,-151.2,0.35,-0.01,0.03,0.1,-0.96,-0.23
3.1054550359999666,106,197.06,-103.1,5.8,-151.2,0.32,0.0,0.04,0.1,-0.96,-0.23
3.1154754939998384,107,197.07,-103.1,5.8,-151.2,0.32,0.01,0.03,0.11,-0.96,-0.23
3.1253768199999286,108,197.08,-103.0,5.8,-151.2,0.36,0.03,0.01,0.11,-0.96,-0.23
3.135468852000031,109,197.09,-103.0,5.8,-151.2,0.39,0.05,0.0,0.11,-0.96,-0.22
3.145449026999813,110,197.1,-103.0,5.8,-151.1,0.37,0.07,-0.01,0.11,-0.96,-0.22
3.1553561779996926,111,197.11,-102.9,5.8,-151.1,0.32,0.07,-0.03,0.1,-0.96,-0.22
3.1654491589997633,112,197.12,-102.9,5.9,-151.1,0.29,0.07,-0.04,0.1,-0.95,-0.21
3.1754564399998344,113,197.13,-102.9,5.9,-151.1,0.24,0.05,-0.04,0.1,-0.95,-0.22
3.1852795810000316,114,197.14,-102.8,5.9,-151.1,0.2,0.05,-0.03,0.1,-0.95,-0.22
3.195401710999704,115,197.15,-102.8,5.9,-151.1,0.16,0.08,-0.05,0.1,-0.95,-0.22
3.2054648149996865,116,197.16,-102.8,5.9,-151.1,0.13,0.1,-0.06,0.1,-0.96,-0.23
3.2152767329998824,117,197.17,-102.8,5.9,-151.1,0.11,0.12,-0.06,0.1,-0.96,-0.22
3.2253782759999012,118,197.18,-102.8,5.9,-151.1,0.11,0.11,-0.06,0.1,-0.96,-0.22
3.2353705169998648,119,197.19,-102.8,5.9,-151.1,0.12,0.1,-0.06,0.1,-0.96,-0.22
3.24535458299988,120,197.2,-102.8,5.9,-151.1,0.09,0.1,-0.06,0.1,-0.96,-0.22
3.2552733219999936,121,197.21,-102.8,5.9,-151.1,0.07,0.09,-0.05,0.1,-0.96,-0.22
3.2654971100000694,122,197.22,-102.8,5.9,-151.1,0.04,0.1,-0.05,0.1,-0.96,-0.22
3.275442842999837,123,197.23,-102.8,5.9,-151.0,0.02,0.09,-0.05,0.09,-0.96,-0.22
3.2854534180000883,124,197.24,-102.8,5.9,-151.0,0.0,0.06,-0.05,0.09,-0.96,-0.22
3.295467808000012,125,197.25,-102.8,6.0,-151.0,-0.01,0.03,-0.06,0.09,-0.96,-0.21
3.305450022000059,126,197.26,-102.8,6.0,-151.0,-0.01,0.0,-0.06,0.09,-0.96,-0.21
3.315384611999889,127,197.27,-102.8,6.0,-151.0,-0.01,-0.02,-0.06,0.09,-0.96,-0.22
3.3254571849997774,128,197.28,-102.8,6.0,-151.0,-0.02,-0.03,-0.06,0.09,-0.96,-0.22
3.3354618769999433,129,197.29,-102.8,6.0,-151.0,-0.04,-0.01,-0.07,0.1,-0.96,-0.22
3.345352011999694,130,197.3,-102.8,6.0,-151.1,-0.08,0.0,-0.07,0.1,-0.96,-0.22
3.3553845480000746,131,197.31,-102.8,6.0,-151.1,-0.14,0.05,-0.07,0.1,-0.96,-0.22
3.365396244999829,132,197.32,-102.8,6.0,-151.0,-0.15,0.08,-0.1,0.1,-0.96,-0.22
3.37538173799976,133,197.33,-102.8,6.0,-151.0,-0.15,0.12,-0.1,0.1,-0.97,-0.22
3.3854044209997483,134,197.34,-102.8,6.0,-151.0,-0.15,0.15,-0.1,0.1,-0.96,-0.22
3.3953958189999867,135,197.35,-102.9,6.0,-151.0,-0.17,0.18,-0.09,0.11,-0.96,-0.22
3.4054151309996996,136,197.36,-102.9,6.0,-151.0,-0.2,0.21,-0.04,0.1,-0.96,-0.22
3.4154388279998784,137,197.37,-102.9,6.1,-151.0,-0.24,0.24,0.0,0.1,-0.96,-0.22
3.4253872459999,138,197.38,-102.9,6.1,-150.9,-0.3,0.27,0.07,0.1,-0.97,-0.22
3.435339381999711,139,197.39,-103.0,6.0,-150.9,-0.36,0.28,0.13,0.1,-0.97,-0.21
3.445455120999668,140,197.4,-103.0,6.0,-150.9,-0.37,0.3,0.16,0.11,-0.98,-0.21
3.455472523000026,141,197.41,-103.0,6.0,-150.8,-0.37,0.3,0.21,0.1,-0.98,-0.21
3.4652799169998616,142,197.42,-103.0,6.0,-150.8,-0.37,0.3,0.27,0.1,-0.98,-0.21
3.475418564999927,143,197.43,-103.1,6.0,-150.8,-0.29,0.28,0.3,0.1,-0.98,-0.21
3.48536308499979,144,197.44,-103.1,6.0,-150.7,-0.21,0.28,0.33,0.09,-0.98,-0.21
3.4953332840000257,145,197.45,-103.1,5.9,-150.7,-0.13,0.27,0.34,0.08,-0.99,-0.21
3.5054671230000167,146,197.46,-103.1,5.9,-150.7,-0.04,0.29,0.34,0.07,-0.98,-0.21
3.515388102000088,147,197.47,-103.1,5.8,-150.6,-0.03,0.28,0.36,0.06,-0.99,-0.2
3.5252978630001053,148,197.48,-103.0,5.8,-150.6,-0.03,0.25,0.37,0.06,-0.99,-0.2
3.535346405999917,149,197.49,-103.0,5.7,-150.6,0.02,0.21,0.37,0.05,-1.0,-0.2
3.545436213999892,150,197.5,-103.0,5.7,-150.5,0.2,0.15,0.37,0.05,-0.99,-0.19
3.5552645949996986,151,197.51,-102.9,5.6,-150.5,0.38,0.04,0.39,0.05,-0.98,-0.19
3.565331349999724,152,197.52,-102.9,5.6,-150.5,0.52,-0.06,0.39,0.05,-0.97,-0.2
3.575423867999689,153,197.53,-102.8,5.5,-150.5,0.56,-0.13,0.39,0.04,-0.96,-0.21
3.5853539310000997,154,197.54,-102.8,5.4,-150.5,0.47,-0.14,0.38,0.04,-0.95,-0.21
3.595301513999857,155,197.55,-102.7,5.4,-150.5,0.34,-0.12,0.36,0.04,-0.95,-0.21
3.605435825999848,156,197.56,-102.7,5.3,-150.5,0.2,-0.09,0.33,0.05,-0.96,-0.22
3.6154115139997884,157,197.57,-102.7,5.2,-150.5,0.09,-0.08,0.3,0.05,-0.98,-0.22
3.6253716659998645,158,197.58,-102.7,5.2,-150.5,0.08,-0.12,0.29,0.06,-0.99,-0.22
3.635385002000021,159,197.59,-102.7,5.1,-150.5,0.17,-0.17,0.28,0.08,-1.01,-0.23
3.6454009369999767,160,197.6,-102.6,5.1,-150.5,0.38,-0.24,0.25,0.09,-1.0,-0.23
3.6553295089997846,161,197.61,-102.6,5.1,-150.6,0.55,-0.27,0.26,0.09,-1.0,-0.23
3.665455355999711,162,197.62,-102.6,5.1,-150.6,0.7,-0.26,0.25,0.09,-0.99,-0.23
3.675429346999863,163,197.63,-102.5,5.0,-150.6,0.78,-0.2,0.21,0.08,-0.97,-0.23
3.685323455999878,164,197.64,-102.4,5.0,-150.6,0.78,-0.13,0.15,0.07,-0.96,-0.22
3.6954799879999882,165,197.65,-102.4,5.0,-150.6,0.73,-0.07,0.07,0.07,-0.94,-0.22
3.7054427909997685,166,197.66,-102.3,5.0,-150.6,0.67,-0.03,-0.01,0.06,-0.93,-0.21
3.7153251209997507,167,197.67,-102.2,5.0,-150.6,0.55,-0.01,-0.08,0.06,-0.94,-0.21
3.7254716560000816,168,197.68,-102.2,5.0,-150.6,0.36,-0.08,-0.17,0.06,-0.95,-0.2
3.7353914400000576,169,197.69,-102.2,5.0,-150.6,0.36,0.0,-0.24,0.06,-0.97,-0.22
3.7452505940000265,170,197.7,-102.1,5.0,-150.7,0.39,0.0,-0.29,0.06,-0.98,-0.22
3.7553930969997964,171,197.71,-102.1,5.0,-150.7,0.48,0.03,-0.29,0.06,-0.98,-0.21
3.7654540549997364,172,197.72,-102.0,5.0,-150.7,0.64,0.0,-0.3,0.06,-0.98,-0.2
3.7752560209996773,173,197.73,-102.0,5.0,-150.7,0.69,-0.09,-0.32,0.06,-0.97,-0.2
3.785344234999684,174,197.74,-101.9,5.1,-150.7,0.63,-0.18,-0.36,0.06,-0.96,-0.2
3.7954778180001085,175,197.75,-101.8,5.1,-150.7,0.49,-0.25,-0.39,0.06,-0.95,-0.2
3.8052918039998076,176,197.76,-101.8,5.1,-150.8,0.38,-0.32,-0.41,0.06,-0.95,-0.21
3.815452902999823,177,197.77,-101.8,5.1,-150.8,0.32,-0.37,-0.46,0.06,-0.96,-0.21
3.825445123999998,178,197.78,-101.8,5.1,-150.9,0.29,-0.42,-0.5,0.05,-0.96,-0.22
3.8353727179996895,179,197.79,-101.8,5.2,-150.9,0.29,-0.47,-0.52,0.05,-0.97,-0.22
3.8452836559999923,180,197.8,-101.8,5.2,-151.0,0.29,-0.54,-0.58,0.05,-0.97,-0.22
3.855390570000054,181,197.81,-101.7,5.2,-151.0,0.3,-0.58,-0.63,0.05,-0.97,-0.22
3.8653462610000133,182,197.82,-101.7,5.2,-151.1,0.28,-0.63,-0.66,0.04,-0.97,-0.21
3.8752881840000555,183,197.83,-101.7,5.3,-151.2,0.27,-0.69,-0.69,0.04,-0.96,-0.2
3.885417374000099,184,197.84,-101.7,5.3,-151.3,0.18,-0.79,-0.68,0.04,-0.96,-0.19
3.895465692000016,185,197.85,-101.7,5.3,-151.4,-0.06,-0.96,-0.66,0.05,-0.97,-0.17
3.9053168039999946,186,197.86,-101.7,5.3,-151.5,-0.17,-1.05,-0.58,0.08,-0.99,-0.18
3.9154202259996964,187,197.87,-101.7,5.4,-151.6,-0.41,-1.11,-0.38,0.12,-1.02,-0.17
3.925482314999954,188,197.88,-101.8,5.4,-151.7,-0.61,-1.09,-0.03,0.18,-1.07,-0.18
3.9352800769997884,189,197.89,-101.8,5.4,-151.8,-0.43,-0.96,0.33,0.23,-1.12,-0.21
3.945451908999985,190,197.9,-101.8,5.4,-151.9,0.44,-0.58,0.62,0.24,-1.14,-0.25
3.9554011939999327,191,197.91,-101.7,5.4,-151.9,1.43,-0.25,0.89,0.22,-1.09,-0.22
3.965361853000104,192,197.92,-101.5,5.3,-151.9,2.48,0.21,1.0,0.16,-1.02,-0.22
3.9754472790000364,193,197.93,-101.3,5.3,-151.8,2.84,0.54,0.93,0.09,-0.94,-0.2
3.9853996379997625,194,197.94,-101.0,5.2,-151.8,2.3,0.75,0.74,0.03,-0.91,-0.17
3.995373832000041,195,197.95,-100.8,5.1,-151.7,1.25,0.73,0.55,-0.01,-0.9,-0.14
4.0054367799998545,196,197.96,-100.7,5.1,-151.6,0.06,0.55,0.41,-0.05,-0.91,-0.14
4.015420967999944,197,197.97,-100.8,5.0,-151.5,-0.58,0.39,0.41,-0.08,-0.96,-0.14
4.025221512999906,198,197.98,-100.8,5.0,-151.5,-0.41,0.06,0.4,-0.09,-1.02,-0.12
4.035424886999863,199,197.99,-100.8,4.9,-151.5,0.14,-0.32,0.55,-0.08,-1.03,-0.12
4.0454436449999776,200,198.0,-100.8,4.9,-151.6,0.71,-0.74,0.68,-0.06,-1.04,-0.12
4.055254363999666,201,198.01,-100.7,4.8,-151.6,1.07,-1.16,0.78,-0.02,-1.02,-0.11
4.0653140419999545,202,198.02,-100.6,4.7,-151.8,1.25,-1.54,0.82,0.01,-1.01,-0.11
4.075394787999812,203,198.03,-100.4,4.5,-151.9,1.33,-1.8,0.83,0.05,-1.0,-0.12
4.085332871999981,204,198.04,-100.3,4.4,-152.1,1.26,-1.92,0.85,0.07,-0.98,-0.13
4.095370719999664,205,198.05,-100.2,4.3,-152.3,1.14,-1.96,0.83,0.07,-0.98,-0.14
4.1054246909998255,206,198.06,-100.0,4.2,-152.4,1.17,-1.92,0.73,0.06,-0.98,-0.14
4.115290252999785,207,198.07,-99.9,4.1,-152.6,1.29,-2.01,0.45,0.05,-0.98,-0.13
4.125344373999724,208,198.08,-99.8,4.0,-152.8,1.31,-2.18,0.08,0.04,-0.96,-0.11
4.135355209999943,209,198.09,-99.6,3.9,-153.0,1.16,-2.36,-0.27,0.02,-0.94,-0.11
4.145393445000082,210,198.1,-99.5,3.9,-153.3,0.71,-2.63,-0.52,0.0,-0.93,-0.1
4.155343005999839,211,198.11,-99.5,3.9,-153.6,0.22,-2.85,-0.58,0.0,-0.93,-0.1
4.165454964999753,212,198.12,-99.4,3.9,-153.9,0.2,-3.04,-0.54,0.01,-0.96,-0.11
4.175416971999766,213,198.13,-99.4,3.8,-154.2,0.56,-3.2,-0.47,0.02,-0.97,-0.12
4.18515305999972,214,198.14,-99.3,3.8,-154.5,0.95,-3.19,-0.32,0.04,-0.97,-0.17
4.195450344999699,215,198.15,-99.3,3.8,-154.8,1.15,-3.2,-0.19,0.07,-0.98,-0.15
4.205422485999861,216,198.16,-99.1,3.7,-155.2,1.35,-3.21,-0.13,0.09,-0.98,-0.14
4.215276853999967,217,198.17,-99.0,3.7,-155.5,1.44,-3.22,-0.11,0.11,-0.97,-0.14
4.225427215999844,218,198.18,-98.9,3.7,-155.8,1.49,-3.18,-0.12,0.13,-0.96,-0.15
4.235416903999976,219,198.19,-98.8,3.7,-156.1,1.45,-3.05,-0.12,0.14,-0.96,-0.16
4.245204046999788,220,198.2,-98.7,3.7,-156.4,1.35,-2.94,-0.17,0.14,-0.96,-0.15
4.255330627999683,221,198.21,-98.6,3.8,-156.7,1.31,-2.81,-0.27,0.14,-0.96,-0.16
4.265479770999718,222,198.22,-98.5,3.8,-157.0,1.19,-2.66,-0.34,0.12,-0.95,-0.16
4.275353041000017,223,198.23,-98.4,3.8,-157.2,1.04,-2.62,-0.37,0.11,-0.96,-0.14
4.2853434529997685,224,198.24,-98.3,3.8,-157.5,0.94,-2.58,-0.36,0.1,-0.96,-0.14
4.295393758000046,225,198.25,-98.2,3.9,-157.8,1.05,-2.56,-0.37,0.09,-0.97,-0.15
4.305314401000032,226,198.26,-98.1,3.9,-158.0,1.2,-2.51,-0.37,0.08,-0.96,-0.15
4.31544656899996,227,198.27,-98.0,3.9,-158.3,1.32,-2.46,-0.36,0.09,-0.96,-0.15
4.325458323000021,228,198.28,-97.9,3.9,-158.5,1.34,-2.41,-0.36,0.09,-0.95,-0.15
4.335300132999691,229,198.29,-97.8,3.9,-158.8,1.27,-2.4,-0.35,0.1,-0.95,-0.14
4.345492411999658,230,198.3,-97.7,4.0,-159.0,1.21,-2.4,-0.33,0.1,-0.95,-0.15
4.355328689000089,231,198.31,-97.6,4.0,-159.3,1.15,-2.38,-0.31,0.11,-0.95,-0.15
4.36533432799979,232,198.32,-97.5,4.0,-159.5,1.09,-2.35,-0.3,0.12,-0.96,-0.16
4.375318355999752,233,198.33,-97.5,4.1,-159.7,1.02,-2.31,-0.29,0.13,-0.95,-0.18
4.3854374769998685,234,198.34,-97.4,4.1,-160.0,0.85,-2.18,-0.24,0.14,-0.96,-0.19
4.39526312299995,235,198.35,-97.4,4.1,-160.2,0.61,-2.02,-0.21,0.14,-0.99,-0.2
4.405446019999999,236,198.36,-97.4,4.2,-160.4,0.37,-1.82,-0.25,0.14,-1.02,-0.2
4.415476725999724,237,198.37,-97.4,4.2,-160.6,0.21,-1.66,-0.36,0.13,-1.05,-0.19
4.425302695000028,238,198.38,-97.5,4.2,-160.7,-0.05,-1.54,-0.52,0.11,-1.09,-0.16
4.435344943000018,239,198.39,-97.5,4.3,-160.9,-0.12,-1.5,-0.73,0.1,-1.09,-0.15
4.4454482729997835,240,198.4,-97.5,4.4,-161.0,-0.01,-1.53,-0.89,0.1,-1.08,-0.15
4.45533694300002,241,198.41,-97.5,4.5,-161.2,0.17,-1.54,-0.97,0.09,-1.06,-0.15
4.465332909999688,242,198.42,-97.5,4.5,-161.4,0.48,-1.55,-1.01,0.09,-1.04,-0.15
4.4754234930001076,243,198.43,-97.5,4.6,-161.5,0.64,-1.51,-1.05,0.08,-1.03,-0.16
4.485383757999898,244,198.44,-97.5,4.7,-161.7,0.64,-1.44,-1.1,0.09,-1.02,-0.15
4.495378365999841,245,198.45,-97.4,4.8,-161.9,0.61,-1.43,-1.16,0.1,-1.01,-0.13
4.505460001999836,246,198.46,-97.4,4.9,-162.0,0.62,-1.48,-1.25,0.1,-1.01,-0.12
4.51543490999984,247,198.47,-97.3,5.0,-162.2,0.7,-1.54,-1.34,0.11,-1.0,-0.12
4.525301766999746,248,198.48,-97.2,5.2,-162.4,0.79,-1.66,-1.4,0.12,-0.99,-0.11
4.535260943999674,249,198.49,-97.2,5.3,-162.6,0.9,-1.74,-1.45,0.12,-0.98,-0.12
4.545482286999686,250,198.5,-97.1,5.5,-162.8,1.01,-1.82,-1.47,0.13,-0.97,-0.11
4.555352998999751,251,198.51,-97.0,5.6,-163.0,1.16,-1.9,-1.44,0.14,-0.95,-0.11
4.5654137139999875,252,198.52,-96.9,5.8,-163.2,1.3,-1.97,-1.36,0.14,-0.94,-0.12
4.575468102999821,253,198.53,-96.8,5.9,-163.4,1.4,-1.97,-1.26,0.15,-0.92,-0.13
4.585267310999825,254,198.54,-96.7,6.0,-163.6,1.35,-1.9,-1.17,0.16,-0.92,-0.14
4.595451830000002,255,198.55,-96.6,6.2,-163.8,1.16,-1.78,-1.16,0.16,-0.93,-0.15
4.605438997999954,256,198.56,-96.6,6.3,-164.0,0.89,-1.66,-1.19,0.16,-0.95,-0.14
4.615351464000014,257,198.57,-96.5,6.4,-164.2,0.67,-1.57,-1.23,0.15,-0.96,-0.12
4.625479081999856,258,198.58,-96.5,6.6,-164.3,0.56,-1.54,-1.26,0.15,-0.97,-0.11
4.6352985859998626,259,198.59,-96.5,6.7,-164.5,0.52,-1.51,-1.23,0.13,-0.98,-0.11
4.64518036499976,260,198.6,-96.4,6.8,-164.7,0.58,-1.57,-1.22,0.13,-0.99,-0.1
4.655491166000047,261,198.61,-96.4,6.9,-164.8,0.76,-1.63,-1.19,0.12,-0.99,-0.09
4.665387882999767,262,198.62,-96.3,7.0,-165.0,1.0,-1.74,-1.14,0.12,-0.99,-0.09
4.6752841809998245,263,198.63,-96.2,7.1,-165.2,1.23,-1.81,-1.05,0.12,-0.97,-0.09
4.685238417999699,264,198.64,-96.1,7.2,-165.4,1.35,-1.89,-0.97,0.11,-0.96,-0.09
4.695429317999697,265,198.65,-96.0,7.2,-165.6,1.36,-1.92,-0.87,0.12,-0.96,-0.1
4.705391469999995,266,198.66,-95.9,7.3,-165.8,1.32,-1.94,-0.82,0.12,-0.97,-0.1
4.715360978999797,267,198.67,-95.8,7.4,-166.0,1.28,-1.9,-0.83,0.13,-0.99,-0.1
4.72546632500007,268,198.68,-95.7,7.4,-166.2,1.26,-1.87,-0.89,0.13,-0.99,-0.1
4.7354186909997225,269,198.69,-95.6,7.5,-166.4,1.28,-1.84,-0.95,0.14,-1.0,-0.1
4.7454018579996955,270,198.7,-95.5,7.6,-166.6,1.37,-1.81,-0.99,0.15,-0.99,-0.1
4.75545090300011,271,198.71,-95.3,7.7,-166.8,1.41,-1.79,-1.01,0.15,-0.98,-0.1
4.765388311999686,272,198.72,-95.2,7.8,-167.0,1.39,-1.71,-0.99,0.16,-0.97,-0.11
4.775355389999731,273,198.73,-95.1,7.9,-167.2,1.33,-1.59,-0.98,0.17,-0.96,-0.11
4.785432275999938,274,198.74,-95.1,8.0,-167.3,1.2,-1.47,-0.97,0.17,-0.96,-0.12
4.795625325999936,275,198.75,-95.0,8.1,-167.5,1.05,-1.3,-0.97,0.18,-0.96,-0.13
4.8051762239997515,276,198.76,-94.9,8.2,-167.6,0.95,-1.16,-0.99,0.18,-0.96,-0.12
4.815606787999968,277,198.77,-94.9,8.3,-167.7,0.89,-1.04,-1.01,0.18,-0.97,-0.11
4.825625132999903,278,198.78,-94.8,8.5,-167.8,0.85,-0.97,-1.0,0.17,-0.97,-0.11
4.835421434999716,279,198.79,-94.8,8.6,-168.0,0.83,-0.94,-0.99,0.16,-0.97,-0.1
4.845412830999976,280,198.8,-94.7,8.7,-168.1,0.89,-0.94,-0.97,0.16,-0.96,-0.1
4.8554433859999335,281,198.81,-94.7,8.8,-168.2,0.97,-0.93,-0.93,0.16,-0.96,-0.1
4.86534705799977,282,198.82,-94.6,8.8,-168.3,1.01,-0.92,-0.86,0.16,-0.95,-0.1
4.8755955130000075,283,198.83,-94.5,8.9,-168.4,0.95,-0.88,-0.78,0.16,-0.94,-0.1
4.8854004119998535,284,198.84,-94.5,9.0,-168.5,0.92,-0.86,-0.7,0.17,-0.93,-0.11
4.895386426999721,285,198.85,-94.4,9.1,-168.6,1.14,-0.84,-0.55,0.24,-0.89,-0.15
4.905268948999947,286,198.86,-94.3,9.1,-168.6,1.0,-0.57,-0.42,0.21,-0.94,-0.15
4.915442023999731,287,198.87,-94.3,9.2,-168.7,0.46,-0.39,-0.45,0.15,-0.96,-0.12
4.925155809999978,288,198.88,-94.3,9.2,-168.7,0.25,-0.17,-0.36,0.19,-0.95,-0.13
4.9354186789996675,289,198.89,-94.3,9.3,-168.8,0.47,-0.13,-0.27,0.21,-0.96,-0.13
4.945627218000027,290,198.9,-94.3,9.3,-168.8,0.56,0.06,-0.13,0.2,-0.97,-0.14
4.955301088999931,291,198.91,-94.3,9.4,-168.8,0.45,0.26,-0.1,0.19,-0.98,-0.15
4.965301561999695,292,198.92,-94.3,9.4,-168.7,0.33,0.48,-0.12,0.18,-0.97,-0.15
4.975607167999897,293,198.93,-94.3,9.4,-168.7,0.39,0.6,-0.14,0.19,-0.94,-0.14
4.985510776999945,294,198.94,-94.2,9.5,-168.6,0.33,0.72,-0.11,0.19,-0.92,-0.14
4.995142767999823,295,198.95,-94.3,9.5,-168.5,0.07,0.86,-0.05,0.19,-0.92,-0.12
5.00541614299982,296,198.96,-94.3,9.5,-168.4,-0.18,1.02,0.02,0.17,-0.93,-0.12
5.015407670000059,297,198.97,-94.3,9.5,-168.3,-0.22,1.1,0.12,0.17,-0.94,-0.11
5.025545573999807,298,198.98,-94.3,9.5,-168.2,-0.11,1.14,0.26,0.17,-0.95,-0.11
5.0352795759999935,299,198.99,-94.3,9.5,-168.1,0.02,1.15,0.29,0.17,-0.96,-0.11
5.0454173479997735,300,199.0,-94.3,9.5,-168.0,0.03,1.14,0.31,0.17,-0.96,-0.11
5.055353881999963,301,199.01,-94.3,9.5,-167.9,0.0,1.12,0.34,0.16,-0.95,-0.1
5.065483024000059,302,199.02,-94.3,9.5,-167.8,-0.06,1.07,0.38,0.16,-0.95,-0.1
5.075511276999805,303,199.03,-94.4,9.4,-167.7,-0.08,1.09,0.47,0.16,-0.94,-0.11
5.08539835900001,304,199.04,-94.4,9.4,-167.6,-0.13,1.1,0.55,0.16,-0.95,-0.1
5.095646618000046,305,199.05,-94.4,9.3,-167.4,-0.23,1.07,0.61,0.16,-0.96,-0.09
5.105425089999699,306,199.06,-94.4,9.3,-167.3,-0.29,1.04,0.67,0.16,-0.97,-0.09
5.1154480749996765,307,199.07,-94.4,9.2,-167.2,-0.26,0.98,0.7,0.15,-0.98,-0.08
5.1254438139999365,308,199.08,-94.4,9.2,-167.1,-0.15,0.9,0.76,0.16,-0.98,-0.07
5.135280547000093,309,199.09,-94.4,9.1,-167.0,-0.01,0.85,0.82,0.16,-0.96,-0.08
5.145317176999924,310,199.1,-94.4,9.0,-166.9,-0.04,0.82,0.9,0.16,-0.96,-0.08
5.15549814499991,311,199.11,-94.4,8.9,-166.8,-0.17,0.84,0.93,0.16,-0.96,-0.08
5.165456214999722,312,199.12,-94.4,8.9,-166.8,-0.25,0.87,0.97,0.16,-0.95,-0.09
5.175288623999677,313,199.13,-94.5,8.8,-166.7,-0.4,0.92,1.0,0.16,-0.96,-0.09
5.185521743999743,314,199.14,-94.5,8.7,-166.6,-0.46,0.98,1.03,0.16,-0.96,-0.1
5.1954727329998605,315,199.15,-94.5,8.6,-166.4,-0.52,1.04,1.04,0.18,-0.96,-0.1
5.205186579999918,316,199.16,-94.6,8.5,-166.3,-0.52,1.15,1.05,0.19,-0.95,-0.1
5.215442208999775,317,199.17,-94.6,8.5,-166.2,-0.56,1.27,1.09,0.2,-0.94,-0.11
5.225508047999938,318,199.18,-94.7,8.4,-166.1,-0.63,1.4,1.16,0.2,-0.94,-0.11
5.235347506999915,319,199.19,-94.8,8.3,-165.9,-0.72,1.55,1.24,0.2,-0.93,-0.11
5.2454569090000405,320,199.2,-94.8,8.3,-165.7,-0.89,1.69,1.3,0.2,-0.94,-0.11
5.255453495999973,321,199.21,-94.9,8.2,-165.5,-1.07,1.82,1.32,0.18,-0.95,-0.11
5.2654049799998575,322,199.22,-95.0,8.1,-165.3,-1.23,1.85,1.33,0.16,-0.95,-0.09
5.275230814999759,323,199.23,-95.1,8.0,-165.2,-1.28,1.8,1.39,0.15,-0.96,-0.09
5.28543293499979,324,199.24,-95.2,7.9,-165.0,-1.26,1.72,1.44,0.14,-0.96,-0.08
5.295450117999735,325,199.25,-95.3,7.7,-164.8,-1.24,1.63,1.52,0.12,-0.95,-0.08
5.305305554999904,326,199.26,-95.4,7.6,-164.6,-1.27,1.54,1.63,0.12,-0.94,-0.08
5.31547479899973,327,199.27,-95.6,7.4,-164.4,-1.32,1.47,1.75,0.13,-0.93,-0.09
5.325475017999906,328,199.28,-95.7,7.3,-164.3,-1.36,1.46,1.86,0.14,-0.93,-0.11
5.335297029999765,329,199.29,-95.8,7.1,-164.1,-1.45,1.52,1.95,0.14,-0.93,-0.11
5.3454907139998795,330,199.3,-96.0,6.9,-163.9,-1.51,1.62,2.01,0.14,-0.94,-0.11
5.355433884999911,331,199.31,-96.1,6.8,-163.7,-1.62,1.69,2.03,0.13,-0.95,-0.1
5.365330526999969,332,199.32,-96.2,6.6,-163.5,-1.75,1.74,2.07,0.13,-0.94,-0.1
5.375523922999946,333,199.33,-96.4,6.4,-163.3,-1.87,1.81,2.13,0.15,-0.95,-0.1
5.385468276999745,334,199.34,-96.6,6.3,-163.1,-1.95,1.89,2.19,0.16,-0.95,-0.12
5.395303194999997,335,199.35,-96.8,6.1,-162.9,-1.99,2.0,2.23,0.17,-0.95,-0.12
5.405452257999968,336,199.36,-96.9,5.9,-162.7,-1.94,2.08,2.28,0.17,-0.94,-0.13
5.415463154999998,337,199.37,-97.1,5.8,-162.4,-1.93,2.23,2.38,0.17,-0.94,-0.12
5.425419952000084,338,199.38,-97.3,5.6,-162.2,-1.94,2.32,2.46,0.16,-0.94,-0.12
5.43547744999978,339,199.39,-97.4,5.4,-161.9,-1.99,2.4,2.53,0.15,-0.94,-0.11
5.445479240999703,340,199.4,-97.6,5.2,-161.6,-1.93,2.38,2.58,0.14,-0.94,-0.11
5.4553522419996625,341,199.41,-97.8,5.1,-161.4,-1.92,2.36,2.63,0.14,-0.95,-0.1
5.465468007999789,342,199.42,-97.9,4.8,-161.1,-2.1,2.33,2.63,0.1,-0.98,-0.09
5.475380543000028,343,199.43,-98.1,4.6,-160.8,-2.24,2.31,2.62,0.1,-0.98,-0.1
5.4853217699997,344,199.44,-98.3,4.4,-160.6,-2.33,2.32,2.63,0.1,-1.01,-0.1
5.495421138999973,345,199.45,-98.5,4.2,-160.3,-2.4,2.33,2.56,0.1,-1.03,-0.09
5.505490860000009,346,199.46,-98.7,4.0,-160.0,-2.39,2.44,2.44,0.11,-1.06,-0.1
5.5153783969999495,347,199.47,-98.9,3.9,-159.7,-2.54,2.55,2.16,0.12,-1.14,-0.08
5.525460723999913,348,199.48,-99.1,3.7,-159.4,-2.96,2.6,1.64,0.11,-1.22,-0.05
5.535395651999806,349,199.49,-99.3,3.6,-159.1,-3.17,2.54,1.05,0.1,-1.21,-0.06
5.545389087999865,350,199.5,-99.5,3.6,-158.9,-2.96,2.48,0.64,0.09,-1.18,-0.06
5.55527332299971,351,199.51,-99.7,3.6,-158.6,-2.53,2.29,0.36,0.09,-1.14,-0.04
5.565476382999805,352,199.52,-100.0,3.6,-158.4,-2.08,2.04,0.19,0.09,-1.07,-0.05
5.5753831789998,353,199.53,-100.1,3.7,-158.2,-1.78,1.84,0.18,0.09,-1.0,-0.07
5.585388663999765,354,199.54,-100.2,3.7,-158.0,-1.54,1.71,0.3,0.1,-0.94,-0.09
5.595410307999828,355,199.55,-100.3,3.7,-157.9,-1.43,1.65,0.48,0.12,-0.91,-0.1
5.605392158000086,356,199.56,-100.4,3.7,-157.7,-1.51,1.67,0.68,0.12,-0.88,-0.13
5.6153013389998705,357,199.57,-100.5,3.7,-157.5,-1.72,1.76,0.92,0.12,-0.88,-0.14
5.62534337399984,358,199.58,-100.7,3.7,-157.3,-1.86,1.86,1.15,0.12,-0.89,-0.15
5.63533600799974,359,199.59,-100.9,3.6,-157.1,-2.03,1.99,1.36,0.11,-0.92,-0.15
5.645257464999759,360,199.6,-101.1,3.6,-156.9,-2.15,2.16,1.44,0.11,-0.96,-0.17
5.655474523000066,361,199.61,-101.3,3.5,-156.6,-2.09,2.35,1.43,0.11,-0.99,-0.18
5.665477043999999,362,199.62,-101.4,3.4,-156.3,-2.02,2.62,1.4,0.11,-1.01,-0.19
5.675308895999933,363,199.63,-101.6,3.4,-156.0,-1.79,2.92,1.35,0.11,-1.05,-0.2
5.6854113429999416,364,199.64,-101.7,3.3,-155.7,-1.51,3.14,1.24,0.09,-1.07,-0.19
5.695491288000085,365,199.65,-101.8,3.3,-155.3,-1.0,3.47,1.12,0.08,-1.07,-0.2
5.705423025000073,366,199.66,-101.9,3.3,-155.0,-0.61,3.74,0.95,0.06,-1.08,-0.19
5.715408883999771,367,199.67,-101.9,3.3,-154.6,-0.36,3.97,0.75,0.04,-1.06,-0.18
5.725518550999823,368,199.68,-101.9,3.3,-154.2,-0.15,4.16,0.52,0.02,-1.06,-0.16
5.735284543000034,369,199.69,-101.8,3.3,-153.7,0.09,4.29,0.3,0.01,-1.04,-0.17
5.7455138010000155,370,199.7,-101.7,3.4,-153.3,0.28,4.41,0.1,0.0,-1.03,-0.18
5.75546384900008,371,199.71,-101.7,3.4,-152.9,0.5,4.51,-0.08,-0.01,-1.02,-0.18
5.765322534000006,372,199.72,-101.6,3.5,-152.4,0.66,4.61,-0.23,-0.04,-1.0,-0.18
5.7755058949996965,373,199.73,-101.4,3.6,-152.0,0.83,4.61,-0.38,-0.06,-0.99,-0.15
5.785410656999829,374,199.74,-101.3,3.7,-151.5,1.05,4.51,-0.49,-0.08,-0.98,-0.12
5.795297560000108,375,199.75,-101.2,3.9,-151.1,1.28,4.33,-0.6,-0.11,-0.98,-0.1
5.805489296999895,376,199.76,-101.0,4.0,-150.7,1.54,4.09,-0.71,-0.12,-0.96,-0.09
5.815519283999947,377,199.77,-100.8,4.2,-150.3,1.59,3.84,-0.79,-0.12,-0.93,-0.09
5.8253366929998265,378,199.78,-100.6,4.3,-150.0,1.29,3.54,-0.8,-0.12,-0.93,-0.08
5.835351446000004,379,199.79,-100.5,4.4,-149.7,0.82,3.19,-0.78,-0.11,-0.94,-0.09
5.8455322449999585,380,199.8,-100.4,4.6,-149.4,0.51,2.88,-0.76,-0.09,-0.98,-0.12
5.855383901000096,381,199.81,-100.4,4.7,-149.1,0.24,2.67,-0.67,-0.09,-1.01,-0.16
5.865223767999851,382,199.82,-100.3,4.8,-148.9,0.22,2.43,-0.49,-0.08,-1.02,-0.18
5.875395530999867,383,199.83,-100.3,4.9,-148.7,0.38,2.19,-0.24,-0.08,-1.03,-0.2
5.885420630999761,384,199.84,-100.2,4.9,-148.4,0.81,2.09,-0.01,-0.08,-1.02,-0.22
5.8953446269997585,385,199.85,-100.1,5.0,-148.2,1.14,1.98,0.16,-0.08,-1.0,-0.22
5.905503374000091,386,199.86,-99.9,5.0,-148.1,1.31,1.87,0.25,-0.08,-0.98,-0.22
5.915467613999681,387,199.87,-99.8,5.0,-147.9,1.2,1.77,0.34,-0.07,-0.97,-0.23
5.925364096000067,388,199.88,-99.7,5.0,-147.7,0.92,1.65,0.44,-0.08,-0.97,-0.24
5.935482048999802,389,199.89,-99.6,4.9,-147.5,0.55,1.47,0.56,-0.09,-0.97,-0.25
5.945493324999916,390,199.9,-99.5,4.9,-147.4,0.27,1.32,0.66,-0.1,-0.98,-0.25
5.95527924299995,391,199.91,-99.5,4.8,-147.2,0.01,1.09,0.73,-0.11,-1.0,-0.24
5.965513967999868,392,199.92,-99.5,4.8,-147.1,-0.17,0.82,0.79,-0.12,-1.02,-0.22
5.9754998700000215,393,199.93,-99.5,4.7,-147.1,-0.3,0.41,0.83,-0.13,-1.03,-0.19
5.985312465999868,394,199.94,-99.6,4.6,-147.0,-0.19,0.16,0.94,-0.12,-1.02,-0.21
5.995474260999799,395,199.95,-99.6,4.5,-147.0,-0.04,-0.1,1.04,-0.1,-1.02,-0.21
6.005535540999972,396,199.96,-99.6,4.4,-147.0,0.22,-0.2,1.1,-0.08,-1.0,-0.22
6.01530918599974,397,199.97,-99.5,4.3,-147.0,0.44,-0.29,1.09,-0.06,-0.97,-0.22
6.025429582000015,398,199.98,-99.5,4.2,-147.0,0.38,-0.28,1.07,-0.04,-0.94,-0.23
6.035381224000048,399,199.99,-99.5,4.1,-147.0,0.23,-0.25,1.01,-0.04,-0.92,-0.22
6.045298297000045,400,200.0,-99.4,4.0,-147.0,0.0,-0.18,0.9,-0.04,-0.92,-0.22
6.055414846000076,401,200.01,-99.4,3.9,-147.0,-0.14,-0.22,0.71,-0.06,-0.93,-0.2
6.065462544999718,402,200.02,-99.5,3.8,-147.1,-0.15,-0.23,0.5,-0.08,-0.93,-0.2
6.07531578399994,403,200.03,-99.5,3.8,-147.1,-0.13,-0.41,0.29,-0.09,-0.93,-0.18
6.085437616000036,404,200.04,-99.5,3.8,-147.1,-0.14,-0.63,0.07,-0.11,-0.94,-0.17
6.095475345000068,405,200.05,-99.5,3.8,-147.2,-0.16,-0.92,-0.17,-0.12,-0.94,-0.18
6.105241119999846,406,200.06,-99.5,3.8,-147.3,-0.25,-1.17,-0.38,-0.13,-0.94,-0.18
6.115429941999992,407,200.07,-99.6,3.8,-147.5,-0.36,-1.38,-0.58,-0.13,-0.93,-0.19
6.125520674999734,408,200.08,-99.6,3.8,-147.6,-0.5,-1.56,-0.74,-0.12,-0.93,-0.2
6.135305731999779,409,200.09,-99.7,3.9,-147.8,-0.63,-1.67,-0.86,-0.1,-0.94,-0.21
6.145448158999898,410,200.1,-99.8,4.0,-148.0,-0.74,-1.74,-0.98,-0.09,-0.95,-0.22
6.155478030999802,411,200.11,-99.9,4.0,-148.2,-0.82,-1.77,-1.09,-0.07,-0.95,-0.23
6.165416687999823,412,200.12,-100.0,4.1,-148.4,-0.89,-1.79,-1.16,-0.06,-0.95,-0.24
6.175537418999738,413,200.13,-100.1,4.2,-148.6,-0.92,-1.74,-1.24,-0.05,-0.95,-0.25
6.185461042000043,414,200.14,-100.2,4.3,-148.8,-0.85,-1.59,-1.29,-0.05,-0.95,-0.27
6.19547778299966,415,200.15,-100.3,4.4,-148.9,-0.85,-1.51,-1.34,-0.05,-0.94,-0.26
6.2052315159999125,416,200.16,-100.4,4.5,-149.1,-0.91,-1.4,-1.35,-0.05,-0.94,-0.27
6.215520430999732,417,200.17,-100.5,4.6,-149.3,-1.03,-1.3,-1.36,-0.05,-0.93,-0.28
6.225505392999821,418,200.18,-100.6,4.7,-149.4,-1.17,-1.17,-1.37,-0.05,-0.94,-0.26
6.235261228999661,419,200.19,-100.8,4.8,-149.5,-1.56,-1.16,-1.31,-0.03,-0.95,-0.24
6.245481254999959,420,200.2,-101.0,4.9,-149.7,-1.88,-1.04,-1.24,-0.01,-0.99,-0.25
6.25548810600003,421,200.21,-101.2,5.0,-149.8,-1.72,-1.04,-1.14,0.0,-1.0,-0.28
6.265219012999751,422,200.22,-101.3,5.1,-149.9,-1.56,-0.77,-0.93,0.01,-1.03,-0.25
6.2754818819998945,423,200.23,-101.5,5.1,-150.0,-1.86,-0.75,-0.55,0.08,-1.08,-0.16
6.28542534799999,424,200.24,-101.7,5.2,-150.1,-2.92,-0.74,0.17,0.23,-1.17,-0.13
6.29538727299996,425,200.25,-102.1,5.1,-150.1,-3.56,-0.75,0.98,0.37,-1.3,-0.21
6.305520052999782,426,200.26,-102.4,4.9,-150.2,-2.5,-0.32,1.76,0.43,-1.34,-0.34
6.315488818999711,427,200.27,-102.5,4.7,-150.1,0.1,0.63,2.65,0.39,-1.28,-0.33
6.325479922999875,428,200.28,-102.3,4.4,-149.9,3.29,1.16,3.28,0.26,-1.17,-0.25
6.335440769999877,429,200.29,-101.8,4.1,-149.7,5.59,2.33,3.5,0.1,-0.95,-0.31
6.345437250000032,430,200.3,-101.2,3.9,-149.3,6.26,3.34,3.41,-0.02,-0.8,-0.23
6.355384526999842,431,200.31,-100.6,3.6,-148.9,5.5,3.76,2.81,-0.13,-0.71,-0.14
6.365371885000059,432,200.32,-100.1,3.5,-148.5,3.33,3.92,2.15,-0.23,-0.65,-0.06
6.3755076580000605,433,200.33,-99.9,3.3,-148.1,0.51,3.52,1.44,-0.29,-0.66,0.0
6.385381232999862,434,200.34,-100.0,3.3,-147.8,-1.93,2.75,0.76,-0.33,-0.72,-0.01
6.395466685999963,435,200.35,-100.3,3.3,-147.5,-3.88,1.88,0.25,-0.37,-0.81,-0.02
6.405542802999662,436,200.36,-100.7,3.3,-147.4,-4.32,0.99,-0.03,-0.36,-0.93,-0.04
6.4153046439996615,437,200.37,-101.1,3.3,-147.3,-3.81,0.01,-0.22,-0.32,-1.04,-0.05
6.42541570100002,438,200.38,-101.4,3.3,-147.4,-2.35,-0.96,-0.26,-0.24,-1.08,-0.11
6.435446794999734,439,200.39,-101.6,3.3,-147.6,-0.86,-1.79,-0.19,-0.15,-1.08,-0.14
6.445313243999863,440,200.4,-101.6,3.3,-147.8,0.01,-2.36,0.02,-0.06,-1.05,-0.16
6.455340732999957,441,200.41,-101.6,3.2,-148.0,0.19,-2.71,0.29,0.02,-1.02,-0.16
6.4654157149998355,442,200.42,-101.6,3.1,-148.3,0.13,-2.93,0.52,0.08,-1.03,-0.16
6.475395296999977,443,200.43,-101.6,3.0,-148.6,0.18,-2.91,0.6,0.12,-1.05,-0.19
6.4854938149997,444,200.44,-101.5,3.0,-148.8,0.52,-2.8,0.45,0.15,-1.05,-0.21
6.495515989000069,445,200.45,-101.5,2.9,-149.1,0.71,-2.66,0.15,0.15,-1.01,-0.24
6.5054424089998975,446,200.46,-101.5,2.9,-149.3,0.41,-2.33,-0.11,0.12,-0.96,-0.27
6.515458932999991,447,200.47,-101.5,2.9,-149.6,-0.05,-2.02,-0.35,0.06,-0.95,-0.25
6.525518398999793,448,200.48,-101.6,2.9,-149.7,-0.39,-1.74,-0.52,0.01,-0.96,-0.22
6.535459047999666,449,200.49,-101.6,2.9,-149.9,-0.49,-1.56,-0.66,-0.02,-0.97,-0.19
6.54540445199973,450,200.5,-101.7,2.9,-150.1,-0.58,-1.45,-0.61,-0.05,-0.96,-0.18
6.555504310999822,451,200.51,-101.7,2.9,-150.2,-0.51,-1.57,-0.46,-0.06,-0.97,-0.17
6.565405218999786,452,200.52,-101.8,2.9,-150.4,-0.29,-1.77,-0.36,-0.06,-0.97,-0.16
6.575545320999936,453,200.53,-101.8,2.9,-150.6,-0.1,-1.98,-0.26,-0.05,-0.97,-0.16
6.585491418999936,454,200.54,-101.8,2.8,-150.8,0.09,-2.28,-0.26,-0.05,-0.96,-0.13
6.595508332999998,455,200.55,-101.8,2.8,-151.1,0.24,-2.6,-0.3,-0.04,-0.94,-0.12
6.605440953999732,456,200.56,-101.8,2.8,-151.3,0.4,-2.95,-0.34,-0.05,-0.94,-0.11
6.615458877000037,457,200.57,-101.8,2.8,-151.7,0.5,-3.33,-0.43,-0.04,-0.94,-0.11
6.625507987999754,458,200.58,-101.7,2.7,-152.0,0.45,-3.66,-0.47,-0.02,-0.95,-0.13
6.635413155999686,459,200.59,-101.7,2.7,-152.4,0.39,-3.87,-0.48,0.0,-0.96,-0.16
6.645526030999918,460,200.6,-101.6,2.6,-152.8,0.35,-3.97,-0.5,0.02,-0.98,-0.18
6.655421404999743,461,200.61,-101.6,2.6,-153.2,0.48,-3.97,-0.51,0.04,-0.99,-0.2
6.665290907999861,462,200.62,-101.6,2.6,-153.6,0.51,-3.92,-0.44,0.06,-0.97,-0.2
6.6755077200000414,463,200.63,-101.5,2.5,-154.0,0.52,-3.83,-0.33,0.08,-0.97,-0.21
6.685452188999989,464,200.64,-101.5,2.5,-154.4,0.56,-3.69,-0.25,0.09,-0.97,-0.22
6.695286121999743,465,200.65,-101.5,2.5,-154.7,0.52,-3.48,-0.19,0.1,-0.96,-0.22
6.705492421999679,466,200.66,-101.5,2.5,-155.1,0.42,-3.33,-0.23,0.09,-0.97,-0.2
6.715485567000087,467,200.67,-101.5,2.5,-155.4,0.26,-3.25,-0.35,0.07,-0.96,-0.19
6.725290050999774,468,200.68,-101.4,2.5,-155.7,0.01,-3.19,-0.45,0.05,-0.96,-0.18
6.735484671999984,469,200.69,-101.5,2.4,-156.0,-0.28,-3.23,-0.6,0.03,-0.98,-0.17
6.74551163399974,470,200.7,-101.5,2.4,-156.4,-0.46,-3.32,-0.76,0.03,-0.99,-0.16
6.755401793999681,471,200.71,-101.5,2.4,-156.7,-0.45,-3.49,-0.91,0.03,-1.01,-0.15
6.765423346999796,472,200.72,-101.6,2.5,-157.1,-0.31,-3.72,-0.98,0.03,-1.01,-0.15
6.7755601769999885,473,200.73,-101.6,2.5,-157.5,-0.15,-3.95,-0.93,0.05,-1.01,-0.17
6.785523968999769,474,200.74,-101.6,2.5,-157.9,0.1,-4.07,-0.82,0.07,-1.01,-0.2
6.7954689859998325,475,200.75,-101.6,2.5,-158.3,0.58,-4.06,-0.64,0.1,-1.0,-0.23
6.805466117999913,476,200.76,-101.5,2.5,-158.7,0.97,-3.95,-0.46,0.13,-1.0,-0.24
6.815441097000075,477,200.77,-101.5,2.5,-159.1,1.25,-3.77,-0.35,0.15,-1.0,-0.25
6.825478393999674,478,200.78,-101.3,2.5,-159.5,1.27,-3.55,-0.35,0.15,-1.0,-0.27
6.835489454999788,479,200.79,-101.2,2.4,-159.8,0.91,-3.18,-0.44,0.13,-1.01,-0.28
6.845492024999658,480,200.8,-101.2,2.4,-160.1,0.42,-2.78,-0.63,0.1,-1.03,-0.28
6.855392023999684,481,200.81,-101.2,2.5,-160.4,-0.06,-2.48,-0.9,0.07,-1.04,-0.25
6.865362770000047,482,200.82,-101.3,2.6,-160.6,-0.27,-2.29,-1.08,0.05,-1.04,-0.25
6.87552959300001,483,200.83,-101.4,2.6,-160.9,-0.39,-2.24,-1.24,0.05,-1.05,-0.24
6.885456528999839,484,200.84,-101.4,2.7,-161.1,-0.38,-2.16,-1.4,0.05,-1.05,-0.24
6.8954628219998995,485,200.85,-101.5,2.8,-161.4,-0.36,-2.1,-1.55,0.06,-1.04,-0.24
6.905530577999798,486,200.86,-101.6,2.9,-161.6,-0.16,-2.03,-1.63,0.07,-1.03,-0.24
6.915433185999973,487,200.87,-101.6,3.1,-161.8,0.07,-2.02,-1.65,0.08,-1.01,-0.23
6.9255155769997145,488,200.88,-101.6,3.2,-162.1,0.27,-2.02,-1.59,0.08,-0.99,-0.23
6.935499462999815,489,200.89,-101.6,3.3,-162.3,0.45,-2.04,-1.52,0.09,-0.97,-0.23
6.945381648999955,490,200.9,-101.6,3.5,-162.5,0.51,-2.03,-1.41,0.09,-0.96,-0.23
6.955523879999873,491,200.91,-101.6,3.6,-162.8,0.51,-2.0,-1.31,0.1,-0.94,-0.23
6.965553287999683,492,200.92,-101.5,3.7,-163.0,0.56,-1.99,-1.22,0.11,-0.94,-0.23
6.975271946999783,493,200.93,-101.5,3.8,-163.2,0.56,-1.91,-1.12,0.12,-0.94,-0.24
6.985685676999765,494,200.94,-101.5,3.9,-163.4,0.61,-1.81,-1.02,0.13,-0.94,-0.23
6.995707132999996,495,200.95,-101.5,4.0,-163.6,0.7,-1.68,-0.94,0.14,-0.94,-0.23
7.0052417090000745,496,200.96,-101.4,4.1,-163.8,0.73,-1.47,-0.84,0.15,-0.92,-0.24
7.015656168000078,497,200.97,-101.4,4.1,-163.9,0.63,-1.22,-0.74,0.16,-0.92,-0.25
7.025675293999939,498,200.98,-101.3,4.2,-164.0,0.52,-0.94,-0.65,0.16,-0.91,-0.26
7.035256596999716,499,200.99,-101.3,4.2,-164.1,0.42,-0.63,-0.56,0.16,-0.91,-0.27
7.045409093999751,500,201.0,-101.3,4.3,-164.2,0.25,-0.32,-0.47,0.16,-0.92,-0.25
7.05543498399993,501,201.01,-101.2,4.3,-164.2,0.09,-0.06,-0.39,0.15,-0.93,-0.25
7.065610023999852,502,201.02,-101.2,4.3,-164.2,0.0,0.19,-0.31,0.15,-0.94,-0.25
7.075298411999938,503,201.03,-101.3,4.4,-164.2,0.0,0.41,-0.25,0.14,-0.95,-0.25
7.085464153999965,504,201.04,-101.3,4.5,-164.1,-0.02,0.6,-0.22,0.13,-0.96,-0.24
7.095686412999839,505,201.05,-101.3,4.5,-164.1,-0.04,0.75,-0.19,0.12,-0.97,-0.24
7.105452573000093,506,201.06,-101.3,4.6,-164.0,-0.05,0.88,-0.16,0.11,-0.97,-0.24
7.115654277999965,507,201.07,-101.4,4.6,-163.9,0.0,0.97,-0.14,0.1,-0.98,-0.23
7.125651472999834,508,201.08,-101.4,4.7,-163.8,0.0,1.04,-0.11,0.1,-0.98,-0.22
7.135338729000068,509,201.09,-101.4,4.7,-163.7,0.03,1.08,-0.07,0.09,-0.98,-0.22
7.145506997999746,510,201.1,-101.4,4.7,-163.6,0.05,1.11,-0.02,0.1,-0.98,-0.21
7.155450120999831,511,201.11,-101.4,4.8,-163.5,0.1,1.1,0.01,0.09,-0.98,-0.2
7.165424714999972,512,201.12,-101.3,4.8,-163.4,0.15,1.08,0.06,0.09,-0.97,-0.2
7.175687329000084,513,201.13,-101.3,4.8,-163.3,0.17,1.05,0.11,0.1,-0.97,-0.2
7.185466327000086,514,201.14,-101.3,4.8,-163.2,0.15,1.07,0.15,0.1,-0.97,-0.21
7.195410563999758,515,201.15,-101.3,4.9,-163.1,0.14,1.12,0.17,0.1,-0.97,-0.21
7.205667521999658,516,201.16,-101.3,4.9,-162.9,0.18,1.16,0.19,0.1,-0.97,-0.2
7.215708065999934,517,201.17,-101.2,4.9,-162.8,0.25,1.17,0.23,0.1,-0.96,-0.2
7.22531094299984,518,201.18,-101.2,4.9,-162.7,0.24,1.19,0.28,0.09,-0.96,-0.19
7.235687090999818,519,201.19,-101.2,4.9,-162.6,0.24,1.16,0.32,0.09,-0.95,-0.18
7.245652236999831,520,201.2,-101.1,4.9,-162.5,0.29,1.1,0.39,0.09,-0.94,-0.19
7.2553731749999315,521,201.21,-101.1,4.9,-162.3,0.27,1.03,0.49,0.1,-0.93,-0.18
7.265565633999813,522,201.22,-101.1,4.9,-162.2,0.27,1.0,0.6,0.1,-0.93,-0.18
7.275698315999762,523,201.23,-101.0,4.8,-162.1,0.27,0.98,0.69,0.1,-0.94,-0.18
7.28534502399998,524,201.24,-101.0,4.8,-162.0,0.19,0.98,0.75,0.1,-0.93,-0.18
7.2954302419998385,525,201.25,-101.0,4.7,-161.9,0.07,0.98,0.84,0.09,-0.94,-0.18
7.3054971229998955,526,201.26,-101.0,4.7,-161.8,0.08,0.97,0.91,0.09,-0.94,-0.18
7.315394488000038,527,201.27,-101.0,4.6,-161.7,0.16,0.96,1.0,0.09,-0.95,-0.19
7.3254435869998815,528,201.28,-100.9,4.5,-161.6,0.25,0.92,1.09,0.09,-0.95,-0.18
7.335501301000022,529,201.29,-100.9,4.4,-161.5,0.32,0.87,1.17,0.08,-0.95,-0.19
7.3453693189999285,530,201.3,-100.8,4.3,-161.3,0.35,0.85,1.25,0.08,-0.95,-0.18
7.3553723269997136,531,201.31,-100.8,4.2,-161.2,0.35,0.83,1.3,0.07,-0.95,-0.18
7.365519653999854,532,201.32,-100.8,4.1,-161.1,0.27,0.81,1.34,0.07,-0.95,-0.18
7.375495270000101,533,201.33,-100.7,4.0,-161.0,0.16,0.8,1.37,0.07,-0.95,-0.18
7.3851611109998885,534,201.34,-100.7,3.9,-160.9,0.12,0.79,1.38,0.06,-0.95,-0.19
7.395498847999988,535,201.35,-100.7,3.8,-160.8,0.1,0.75,1.39,0.06,-0.95,-0.18
7.40551412700006,536,201.36,-100.7,3.6,-160.7,0.07,0.74,1.43,0.07,-0.95,-0.19
7.4153044219997355,537,201.37,-100.7,3.5,-160.6,0.03,0.73,1.46,0.07,-0.95,-0.2
7.425521663999916,538,201.38,-100.7,3.4,-160.5,-0.02,0.69,1.48,0.08,-0.96,-0.19
7.435472733000097,539,201.39,-100.7,3.3,-160.4,-0.13,0.72,1.45,0.06,-1.0,-0.17
7.445309490999989,540,201.4,-100.7,3.1,-160.3,-0.51,0.83,1.31,0.0,-1.07,-0.15
7.455431798000063,541,201.41,-100.8,3.0,-160.2,-1.48,0.91,0.97,-0.07,-1.15,-0.1
7.465496611999697,542,201.42,-101.0,3.0,-160.1,-1.74,0.63,0.69,-0.1,-1.16,-0.08
7.475292582999828,543,201.43,-101.1,2.9,-160.1,-0.83,0.06,0.41,-0.08,-1.16,-0.04
7.485440754999672,544,201.44,-101.1,2.9,-160.1,0.18,-0.47,0.29,-0.04,-1.03,-0.1
7.49553638999987,545,201.45,-101.1,2.8,-160.1,0.54,-0.73,0.37,0.01,-0.96,-0.14
7.505299127999933,546,201.46,-101.0,2.8,-160.2,0.71,-0.88,0.34,0.05,-0.94,-0.17
7.515554073999738,547,201.47,-100.9,2.7,-160.3,0.47,-0.81,0.23,0.07,-0.93,-0.23
7.525527421999868,548,201.48,-101.0,2.7,-160.4,-0.02,-0.52,0.14,0.1,-0.93,-0.26
7.5353652189996865,549,201.49,-101.0,2.7,-160.4,-0.41,-0.25,0.05,0.12,-0.95,-0.26
7.54552492799985,550,201.5,-101.0,2.7,-160.4,-0.6,0.01,0.01,0.12,-0.98,-0.26
7.555458418999933,551,201.51,-101.1,2.7,-160.4,-0.69,0.26,-0.09,0.13,-1.02,-0.26
7.5652932429998145,552,201.52,-101.2,2.8,-160.4,-0.68,0.48,-0.23,0.11,-1.03,-0.24
7.575459731999672,553,201.53,-101.3,2.9,-160.3,-0.61,0.54,-0.38,0.09,-1.03,-0.2
7.585474187999807,554,201.54,-101.3,2.9,-160.3,-0.52,0.37,-0.5,0.07,-1.02,-0.17
7.595319622999796,555,201.55,-101.4,3.0,-160.3,-0.4,0.24,-0.61,0.05,-1.0,-0.17
7.605259411999668,556,201.56,-101.4,3.1,-160.3,-0.4,0.02,-0.7,0.04,-1.01,-0.16
7.615498347000084,557,201.57,-101.4,3.1,-160.3,-0.49,-0.16,-0.81,0.03,-1.02,-0.17
7.625447705999704,558,201.58,-101.4,3.2,-160.3,-0.58,-0.3,-0.86,0.0,-1.02,-0.17
7.635367293999934,559,201.59,-101.5,3.2,-160.4,-0.48,-0.37,-0.77,0.0,-1.0,-0.17
7.645518773999811,560,201.6,-101.5,3.3,-160.4,-0.18,-0.38,-0.61,0.0,-0.99,-0.17
7.655411294999794,561,201.61,-101.5,3.3,-160.5,0.13,-0.35,-0.4,0.03,-0.98,-0.18
7.665328933999717,562,201.62,-101.5,3.3,-160.5,0.26,-0.27,-0.24,0.06,-0.98,-0.17
7.6755194839997785,563,201.63,-101.4,3.3,-160.5,0.28,-0.06,-0.16,0.07,-0.99,-0.17
7.6854616840000745,564,201.64,-101.4,3.3,-160.5,0.27,0.25,-0.07,0.07,-0.98,-0.17
7.695362744999784,565,201.65,-101.3,3.4,-160.5,0.45,0.68,0.0,0.06,-0.98,-0.17
7.705501187999744,566,201.66,-101.2,3.4,-160.4,0.91,1.21,0.02,0.05,-0.97,-0.16
7.7155137009999635,567,201.67,-101.1,3.4,-160.2,1.39,1.69,0.02,0.03,-0.94,-0.14
7.725349874999665,568,201.68,-100.9,3.4,-160.0,1.71,2.24,-0.08,0.03,-0.93,-0.14
7.735436016999756,569,201.69,-100.7,3.5,-159.8,1.92,2.85,-0.38,0.02,-0.9,-0.15
7.745479626999895,570,201.7,-100.5,3.6,-159.5,1.81,3.51,-0.79,0.0,-0.88,-0.12
7.755308945999786,571,201.71,-100.2,3.7,-159.1,1.66,3.98,-1.22,0.0,-0.86,-0.09
7.765565905999665,572,201.72,-100.0,3.9,-158.7,1.46,4.26,-1.69,0.0,-0.87,-0.09
7.775535361000038,573,201.73,-99.8,4.1,-158.3,1.04,4.29,-2.01,-0.01,-0.87,-0.1
7.7852954259997205,574,201.74,-99.7,4.4,-158.0,0.56,4.13,-2.05,-0.03,-0.92,-0.09
7.795512717999827,575,201.75,-99.7,4.7,-157.6,0.24,3.81,-1.94,-0.06,-1.04,-0.11
7.805546734000018,576,201.76,-99.6,4.9,-157.3,0.12,3.39,-1.73,-0.11,-1.14,-0.13
7.815428905999852,577,201.77,-99.6,5.1,-157.0,0.56,2.88,-1.37,-0.14,-1.21,-0.14
7.825418997999805,578,201.78,-99.4,5.3,-156.8,1.72,2.26,-1.02,-0.16,-1.23,-0.14
7.835369226999774,579,201.79,-99.2,5.4,-156.6,2.97,1.66,-0.71,-0.15,-1.2,-0.16
7.8453363759999775,580,201.8,-98.8,5.5,-156.4,3.48,1.25,-0.39,-0.12,-1.12,-0.18
7.8554264899999,581,201.81,-98.5,5.5,-156.3,3.29,0.94,-0.17,-0.09,-1.07,-0.19
7.86551323599997,582,201.82,-98.2,5.5,-156.3,2.81,0.72,-0.05,-0.07,-1.03,-0.2
7.8753230590000385,583,201.83,-97.9,5.5,-156.2,2.28,0.52,0.12,-0.04,-0.99,-0.23
7.885538473999986,584,201.84,-97.7,5.5,-156.1,1.78,0.43,0.39,-0.01,-0.99,-0.23
7.89550974399981,585,201.85,-97.5,5.5,-156.1,1.43,0.37,0.63,-0.01,-1.0,-0.22
7.90543261799985,586,201.86,-97.4,5.4,-156.1,1.08,0.37,0.93,-0.03,-1.01,-0.21
7.9154616499999975,587,201.87,-97.3,5.3,-156.0,0.93,0.35,1.25,-0.05,-1.01,-0.2
7.92555210699993,588,201.88,-97.2,5.1,-156.0,1.12,0.32,1.44,-0.07,-1.02,-0.19
7.935202967999885,589,201.89,-97.0,5.0,-155.9,1.53,0.23,1.5,-0.1,-1.01,-0.17
7.944901583000046,590,201.9,-96.9,4.9,-155.9,1.92,0.06,1.45,-0.13,-0.98,-0.15
7.954929743999855,591,201.91,-96.7,4.7,-155.9,2.17,-0.18,1.31,-0.16,-0.96,-0.13
7.965368761999798,592,201.92,-96.4,4.6,-155.9,2.26,-0.47,1.11,-0.19,-0.95,-0.12
7.975477468000008,593,201.93,-96.2,4.5,-155.9,2.18,-0.78,0.88,-0.21,-0.92,-0.12
7.985456558999886,594,201.94,-96.0,4.4,-156.0,2.0,-1.16,0.64,-0.22,-0.91,-0.09
7.995514984999772,595,201.95,-95.8,4.3,-156.2,1.96,-1.58,0.42,-0.23,-0.9,-0.07
8.005456145999688,596,201.96,-95.7,4.3,-156.3,1.83,-2.08,0.21,-0.24,-0.88,-0.04
8.015442873999746,597,201.97,-95.5,4.3,-156.6,1.64,-2.72,-0.03,-0.25,-0.87,-0.03
8.025512733999676,598,201.98,-95.4,4.2,-156.9,1.47,-3.34,-0.38,-0.27,-0.87,-0.03
8.035373123999761,599,201.99,-95.3,4.3,-157.3,1.35,-3.89,-0.78,-0.27,-0.86,-0.03
8.04552059999969,600,202.0,-95.2,4.3,-157.7,0.89,-4.42,-1.08,-0.27,-0.84,0.01
8.055425020999792,601,202.01,-95.2,4.4,-158.2,-0.35,-4.82,-1.05,-0.2,-0.9,0.01
8.065517215,602,202.02,-95.3,4.4,-158.7,-1.79,-5.0,-0.87,-0.05,-1.08,-0.04
8.075542386000052,603,202.03,-95.6,4.5,-159.2,-2.7,-4.91,-0.67,0.13,-1.29,-0.04
8.08546248599987,604,202.04,-95.9,4.5,-159.7,-1.94,-4.57,-0.52,0.34,-1.45,-0.13
8.095418098999744,605,202.05,-95.9,4.5,-160.1,0.96,-4.17,-0.58,0.46,-1.44,-0.15
8.105548210000052,606,202.06,-95.7,4.5,-160.5,4.23,-3.58,-0.43,0.5,-1.26,-0.2
8.115561461999732,607,202.07,-95.2,4.5,-160.8,6.0,-2.71,-0.15,0.39,-1.04,-0.19
8.12538070499977,608,202.08,-94.6,4.5,-161.0,5.83,-1.86,-0.04,0.22,-0.88,-0.17
8.135555203999957,609,202.09,-94.1,4.5,-161.2,4.64,-1.04,-0.27,0.06,-0.82,-0.1
8.1455490620001,610,202.1,-93.7,4.5,-161.2,3.13,-0.48,-0.77,-0.07,-0.8,-0.03
8.15529522199995,611,202.11,-93.5,4.6,-161.3,1.45,-0.33,-1.19,-0.15,-0.8,0.0
8.165081014999942,612,202.12,-93.4,4.8,-161.3,0.2,-0.39,-1.45,-0.2,-0.84,0.01
8.175112394999815,613,202.13,-93.5,4.9,-161.4,-0.2,-0.79,-1.57,-0.23,-0.87,0.03
8.185308059999898,614,202.14,-93.5,5.1,-161.5,-0.12,-1.32,-1.6,-0.21,-0.93,0.04
8.195254393999676,615,202.15,-93.5,5.2,-161.7,0.44,-2.05,-1.6,-0.17,-0.96,0.04
8.205493275999743,616,202.16,-93.4,5.4,-162.0,1.03,-2.8,-1.61,-0.12,-0.96,0.02
8.21549555599995,617,202.17,-93.3,5.5,-162.3,1.29,-3.47,-1.58,-0.08,-0.95,0.0
8.225537582000015,618,202.18,-93.3,5.6,-162.7,1.16,-3.84,-1.51,-0.03,-0.94,-0.01
8.235467243999665,619,202.19,-93.2,5.7,-163.1,1.07,-4.05,-1.45,0.0,-0.97,-0.01
8.245487825000055,620,202.2,-93.1,5.8,-163.5,1.19,-4.19,-1.42,0.04,-0.99,-0.01
8.255583964999914,621,202.21,-93.0,5.9,-163.9,1.38,-4.19,-1.36,0.08,-1.01,-0.02
8.265523040000062,622,202.22,-92.9,6.0,-164.3,1.5,-4.1,-1.37,0.1,-1.03,-0.03
8.27550843600011,623,202.23,-92.7,6.1,-164.7,1.58,-3.95,-1.41,0.12,-1.06,-0.02
8.285338596999736,624,202.24,-92.6,6.3,-165.1,1.81,-3.73,-1.54,0.13,-1.05,-0.03
8.295557376000033,625,202.25,-92.4,6.4,-165.5,1.91,-3.49,-1.67,0.14,-1.05,-0.02
8.305527793999772,626,202.26,-92.3,6.6,-165.9,1.96,-3.29,-1.81,0.15,-1.03,-0.01
8.315446451999833,627,202.27,-92.1,6.8,-166.2,2.0,-3.08,-2.03,0.13,-1.03,-0.01
8.325374353999905,628,202.28,-91.9,7.0,-166.5,1.94,-2.96,-2.31,0.11,-0.98,-0.01
8.335442069999772,629,202.29,-91.8,7.2,-166.8,1.63,-2.94,-2.54,0.07,-0.93,0.0
8.345357620999948,630,202.3,-91.6,7.4,-167.1,1.14,-3.13,-2.63,0.03,-0.89,0.02
8.355458667999756,631,202.31,-91.6,7.7,-167.4,0.55,-3.45,-2.64,0.01,-0.89,0.02
8.36551789699979,632,202.32,-91.6,7.9,-167.8,0.08,-3.85,-2.51,0.0,-0.9,0.01
8.375324943999658,633,202.33,-91.7,8.1,-168.2,-0.05,-4.14,-2.26,0.02,-0.93,0.0
8.385552697000094,634,202.34,-91.7,8.3,-168.7,0.06,-4.34,-1.86,0.05,-0.96,-0.02
8.395485740999902,635,202.35,-91.8,8.4,-169.1,0.35,-4.44,-1.39,0.11,-1.0,-0.04
8.405234683999879,636,202.36,-91.8,8.5,-169.6,0.67,-4.37,-0.93,0.18,-1.03,-0.05
8.415565568999682,637,202.37,-91.8,8.6,-170.0,1.01,-4.15,-0.52,0.24,-1.07,-0.06
8.425551022000036,638,202.38,-91.8,8.6,-170.4,1.41,-3.72,-0.18,0.29,-1.08,-0.08
8.435333750999689,639,202.39,-91.7,8.6,-170.8,1.78,-3.14,0.0,0.32,-1.09,-0.09
8.445527941999899,640,202.4,-91.5,8.6,-171.0,1.99,-2.5,0.05,0.32,-1.07,-0.09
8.455543588999717,641,202.41,-91.3,8.6,-171.3,1.98,-1.87,0.02,0.29,-1.01,-0.09
8.465466378999736,642,202.42,-91.2,8.6,-171.4,1.64,-1.26,-0.03,0.25,-0.96,-0.08
8.475271944999804,643,202.43,-91.1,8.6,-171.5,1.12,-0.79,-0.06,0.18,-0.92,-0.06
8.48550048199968,644,202.44,-91.0,8.7,-171.6,0.52,-0.42,-0.06,0.12,-0.92,-0.03
8.49553213299987,645,202.45,-91.0,8.6,-171.6,0.18,-0.24,-0.05,0.08,-0.93,-0.01
8.505396399999881,646,202.46,-91.0,8.6,-171.6,-0.11,-0.29,0.03,0.07,-0.94,0.0
8.515521963000083,647,202.47,-91.0,8.6,-171.7,-0.13,-0.35,0.13,0.08,-0.96,0.0
8.525522806000026,648,202.48,-91.0,8.5,-171.7,0.07,-0.54,0.29,0.09,-0.97,0.01
8.53549562499984,649,202.49,-91.0,8.4,-171.8,0.26,-0.74,0.43,0.11,-0.97,0.01
8.545107775999895,650,202.5,-90.9,8.4,-171.8,0.39,-0.83,0.6,0.12,-0.96,0.0
8.55545483800006,651,202.51,-90.9,8.3,-171.9,0.43,-0.9,0.75,0.13,-0.96,0.0
8.565432337999937,652,202.52,-90.9,8.2,-172.0,0.5,-0.96,0.84,0.13,-0.96,0.0
8.575491619999866,653,202.53,-90.8,8.1,-172.1,0.47,-0.93,0.86,0.13,-0.95,-0.01
8.585491082999852,654,202.54,-90.8,8.0,-172.2,0.32,-0.9,0.84,0.12,-0.95,-0.02
8.595484188999762,655,202.55,-90.8,7.9,-172.3,0.16,-0.82,0.82,0.11,-0.95,-0.02
8.605529084999944,656,202.56,-90.8,7.8,-172.4,-0.01,-0.72,0.8,0.11,-0.96,-0.01
8.615512670000044,657,202.57,-90.8,7.8,-172.4,-0.03,-0.63,0.79,0.12,-0.96,-0.02
8.625477545999729,658,202.58,-90.8,7.7,-172.5,-0.04,-0.51,0.78,0.13,-0.96,-0.02
8.63543040400009,659,202.59,-90.9,7.6,-172.5,-0.09,-0.37,0.76,0.14,-0.95,-0.03
8.64556886299988,660,202.6,-90.9,7.5,-172.6,-0.17,-0.23,0.75,0.16,-0.95,-0.03
8.655421690999901,661,202.61,-90.9,7.5,-172.6,-0.39,-0.05,0.77,0.16,-0.94,-0.03
8.665565908999724,662,202.62,-91.0,7.4,-172.6,-0.54,0.15,0.79,0.17,-0.95,-0.03
8.675517642999694,663,202.63,-91.1,7.4,-172.6,-0.64,0.35,0.76,0.18,-0.96,-0.04
8.685375098999884,664,202.64,-91.1,7.4,-172.5,-0.69,0.51,0.72,0.18,-0.97,-0.04
8.695452171999932,665,202.65,-91.2,7.3,-172.5,-0.78,0.67,0.69,0.18,-0.96,-0.04
8.705517610999777,666,202.66,-91.3,7.3,-172.4,-0.86,0.82,0.68,0.18,-0.96,-0.04
8.715388504999737,667,202.67,-91.4,7.3,-172.3,-0.89,0.95,0.7,0.18,-0.97,-0.04
8.725539905000005,668,202.68,-91.5,7.2,-172.2,-0.89,1.1,0.75,0.18,-0.97,-0.04
8.735456923999664,669,202.69,-91.6,7.2,-172.1,-0.89,1.26,0.79,0.18,-0.98,-0.05
8.745347780999964,670,202.7,-91.6,7.1,-171.9,-0.84,1.4,0.79,0.17,-0.99,-0.04
8.755354771999919,671,202.71,-91.7,7.1,-171.8,-0.81,1.5,0.77,0.16,-0.98,-0.04
8.765524923999692,672,202.72,-91.8,7.0,-171.6,-0.85,1.56,0.74,0.16,-0.97,-0.04
8.775470791999851,673,202.73,-91.9,7.0,-171.5,-0.89,1.61,0.71,0.15,-0.97,-0.04
8.785361670999919,674,202.74,-91.9,6.9,-171.3,-0.91,1.63,0.69,0.14,-0.97,-0.03
8.795575792999898,675,202.75,-92.0,6.9,-171.1,-0.98,1.64,0.73,0.14,-0.97,-0.03
8.805515685000046,676,202.76,-92.1,6.8,-171.0,-1.02,1.68,0.8,0.14,-0.97,-0.03
8.815283824999824,677,202.77,-92.2,6.8,-170.8,-1.0,1.72,0.84,0.15,-0.98,-0.04
8.825570511000024,678,202.78,-92.3,6.7,-170.6,-0.96,1.81,0.84,0.16,-0.98,-0.04
8.835462058999838,679,202.79,-92.3,6.7,-170.4,-1.04,1.89,0.84,0.16,-0.98,-0.04
8.845223196999996,680,202.8,-92.4,6.6,-170.2,-1.16,1.97,0.81,0.15,-0.97,-0.03
8.85553418399968,681,202.81,-92.5,6.6,-170.0,-1.25,2.08,0.78,0.15,-0.97,-0.05
8.865562088999923,682,202.82,-92.6,6.5,-169.8,-1.29,2.17,0.8,0.14,-0.97,-0.05
8.875334004999786,683,202.83,-92.7,6.5,-169.6,-1.33,2.25,0.85,0.13,-0.97,-0.05
8.885494262000066,684,202.84,-92.9,6.4,-169.3,-1.33,2.32,0.88,0.13,-0.97,-0.05
8.895472331999827,685,202.85,-93.0,6.3,-169.1,-1.35,2.36,0.88,0.12,-0.97,-0.04
8.905370475999916,686,202.86,-93.1,6.3,-168.8,-1.39,2.38,0.9,0.11,-0.98,-0.04
8.915574040999672,687,202.87,-93.2,6.2,-168.6,-1.48,2.32,0.91,0.1,-0.97,-0.04
8.925578737999786,688,202.88,-93.3,6.1,-168.4,-1.44,2.34,0.94,0.1,-0.98,-0.05
8.935366725999756,689,202.89,-93.4,6.0,-168.1,-1.37,2.32,0.95,0.1,-0.99,-0.05
8.94557408699984,690,202.9,-93.5,6.0,-167.9,-1.33,2.29,0.94,0.09,-0.98,-0.05
8.955481706999763,691,202.91,-93.6,5.9,-167.6,-1.44,2.26,0.96,0.09,-0.97,-0.04
8.965349650000007,692,202.92,-93.7,5.8,-167.4,-1.52,2.2,0.97,0.09,-0.97,-0.04
8.975531368999782,693,202.93,-93.9,5.7,-167.2,-1.64,2.06,1.01,0.08,-0.96,-0.04
8.985463369999707,694,202.94,-94.0,5.6,-167.0,-1.62,2.08,1.1,0.08,-0.96,-0.06
8.995368058999702,695,202.95,-94.1,5.5,-166.7,-1.59,2.05,1.17,0.09,-0.96,-0.06
9.005559340999753,696,202.96,-94.3,5.4,-166.5,-1.64,2.06,1.26,0.09,-0.96,-0.07
9.015555497999685,697,202.97,-94.4,5.3,-166.3,-1.7,2.08,1.33,0.09,-0.96,-0.08
9.025351102000059,698,202.98,-94.6,5.2,-166.1,-1.78,2.14,1.4,0.09,-0.97,-0.08
9.03535553699976,699,202.99,-94.7,5.0,-165.9,-1.83,2.17,1.43,0.09,-0.98,-0.08
9.045524871999987,700,203.0,-94.9,4.9,-165.6,-1.86,2.2,1.43,0.09,-0.98,-0.08
9.055391636999957,701,203.01,-95.1,4.8,-165.4,-1.87,2.2,1.4,0.09,-0.99,-0.08
9.06533076200003,702,203.02,-95.3,4.7,-165.2,-1.9,2.19,1.38,0.08,-1.0,-0.09
9.075570209000034,703,203.03,-95.4,4.6,-164.9,-1.93,2.18,1.35,0.07,-1.01,-0.09
9.085408186999757,704,203.04,-95.6,4.5,-164.7,-1.91,2.17,1.3,0.07,-1.01,-0.11
9.095401855000091,705,203.05,-95.8,4.3,-164.5,-1.86,2.22,1.27,0.06,-1.01,-0.1
9.105536037000093,706,203.06,-95.9,4.2,-164.2,-1.81,2.25,1.26,0.06,-1.01,-0.1
9.115534864999972,707,203.07,-96.1,4.1,-164.0,-1.77,2.26,1.24,0.06,-1.02,-0.1
9.125359590999778,708,203.08,-96.3,4.0,-163.8,-1.69,2.28,1.22,0.06,-1.01,-0.1
9.13544360600008,709,203.09,-96.4,3.9,-163.5,-1.61,2.3,1.19,0.06,-1.01,-0.1
9.145558579999943,710,203.1,-96.5,3.8,-163.3,-1.56,2.33,1.13,0.06,-1.0,-0.1
9.155310148999888,711,203.11,-96.7,3.7,-163.0,-1.58,2.35,1.08,0.06,-1.0,-0.1
9.165688907999993,712,203.12,-96.8,3.7,-162.8,-1.69,2.34,1.01,0.06,-0.99,-0.1
9.1757357219999,713,203.13,-97.0,3.6,-162.5,-1.73,2.4,0.96,0.06,-0.99,-0.11
9.1853251550001,714,203.14,-97.1,3.5,-162.3,-1.74,2.43,0.89,0.05,-1.0,-0.11
9.195735306999723,715,203.15,-97.3,3.5,-162.0,-1.75,2.44,0.85,0.06,-1.0,-0.11
9.205467111999951,716,203.16,-97.4,3.4,-161.8,-1.7,2.48,0.84,0.06,-1.0,-0.12
9.215483865999886,717,203.17,-97.6,3.4,-161.5,-1.63,2.54,0.85,0.06,-1.01,-0.12
9.22569795399977,718,203.18,-97.7,3.3,-161.2,-1.46,2.62,0.83,0.08,-1.02,-0.13
9.235478178999983,719,203.19,-97.8,3.3,-161.0,-1.2,2.72,0.74,0.08,-1.02,-0.13
9.245482708000054,720,203.2,-97.9,3.3,-160.7,-1.03,2.84,0.61,0.07,-1.0,-0.14
9.255480754000018,721,203.21,-98.0,3.3,-160.4,-1.12,2.9,0.52,0.06,-0.99,-0.13
9.26568906500006,722,203.22,-98.1,3.3,-160.1,-1.34,2.98,0.49,0.05,-0.98,-0.14
9.275317404999896,723,203.23,-98.2,3.3,-159.8,-1.4,3.06,0.49,0.04,-1.0,-0.14
9.285501321000083,724,203.24,-98.3,3.2,-159.5,-1.31,3.19,0.49,0.03,-1.01,-0.14
9.29576407500008,725,203.25,-98.4,3.2,-159.1,-1.19,3.23,0.44,0.03,-1.01,-0.12
9.305323181999938,726,203.26,-98.5,3.2,-158.8,-1.0,3.26,0.34,0.03,-1.01,-0.13
9.315559022999878,727,203.27,-98.6,3.2,-158.5,-0.81,3.28,0.17,0.03,-1.01,-0.13
9.325709283999913,728,203.28,-98.6,3.3,-158.1,-0.71,3.34,-0.02,0.04,-1.0,-0.13
9.335485571999925,729,203.29,-98.7,3.3,-157.8,-0.67,3.42,-0.21,0.04,-0.99,-0.13
9.345446995999737,730,203.3,-98.7,3.4,-157.5,-0.75,3.47,-0.38,0.04,-0.98,-0.14
9.355406350000067,731,203.31,-98.7,3.5,-157.1,-0.87,3.51,-0.51,0.04,-0.97,-0.13
9.365715652999825,732,203.32,-98.8,3.6,-156.8,-0.93,3.53,-0.58,0.03,-0.96,-0.13
9.375472206999802,733,203.33,-98.9,3.7,-156.4,-0.95,3.58,-0.64,0.03,-0.97,-0.14
9.385502772000109,734,203.34,-98.9,3.8,-156.1,-0.92,3.62,-0.71,0.03,-0.97,-0.14
9.395478507999997,735,203.35,-99.0,3.9,-155.7,-0.9,3.58,-0.8,0.03,-0.98,-0.14
9.405379563999759,736,203.36,-99.1,4.0,-155.4,-0.89,3.53,-0.9,0.03,-0.98,-0.14
9.415511711999898,737,203.37,-99.1,4.1,-155.1,-0.85,3.46,-1.0,0.03,-0.97,-0.14
9.425689137000063,738,203.38,-99.2,4.3,-154.8,-0.84,3.4,-1.04,0.03,-0.97,-0.15
9.435391771000013,739,203.39,-99.2,4.4,-154.4,-0.78,3.42,-1.08,0.03,-0.97,-0.17
9.445520340999792,740,203.4,-99.3,4.6,-154.1,-0.75,3.44,-1.09,0.04,-0.98,-0.17
9.455557137999676,741,203.41,-99.3,4.7,-153.8,-0.7,3.41,-1.12,0.04,-0.98,-0.17
9.465340316000038,742,203.42,-99.4,4.8,-153.5,-0.67,3.39,-1.13,0.04,-0.98,-0.16
9.47543090299996,743,203.43,-99.4,5.0,-153.2,-0.62,3.31,-1.16,0.04,-0.98,-0.16
9.485535259999779,744,203.44,-99.5,5.1,-152.9,-0.6,3.23,-1.21,0.03,-0.98,-0.17
9.495702174999678,745,203.45,-99.5,5.3,-152.6,-0.57,3.15,-1.24,0.02,-0.98,-0.18
9.505448105999676,746,203.46,-99.6,5.4,-152.3,-0.64,3.1,-1.26,0.01,-0.98,-0.17
9.51569779600004,747,203.47,-99.6,5.5,-152.0,-0.69,3.01,-1.27,0.01,-0.99,-0.17
9.525701876999847,748,203.48,-99.6,5.7,-151.7,-0.66,2.88,-1.28,0.01,-0.99,-0.17
9.535599349999757,749,203.49,-99.7,5.8,-151.5,-0.64,2.75,-1.25,0.0,-0.98,-0.17
9.545467446999737,750,203.5,-99.7,5.9,-151.2,-0.56,2.62,-1.17,0.01,-0.98,-0.16
9.555433526999877,751,203.51,-99.8,6.0,-151.0,-0.5,2.47,-1.09,0.02,-0.97,-0.17
9.565376854000078,752,203.52,-99.8,6.1,-150.8,-0.46,2.33,-1.0,0.02,-0.97,-0.17
9.575734595000085,753,203.53,-99.8,6.2,-150.6,-0.45,2.23,-0.93,0.03,-0.97,-0.18
9.585493845999736,754,203.54,-99.8,6.3,-150.4,-0.5,2.16,-0.86,0.04,-0.97,-0.19
9.595479722999698,755,203.55,-99.9,6.4,-150.2,-0.58,2.13,-0.81,0.04,-0.97,-0.2
9.605665535999833,756,203.56,-100.0,6.4,-150.0,-0.69,2.13,-0.76,0.03,-0.97,-0.21
9.615706862000025,757,203.57,-100.0,6.5,-149.8,-0.76,2.09,-0.72,0.03,-0.98,-0.2
9.625352354999904,758,203.58,-100.1,6.6,-149.6,-0.84,2.06,-0.67,0.02,-0.98,-0.21
9.635492560999865,759,203.59,-100.2,6.6,-149.4,-0.88,2.0,-0.6,0.02,-0.99,-0.21
9.645646705999752,760,203.6,-100.3,6.6,-149.2,-0.87,1.91,-0.52,0.02,-0.99,-0.2
9.655375676999938,761,203.61,-100.4,6.7,-149.0,-0.86,1.8,-0.45,0.02,-0.99,-0.2
9.665716889999658,762,203.62,-100.4,6.7,-148.9,-0.85,1.68,-0.37,0.03,-0.99,-0.2
9.675503485999798,763,203.63,-100.5,6.7,-148.7,-0.84,1.58,-0.29,0.04,-0.99,-0.21
9.685368485999788,764,203.64,-100.6,6.7,-148.6,-0.81,1.51,-0.21,0.04,-0.99,-0.21
9.695489165999788,765,203.65,-100.7,6.7,-148.4,-0.76,1.43,-0.15,0.04,-0.99,-0.21
9.705531906000033,766,203.66,-100.7,6.7,-148.3,-0.71,1.35,-0.08,0.04,-0.99,-0.21
9.715457950999735,767,203.67,-100.8,6.7,-148.2,-0.68,1.31,-0.02,0.05,-0.99,-0.2
9.725458080999942,768,203.68,-100.9,6.7,-148.0,-0.64,1.27,0.02,0.05,-0.99,-0.21
9.735579217999657,769,203.69,-100.9,6.7,-147.9,-0.57,1.26,0.08,0.05,-0.98,-0.2
9.745679768999707,770,203.7,-101.0,6.7,-147.8,-0.56,1.19,0.14,0.06,-0.98,-0.2
9.755454071999793,771,203.71,-101.0,6.6,-147.7,-0.52,1.16,0.2,0.07,-0.98,-0.2
9.765522051000062,772,203.72,-101.1,6.6,-147.6,-0.52,1.16,0.25,0.08,-0.97,-0.2
9.775506402999781,773,203.73,-101.1,6.6,-147.4,-0.56,1.16,0.31,0.08,-0.97,-0.21
9.78529278499991,774,203.74,-101.2,6.6,-147.3,-0.58,1.2,0.34,0.08,-0.97,-0.21
9.795538536000095,775,203.75,-101.2,6.5,-147.2,-0.6,1.23,0.38,0.08,-0.97,-0.21
9.805516885000088,776,203.76,-101.3,6.5,-147.1,-0.64,1.23,0.41,0.08,-0.97,-0.21
9.815373596999962,777,203.77,-101.4,6.5,-146.9,-0.69,1.25,0.42,0.07,-0.96,-0.2
9.825549339999725,778,203.78,-101.4,6.4,-146.8,-0.72,1.25,0.44,0.06,-0.97,-0.21
9.835469910000029,779,203.79,-101.5,6.4,-146.7,-0.76,1.23,0.43,0.06,-0.96,-0.21
9.845415586999934,780,203.8,-101.6,6.3,-146.5,-0.79,1.22,0.43,0.06,-0.97,-0.21
9.855563494999842,781,203.81,-101.6,6.3,-146.4,-0.78,1.21,0.41,0.06,-0.97,-0.21
9.865540911999688,782,203.82,-101.7,6.3,-146.3,-0.78,1.2,0.42,0.07,-0.97,-0.21
9.875366573000065,783,203.83,-101.8,6.2,-146.2,-0.77,1.21,0.4,0.07,-0.97,-0.21
9.885514061999856,784,203.84,-101.8,6.2,-146.0,-0.75,1.22,0.39,0.07,-0.97,-0.21
9.895545481999761,785,203.85,-101.9,6.2,-145.9,-0.72,1.21,0.34,0.07,-0.98,-0.2
9.905365179,786,203.86,-102.0,6.1,-145.8,-0.67,1.19,0.32,0.07,-0.98,-0.2
9.915581265999663,787,203.87,-102.0,6.1,-145.7,-0.64,1.14,0.29,0.06,-0.98,-0.2
9.925591765999798,788,203.88,-102.0,6.1,-145.5,-0.6,1.08,0.26,0.05,-0.98,-0.2
9.935383716999695,789,203.89,-102.1,6.0,-145.4,-0.58,1.03,0.23,0.05,-0.98,-0.2
9.945443192999846,790,203.9,-102.1,6.0,-145.3,-0.58,0.97,0.2,0.05,-0.98,-0.2
9.955493767999997,791,203.91,-102.2,6.0,-145.2,-0.58,0.9,0.18,0.05,-0.98,-0.2
9.965336810999815,792,203.92,-102.2,6.0,-145.1,-0.56,0.84,0.18,0.05,-0.98,-0.2
9.975547561999974,793,203.93,-102.3,5.9,-145.1,-0.51,0.76,0.17,0.05,-0.98,-0.2
9.985484724999878,794,203.94,-102.3,5.9,-145.0,-0.46,0.72,0.16,0.05,-0.99,-0.2
9.995960786000069,795,203.95,-102.3,5.9,-144.9,-0.4,0.66,0.14,0.05,-0.98,-0.2
