host_time_s,seq,device_time_s,roll,pitch,yaw,gyro_x,gyro_y,gyro_z,accel_x,accel_y,accel_z,belt_length,belt_velocity,belt_acceleration,motor_pos,motor_vel,motor_iq_meas,motor_iq_set,acc_mag,gyro_mag,acc_residual,threshold,heel_strike,hs_count,torque_cmd_nm
2.066244311000446,1,5465.29,-93.9,0.8,-123.6,-1.36,2.76,-0.4,-0.06,-1.16,0.01,-175.5,-73.1,67.0,0.26,1.67,0.23,0.0,1.1615937327654622,3.1027729533435084,0.0,0.5,0,0,0.0
2.0746847080008592,2,5465.3,-94.0,0.9,-123.4,-1.45,2.28,-0.77,-0.1,-1.24,0.04,-176.4,-55.7,101.0,0.27,1.45,0.08,0.0,1.244668630600129,2.809590717524529,0.08141339987797336,0.5,0,0,0.0
2.082790294000006,3,5465.31,-94.2,1.0,-123.2,-1.44,1.85,-1.16,-0.13,-1.3,0.04,-177.0,-54.3,38.0,0.29,1.46,0.04,0.0,1.3070960178961606,2.6156643515558335,0.14096397143052486,0.5,0,0,0.0
2.0905476430007184,4,5465.32,-94.3,1.2,-123.0,-1.09,1.48,-1.5,-0.14,-1.28,0.04,-177.5,-53.3,11.0,0.3,1.48,0.06,0.0,1.2882546332150333,2.372445995170385,0.11968013501440966,0.5,0,0,0.0
2.102255210000294,5,5465.33,-94.3,1.4,-122.9,-0.39,1.13,-1.59,-0.13,-1.2,0.04,-178.1,-57.5,-32.0,0.32,1.63,0.01,0.0,1.2076837334335508,1.9892460883460348,0.03832705052826868,0.5,0,0,0.0
2.1108104540007844,6,5465.34,-94.3,1.5,-122.8,0.25,0.86,-1.45,-0.09,-1.09,0.02,-178.7,-61.4,-27.0,0.34,1.68,0.13,0.0,1.0938921336219583,1.7042887079365396,0.07395525829765748,0.5,0,0,0.0
2.1220596510001997,7,5465.35,-94.3,1.6,-122.7,0.72,0.74,-1.23,-0.01,-0.99,0.0,-179.3,-62.9,-15.0,0.35,1.7,-0.16,0.0,0.9900505037623081,1.6058953888718903,0.17424095039416143,0.5,0,0,0.0
2.130825533999996,8,5465.36,-94.2,1.8,-122.7,0.93,0.86,-1.0,0.08,-0.88,-0.03,-179.9,-62.7,-1.0,0.37,1.69,-0.06,0.0,0.8841379982785492,1.6138463371709215,0.2745503867603619,0.5,0,0,0.0
2.14278516900049,9,5465.37,-94.1,1.9,-122.6,0.55,1.13,-0.73,0.16,-0.82,-0.06,-180.5,-61.7,6.0,0.39,1.67,-0.08,0.0,0.8376156636548769,1.4533753816547188,0.3146512669563536,0.5,0,0,0.0
2.150784350000322,10,5465.38,-94.1,2.0,-122.4,-0.15,1.55,-0.58,0.23,-0.83,-0.08,-181.2,-62.7,-7.0,0.4,1.72,0.0,0.0,0.8649855490122363,1.6617460696508357,0.28153575396701436,0.5,0,0,0.0
2.1621311830003833,11,5465.39,-94.1,2.0,-122.3,-0.72,2.02,-0.49,0.26,-0.87,-0.09,-181.8,-64.5,-18.0,0.42,1.78,0.0,0.0,0.9124691775616314,2.19974998579384,0.229371082909267,0.5,0,0,0.0
2.1707622920002905,12,5465.4,-94.2,2.1,-122.0,-1.03,2.5,-0.37,0.26,-0.94,-0.09,-182.5,-66.6,-11.0,0.44,1.8,-0.01,0.0,0.979438614717635,2.7290657742165174,0.15915361283819807,0.5,0,0,0.0
2.182145469000716,13,5465.41,-94.3,2.1,-121.8,-0.95,2.98,-0.24,0.23,-1.0,-0.09,-183.1,-66.4,-2.0,0.46,1.8,-0.02,0.0,1.030048542545447,3.136957124348371,0.10637281131017828,0.5,0,0,0.0
2.1906968920002328,14,5465.42,-94.3,2.2,-121.5,-0.66,3.34,-0.05,0.17,-1.03,-0.07,-183.8,-66.0,5.0,0.48,1.77,0.17,0.0,1.0462791214585139,3.4049522757301607,0.08833938774916916,0.5,0,0,0.0
2.2020952940001735,15,5465.43,-94.4,2.3,-121.1,-0.27,3.57,0.18,0.09,-1.05,-0.04,-184.4,-64.1,17.0,0.49,1.7,0.04,0.0,1.0546089322587782,3.5847175620960714,0.07840938540992681,0.5,0,0,0.0
2.2107823020005526,16,5465.44,-94.3,2.3,-120.7,0.12,3.74,0.4,0.01,-1.05,-0.01,-185.0,-59.7,49.0,0.51,1.51,0.06,0.0,1.0500952337764418,3.7632432820640234,0.08126462221441799,0.5,0,0,0.0
2.2220065130004514,17,5465.45,-94.2,2.2,-120.4,0.34,3.77,0.52,-0.04,-1.03,0.0,-185.5,-50.7,73.0,0.52,1.28,-0.23,0.0,1.0307764064044151,3.820850690618517,0.09857178059471572,0.5,0,0,0.0
2.230846195000595,18,5465.46,-94.2,2.2,-120.0,0.34,3.71,0.62,-0.09,-1.01,0.02,-186.0,-42.7,69.0,0.53,1.1,-0.08,0.0,1.0141991914806479,3.7767843465043116,0.11284601560811325,0.5,0,0,0.0
2.242050199000005,19,5465.47,-94.2,2.2,-119.6,0.21,3.62,0.68,-0.11,-0.99,0.03,-186.4,-35.5,74.0,0.54,0.87,-0.11,0.0,0.9965440281292142,3.6892953256685757,0.1278911553803559,0.5,0,0,0.0
2.250744200000554,20,5465.48,-94.1,2.1,-119.2,0.02,3.58,0.73,-0.12,-0.98,0.03,-186.7,-27.1,87.0,0.55,0.61,0.14,0.0,0.9877752780870758,3.6537241275170187,0.13392670731404432,0.5,0,0,0.0
2.2620907440004885,21,5465.49,-94.1,2.1,-118.9,-0.06,3.6,0.78,-0.1,-0.97,0.02,-186.9,-20.0,56.0,0.55,0.51,0.08,0.0,0.9753460924205315,3.6840195439221004,0.14342877512097685,0.5,0,0,0.0
2.2707629420001467,22,5465.5,-94.1,2.0,-118.5,-0.03,3.71,0.8,-0.07,-0.97,0.01,-187.1,-17.6,35.0,0.56,0.45,-0.06,0.0,0.9725739046468397,3.795391942869669,0.14327694363677523,0.5,0,0,0.0
2.2820584710007097,23,5465.51,-94.1,2.0,-118.1,0.01,3.86,0.73,-0.03,-0.96,0.0,-187.2,-12.8,47.0,0.56,0.29,0.09,0.0,0.9604686356149273,3.9284348028190563,0.15227456841531384,0.5,0,0,0.0
2.2907938090002062,24,5465.52,-94.0,1.9,-117.7,0.07,4.01,0.64,0.0,-0.95,0.0,-187.3,-13.6,-8.0,0.57,0.42,-0.13,0.0,0.95,4.061354453873732,0.1594883399496363,0.5,0,0,0.0
2.302029507000043,25,5465.53,-94.0,1.9,-117.3,0.14,4.17,0.54,0.02,-0.95,0.0,-187.5,-16.9,-22.0,0.57,0.49,-0.07,0.0,0.9502105029939418,4.2071486781429535,0.1560922802165805,0.5,0,0,0.0
2.310381674000382,26,5465.54,-93.9,1.8,-116.9,0.27,4.23,0.44,0.01,-0.94,0.0,-187.7,-16.0,8.0,0.58,0.41,0.0,0.0,0.9400531899844816,4.261384751462839,0.16292460136151987,0.5,0,0,0.0
2.321998144000645,27,5465.55,-93.8,1.8,-116.5,0.34,4.17,0.4,0.0,-0.94,0.01,-187.8,-16.1,-2.0,0.58,0.44,0.07,0.0,0.9400531899844816,4.202915654637861,0.15966610933428937,0.5,0,0,0.0
2.3308304280008088,28,5465.56,-93.7,1.8,-116.0,0.32,4.06,0.41,-0.01,-0.95,0.02,-188.0,-15.6,11.0,0.58,0.38,-0.09,0.0,0.9502631214563679,4.093177250010069,0.14646705430515494,0.5,0,0,0.0
2.341978752000614,29,5465.57,-93.6,1.7,-115.6,0.25,3.97,0.47,-0.03,-0.95,0.02,-188.1,-13.0,4.0,0.59,0.38,-0.13,0.0,0.9506839643120104,4.0055336723088475,0.1431252872205222,0.5,0,0,0.0
2.35065323300023,30,5465.58,-93.6,1.7,-115.2,0.18,3.87,0.54,-0.07,-0.97,0.01,-188.3,-14.9,-3.0,0.59,0.4,0.09,0.0,0.9725739046468397,3.9116364861781316,0.11881063994797902,0.5,0,0,0.0
2.362047251000149,31,5465.59,-93.6,1.7,-114.9,0.13,3.71,0.58,-0.12,-0.99,0.01,-188.4,-15.9,-8.0,0.6,0.44,0.05,0.0,0.9972963451251589,3.7573128695917775,0.09220643548026675,0.5,0,0,0.0
2.370513251000375,32,5465.6,-93.6,1.6,-114.5,0.01,3.49,0.67,-0.14,-1.0,0.0,-188.6,-16.1,-12.0,0.6,0.47,0.02,0.0,1.009752444909147,3.553744504040773,0.07815532898235289,0.5,0,0,0.0
2.3820918450001045,33,5465.61,-93.6,1.6,-114.2,-0.1,3.29,0.74,-0.15,-1.03,0.0,-188.7,-16.6,5.0,0.6,0.42,-0.08,0.0,1.0408650248711404,3.3736775186730577,0.04610189403995246,0.5,0,0,0.0
2.390726197000731,34,5465.62,-93.6,1.5,-113.8,-0.09,3.11,0.78,-0.14,-1.04,-0.01,-188.9,-15.9,0.0,0.61,0.44,0.02,0.0,1.0494284158531253,3.2075847611559696,0.036787732996808264,0.5,0,0,0.0
2.4019673270004205,35,5465.63,-93.6,1.5,-113.5,0.0,2.98,0.79,-0.12,-1.05,-0.03,-189.1,-19.0,-23.0,0.61,0.53,-0.15,0.0,1.0572606112023657,3.0829369114531033,0.028376426894616502,0.5,0,0,0.0
2.4105647130008947,36,5465.64,-93.5,1.4,-113.2,0.08,2.84,0.75,-0.09,-1.04,-0.02,-189.3,-20.0,-8.0,0.62,0.54,-0.08,0.0,1.0440785411069418,2.938451973403683,0.04072732705023974,0.5,0,0,0.0
2.4221305330001996,37,5465.65,-93.5,1.3,-112.9,0.03,2.68,0.76,-0.07,-1.03,-0.03,-189.5,-20.9,-25.0,0.63,0.64,0.18,0.0,1.032811696293182,2.7858391913389404,0.05095428842671956,0.5,0,0,0.0
2.4306017170001724,38,5465.66,-93.5,1.2,-112.7,-0.11,2.48,0.81,-0.04,-1.04,-0.04,-189.7,-25.5,-31.0,0.63,0.74,-0.14,0.0,1.041537325303323,2.611244913829417,0.04138408622824685,0.5,0,0,0.0
2.442175344000134,39,5465.67,-93.5,1.1,-112.4,-0.2,2.34,0.93,-0.03,-1.04,-0.05,-190.0,-31.0,-55.0,0.64,0.96,-0.01,0.0,1.041633332799983,2.5259651620717176,0.04046231715695536,0.5,0,0,0.0
2.4507179640004324,40,5465.68,-93.5,1.0,-112.2,-0.06,2.31,1.07,-0.02,-1.05,-0.05,-190.4,-36.2,-46.0,0.65,1.05,0.07,0.0,1.0513800454640558,2.5464877773121155,0.030101292403024837,0.5,0,0,0.0
2.4620368970008712,41,5465.69,-93.5,0.9,-112.0,0.32,2.32,1.19,-0.02,-1.04,-0.05,-190.8,-40.9,-47.0,0.66,1.18,0.14,0.0,1.0413932974625868,2.6269564137990566,0.03928627959640396,0.5,0,0,0.0
2.4705922850007482,42,5465.7,-93.4,0.7,-111.7,0.65,2.33,1.26,-0.02,-1.0,-0.04,-191.2,-44.8,-39.0,0.68,1.26,0.06,0.0,1.000999500499376,2.7274530243434074,0.07808647502842248,0.5,0,0,0.0
2.482072481000614,43,5465.71,-93.3,0.6,-111.5,0.78,2.33,1.29,-0.03,-0.97,-0.04,-191.7,-48.7,-35.0,0.69,1.36,-0.08,0.0,0.9712878049270464,2.775139636126442,0.10564220718873707,0.5,0,0,0.0
2.4906130250001297,44,5465.72,-93.3,0.5,-111.2,0.69,2.28,1.29,-0.04,-0.95,-0.04,-192.2,-50.7,-23.0,0.7,1.39,0.07,0.0,0.9516827202382105,2.7089850497926338,0.12274234604002143,0.5,0,0,0.0
2.502095185000144,45,5465.73,-93.2,0.3,-111.0,0.45,2.22,1.28,-0.05,-0.95,-0.04,-192.7,-50.7,0.0,0.72,1.35,0.01,0.0,0.9521554494934112,2.601787846846856,0.11982422444912433,0.5,0,0,0.0
2.5107517020005616,46,5465.74,-93.1,0.2,-110.8,0.34,2.11,1.26,-0.05,-0.96,-0.04,-193.2,-48.0,27.0,0.73,1.23,0.03,0.0,0.9621330469326994,2.480987706539474,0.10764969446963946,0.5,0,0,0.0
2.5221391260001838,47,5465.75,-93.1,0.0,-110.6,0.42,2.03,1.27,-0.05,-0.97,-0.05,-193.7,-44.7,23.0,0.74,1.19,0.03,0.0,0.9725739046468396,2.431090290384131,0.09526466002038925,0.5,0,0,0.0
2.530487706000713,48,5465.76,-93.1,0.0,-110.4,0.58,1.97,1.31,-0.05,-0.96,-0.06,-194.1,-41.9,30.0,0.75,1.09,0.13,0.0,0.96317184344228,2.4358571386680294,0.10257338680044992,0.5,0,0,0.0
2.5420872160002546,49,5465.77,-93.0,-0.2,-110.2,0.72,1.94,1.35,-0.05,-0.96,-0.07,-194.5,-38.7,30.0,0.76,1.0,-0.2,0.0,0.9638464608017192,2.4707286374670936,0.0998607940521905,0.5,0,0,0.0
2.5506709950004733,50,5465.78,-92.9,-0.4,-110.0,0.8,1.93,1.36,-0.06,-0.96,-0.07,-194.9,-34.5,47.0,0.77,0.86,0.01,0.0,0.9644169222903547,2.4928898892650677,0.097304525912284,0.5,0,0,0.0
2.5620433580006647,51,5465.79,-92.9,-0.5,-109.8,0.84,1.91,1.33,-0.07,-0.97,-0.07,-195.2,-28.8,51.0,0.78,0.7,-0.03,0.0,0.9750384607798812,2.4743888134244383,0.0849493276743023,0.5,0,0,0.0
2.5706484940001246,52,5465.8,-92.8,-0.7,-109.6,0.94,1.86,1.25,-0.08,-0.98,-0.06,-195.4,-21.1,80.0,0.79,0.45,-0.06,0.0,0.9850888284819801,2.4301646034785382,0.07340098077275936,0.5,0,0,0.0
2.582033218000106,53,5465.81,-92.7,-0.8,-109.4,1.07,1.78,1.13,-0.09,-0.97,-0.06,-195.5,-12.6,71.0,0.79,0.28,0.0,0.0,0.976012295004525,2.3643603786225142,0.08082796396521019,0.5,0,0,0.0
2.5908416570000554,54,5465.82,-92.6,-1.0,-109.2,1.15,1.65,0.97,-0.1,-0.97,-0.07,-195.6,-5.5,75.0,0.79,0.06,-0.07,0.0,0.9776502442080194,2.2329128957485107,0.07760621446648142,0.5,0,0,0.0
2.6020901630008666,55,5465.83,-92.5,-1.1,-109.0,1.22,1.5,0.81,-0.11,-0.96,-0.06,-195.6,0.0,48.0,0.79,-0.02,-0.01,0.0,0.9681425514871248,2.096306275332877,0.0853716290436285,0.5,0,0,0.0
2.610660929000005,56,5465.84,-92.4,-1.3,-108.9,1.23,1.3,0.62,-0.12,-0.96,-0.07,-195.6,0.1,8.0,0.79,0.0,0.0,0.0,0.97,1.8940168953839878,0.08184389692013827,0.5,0,0,0.0
2.6220625290006865,57,5465.85,-92.3,-1.3,-108.8,1.19,1.14,0.43,-0.13,-0.97,-0.07,-195.6,0.1,6.0,0.79,0.0,0.0,0.0,0.981172767661231,1.7031147935473991,0.06925770667372921,0.5,0,0,0.0
2.6308469530004004,58,5465.86,-92.2,-1.4,-108.7,1.15,0.92,0.24,-0.13,-0.98,-0.08,-195.6,0.1,2.0,0.79,0.0,-0.09,0.0,0.9918165152889923,1.4921461054467822,0.057441679865048445,0.5,0,0,0.0
2.6421408810001594,59,5465.87,-92.1,-1.4,-108.6,1.22,0.75,0.1,-0.13,-0.99,-0.08,-195.6,0.1,3.0,0.79,-0.01,0.05,0.0,1.0016985574512924,1.4355835050598762,0.04660844494869343,0.5,0,0,0.0
2.6506911690003108,60,5465.88,-92.0,-1.4,-108.5,1.33,0.54,-0.02,-0.12,-0.99,-0.08,-195.6,-0.3,-3.0,0.79,0.01,0.11,0.0,1.0004498987955368,1.4355835050598764,0.04689996153235998,0.5,0,0,0.0
2.662087812000209,61,5465.89,-91.8,-1.4,-108.5,1.43,0.31,-0.13,-0.11,-0.99,-0.07,-195.6,0.0,0.0,0.79,0.0,0.0,0.0,0.9985489472229191,1.4689792374298554,0.04782489484287822,0.5,0,0,0.0
2.6708350140006587,62,5465.9,-91.7,-1.5,-108.5,1.46,0.09,-0.24,-0.11,-0.99,-0.08,-195.6,0.0,-1.0,0.79,0.0,-0.15,0.0,0.9992997548283498,1.482329248176666,0.04613260549269871,0.5,0,0,0.0
2.682190176000404,63,5465.91,-91.6,-1.5,-108.5,1.42,-0.09,-0.34,-0.11,-0.99,-0.08,-195.6,0.0,1.0,0.79,0.0,0.01,0.0,0.9992997548283498,1.4629080627298492,0.045209953382844725,0.5,0,0,0.0
2.690618153000287,64,5465.92,-91.5,-1.5,-108.5,1.42,-0.25,-0.41,-0.11,-0.98,-0.08,-195.6,-0.4,-1.0,0.79,0.0,0.01,0.0,0.9893937537704591,1.498999666444259,0.05401363535192072,0.5,0,0,0.0
2.702194731000418,65,5465.93,-91.3,-1.4,-108.5,1.42,-0.4,-0.48,-0.11,-0.97,-0.08,-195.6,-0.5,-2.0,0.79,0.01,-0.03,0.0,0.9794896630388704,1.5513864766717544,0.0626393715618393,0.5,0,0,0.0
2.710665094000433,66,5465.94,-91.2,-1.4,-108.6,1.36,-0.52,-0.57,-0.1,-0.95,-0.09,-195.7,-1.8,-13.0,0.79,0.07,-0.09,0.0,0.9594790253048786,1.563617600310255,0.08099700910991459,0.5,0,0,0.0
2.721943817000465,67,5465.95,-91.1,-1.3,-108.6,1.23,-0.61,-0.68,-0.09,-0.94,-0.1,-195.7,-5.4,-33.0,0.79,0.19,-0.07,0.0,0.9495788540189803,1.532122710490253,0.08907923678789664,0.5,0,0,0.0
2.730647004000275,68,5465.96,-91.0,-1.2,-108.7,0.93,-0.64,-0.77,-0.07,-0.92,-0.1,-195.8,-11.5,-47.0,0.8,0.35,0.05,0.0,0.9280624978954812,1.3665284482951683,0.10838368105316776,0.5,0,0,0.0
2.7419551290004165,69,5465.97,-90.9,-1.1,-108.8,0.48,-0.65,-0.82,-0.06,-0.9,-0.11,-196.0,-17.7,-69.0,0.8,0.58,0.12,0.0,0.9086803618434813,1.1512167476196653,0.1252105007630644,0.5,0,0,0.0
2.750599303000854,70,5465.98,-90.9,-1.1,-108.8,0.01,-0.62,-0.81,-0.05,-0.9,-0.12,-196.2,-27.3,-83.0,0.81,0.83,0.0,0.0,0.9093404203047393,1.0200980345045274,0.1220594334557703,0.5,0,0,0.0
2.7620830200003184,71,5465.99,-90.9,-1.0,-108.9,-0.31,-0.54,-0.82,-0.04,-0.91,-0.12,-196.5,-36.8,-104.0,0.82,1.16,0.3,0.0,0.9187491496594705,1.0296115772464876,0.11039769001901834,0.5,0,0,0.0
2.776218771000458,72,5466.0,-90.9,-0.9,-108.9,-0.5,-0.36,-0.73,-0.03,-0.91,-0.14,-197.0,-49.4,-128.0,0.84,1.61,0.01,0.0,0.9211948762341223,0.9552486587271399,0.10579292417547925,0.5,0,0,0.0
2.7861436020002657,73,5466.01,-91.1,-0.8,-109.0,-0.52,0.04,-0.57,-0.02,-0.94,-0.12,-197.8,-65.6,-144.0,0.86,1.95,-0.06,0.0,0.9478396488858228,0.7725930364687479,0.07756518849330318,0.5,0,0,0.0
2.794811253000262,74,5466.02,-91.2,-0.7,-108.9,-0.46,0.13,-0.54,-0.04,-0.95,-0.11,-198.5,-76.0,-113.0,0.88,2.2,-0.1,0.0,0.957183368012629,0.7211795892841116,0.06685703997916714,0.5,0,0,0.0
2.8061023620002743,75,5466.03,-91.3,-0.7,-108.9,-0.5,0.15,-0.52,-0.06,-0.94,-0.1,-199.3,-84.8,-97.0,0.9,2.44,0.26,0.0,0.9472064188971694,0.7368174807915459,0.07529730931273426,0.5,0,0,0.0
2.814610301000357,76,5466.04,-91.4,-0.7,-108.9,-0.75,0.07,-0.52,-0.07,-0.95,-0.1,-200.2,-92.9,-84.0,0.93,2.64,-0.05,0.0,0.9578100020358944,0.9153141537199128,0.06339985165052897,0.5,0,0,0.0
2.8261287860004813,77,5466.05,-91.5,-0.6,-108.9,-0.89,-0.1,-0.56,-0.1,-0.98,-0.09,-201.2,-99.8,-66.0,0.96,2.78,-0.04,0.0,0.9891915891272024,1.0562670116973265,0.03137789926803658,0.5,0,0,0.0
2.8347209340008703,78,5466.06,-91.6,-0.6,-108.9,-1.07,-0.39,-0.63,-0.13,-0.99,-0.08,-202.2,-103.7,-44.0,0.99,2.86,0.0,0.0,1.0016985574512924,1.3014991356124674,0.018493512325067574,0.5,0,0,0.0
2.8460519200007184,79,5466.07,-91.7,-0.5,-109.0,-1.23,-0.76,-0.63,-0.16,-0.99,-0.05,-203.3,-107.4,-34.0,1.01,2.96,0.08,0.0,1.0040916292848974,1.5771493271088823,0.015778431681633398,0.5,0,0,0.0
2.854673355000159,80,5466.08,-91.8,-0.4,-109.1,-1.54,-1.08,-0.51,-0.16,-0.99,-0.07,-204.4,-110.1,-33.0,1.04,3.05,0.16,0.0,1.0052860289489753,1.9488714683118535,0.014292351377204415,0.5,0,0,0.0
2.866243062000649,81,5466.09,-92.0,-0.4,-109.2,-1.61,-1.31,-0.43,-0.15,-1.03,-0.08,-205.5,-113.7,-36.0,1.08,3.15,0.04,0.0,1.0439348638684312,2.1196933740520114,0.023869353871406318,0.5,0,0,0.0
2.8745804480004153,82,5466.1,-92.1,-0.4,-109.4,-1.48,-1.58,-0.48,-0.14,-1.04,-0.06,-206.7,-116.4,-24.0,1.11,3.18,0.0,0.0,1.051094667477673,2.217476042711623,0.030408574331035387,0.5,0,0,0.0
2.8862700210002004,83,5466.11,-92.3,-0.3,-109.6,-1.39,-1.92,-0.54,-0.13,-1.02,-0.06,-207.9,-119.0,-26.0,1.14,3.28,0.07,0.0,1.03,2.431069723393387,0.009127628716295133,0.5,0,0,0.0
2.8946550540003955,84,5466.12,-92.4,-0.3,-109.8,-1.38,-2.14,-0.56,-0.11,-1.02,-0.05,-209.1,-121.4,-18.0,1.17,3.32,-0.08,0.0,1.0271319292087069,2.607220742476555,0.00613436676650192,0.5,0,0,0.0
2.9060938090005948,85,5466.13,-92.6,-0.4,-110.0,-1.66,-2.26,-0.39,-0.08,-1.04,-0.05,-210.3,-123.0,-26.0,1.21,3.41,-0.03,0.0,1.044270080008041,2.831130516242584,0.022807067214519305,0.5,0,0,0.0
2.9145311930005846,86,5466.14,-92.8,-0.4,-110.2,-1.89,-2.25,0.02,-0.02,-1.12,-0.04,-211.5,-126.4,-23.0,1.24,3.47,-0.04,0.0,1.1208925015361644,2.938537050983023,0.09744089896778996,0.5,0,0,0.0
2.926069071000711,87,5466.15,-92.9,-0.4,-110.4,-1.62,-1.98,0.61,0.05,-1.24,-0.03,-212.8,-128.0,-20.0,1.28,3.5,0.04,0.0,1.2413702106946178,2.63,0.21356023596371854,0.5,0,0,0.0
2.934647932000189,88,5466.16,-93.0,-0.5,-110.6,-0.81,-1.75,1.15,0.13,-1.31,0.0,-214.1,-129.9,-13.0,1.31,3.53,0.05,0.0,1.3164345787011218,2.2452394081700953,0.28285211189081805,0.5,0,0,0.0
2.946123677000287,89,5466.17,-93.1,-0.6,-110.8,0.51,-1.58,1.55,0.16,-1.3,0.02,-215.4,-130.2,-8.0,1.35,3.56,-0.14,0.0,1.3099618315050252,2.2713432149281183,0.270851777400827,0.5,0,0,0.0
2.9546408170008363,90,5466.18,-92.9,-0.8,-110.9,1.41,-1.51,1.49,0.11,-1.19,0.02,-216.7,-131.3,-5.0,1.38,3.55,0.1,0.0,1.195240561560726,2.5472141645334814,0.15300789730739717,0.5,0,0,0.0
2.9661131630000455,91,5466.19,-92.8,-0.9,-111.1,1.31,-1.57,1.21,0.01,-1.07,0.05,-218.0,-131.1,-1.0,1.42,3.56,-0.05,0.0,1.0712142642814275,2.3759419184820154,0.028401968027536695,0.5,0,0,0.0
2.97453259500071,92,5466.2,-92.7,-1.0,-111.2,0.46,-1.8,0.85,-0.08,-1.02,0.1,-219.3,-130.7,3.0,1.45,3.54,-0.2,0.0,1.0280077820717117,2.0430614283471753,0.014508423898535572,0.5,0,0,0.0
2.986082382000859,93,5466.21,-92.6,-1.1,-111.4,-0.3,-2.24,0.36,-0.16,-1.04,0.12,-220.7,-130.9,-4.0,1.49,3.59,0.09,0.0,1.0590561835898982,2.2884929538890875,0.016209178067257746,0.5,0,0,0.0
2.994533430000047,94,5466.22,-92.7,-1.1,-111.7,-0.48,-2.75,-0.12,-0.21,-1.06,0.13,-222.0,-132.8,-15.0,1.53,3.64,0.04,0.0,1.088393311262064,2.7941546127585712,0.04463537962463526,0.5,0,0,0.0
3.0060579160008274,95,5466.23,-92.7,-1.1,-112.0,-0.3,-3.2,-0.43,-0.22,-1.03,0.11,-223.3,-136.9,-40.0,1.56,3.82,-0.05,0.0,1.0589617556833675,3.242668654056409,0.014899747565019883,0.5,0,0,0.0
3.0145404450004207,96,5466.24,-92.7,-1.1,-112.3,-0.02,-3.55,-0.5,-0.19,-0.98,0.1,-224.7,-143.5,-58.0,1.6,4.01,-0.1,0.0,1.0032447358446492,3.5850941410233568,0.040000926828224426,0.5,0,0,0.0
3.026029781000034,97,5466.25,-92.7,-1.1,-112.7,0.13,-3.86,-0.4,-0.13,-0.94,0.08,-226.2,-151.9,-84.0,1.65,4.28,0.14,0.0,0.9523129737644027,3.8828468937108505,0.08911403513030147,0.5,0,0,0.0
3.0345672290004586,98,5466.26,-92.7,-1.0,-113.1,0.17,-4.11,-0.21,-0.04,-0.9,0.07,-227.8,-161.7,-94.0,1.69,4.55,0.09,0.0,0.9036038955205982,4.118871204589918,0.13506665110662397,0.5,0,0,0.0
3.0460807360004765,99,5466.27,-92.6,-1.0,-113.5,0.18,-4.28,0.0,0.03,-0.89,0.06,-229.5,-173.0,-108.0,1.74,4.85,-0.12,0.0,0.8925245094673872,4.283783374541715,0.14322311641663832,0.5,0,0,0.0
3.054652496000017,100,5466.28,-92.6,-1.1,-113.9,0.2,-4.29,0.2,0.09,-0.9,0.05,-231.3,-183.5,-100.0,1.79,5.13,-0.03,0.0,0.905869747811461,4.299313898751753,0.12728032051111327,0.5,0,0,0.0
3.0662547570000243,101,5466.29,-92.6,-1.1,-114.4,0.29,-4.19,0.31,0.11,-0.92,0.05,-233.2,-192.6,-87.0,1.84,5.32,0.0,0.0,0.9279008567729636,4.211448681867084,0.1031442273186185,0.5,0,0,0.0
3.0747652740001286,102,5466.3,-92.5,-1.2,-114.8,0.45,-4.1,0.38,0.11,-0.94,0.06,-235.2,-196.4,-36.0,1.89,5.32,0.12,0.0,0.9483142938920619,4.142088845015278,0.08107617439552972,0.5,0,0,0.0
3.0861915050008975,103,5466.31,-92.5,-1.2,-115.2,0.61,-3.91,0.39,0.1,-0.94,0.05,-237.1,-193.6,18.0,1.95,5.15,-0.06,0.0,0.9466255859631092,3.976468282282659,0.08110958467799279,0.5,0,0,0.0
3.0947029760000078,104,5466.32,-92.4,-1.3,-115.6,0.63,-3.71,0.33,0.1,-0.96,0.05,-239.0,-183.6,92.0,2.0,4.77,-0.19,0.0,0.9664884893261791,3.7775521174432525,0.06002174768862445,0.5,0,0,0.0
3.106185872000424,105,5466.33,-92.3,-1.3,-115.9,0.54,-3.51,0.18,0.09,-0.97,0.06,-240.7,-167.7,147.0,2.04,4.28,-0.09,0.0,0.976012295004525,3.555854327724914,0.04948798317007308,0.5,0,0,0.0
3.1147806100007074,106,5466.34,-92.3,-1.4,-116.3,0.36,-3.36,0.02,0.08,-0.98,0.07,-242.3,-148.2,183.0,2.08,3.7,-0.14,0.0,0.9857484466130291,3.379289866229294,0.038956794930337546,0.5,0,0,0.0
3.126099135000004,107,5466.35,-92.2,-1.4,-116.6,0.28,-3.29,-0.15,0.07,-0.98,0.07,-243.6,-123.2,251.0,2.11,2.9,0.04,0.0,0.9849873095629201,3.305298776207682,0.038923573340837625,0.5,0,0,0.0
3.134699501000796,108,5466.36,-92.2,-1.4,-116.9,0.22,-3.21,-0.26,0.06,-0.99,0.06,-244.6,-92.3,297.0,2.13,2.01,-0.08,0.0,0.9936297097007517,3.228017967731902,0.029675549738945928,0.5,0,0,0.0
3.146207832000073,109,5466.37,-92.2,-1.3,-117.2,0.12,-3.16,-0.36,0.03,-1.0,0.05,-245.3,-57.4,347.0,2.15,0.97,-0.29,0.0,1.0016985574512922,3.182703253525217,0.021174567948637257,0.5,0,0,0.0
3.154626618000293,110,5466.38,-92.1,-1.3,-117.6,0.0,-3.13,-0.4,0.0,-1.01,0.05,-245.6,-17.3,384.0,2.15,-0.09,-0.02,0.0,1.011236866416568,3.1554555930958683,0.011403533803694188,0.5,0,0,0.0
3.1660705830008737,111,5466.39,-92.0,-1.2,-117.9,0.0,-3.12,-0.5,-0.02,-1.03,0.05,-245.5,15.9,310.0,2.14,-0.77,0.06,0.0,1.031406806260265,3.159810120877519,0.008591077919202661,0.5,0,0,0.0
3.1746628150003744,112,5466.4,-92.0,-1.2,-118.2,0.0,-3.11,-0.62,-0.04,-1.03,0.05,-245.2,38.9,259.0,2.13,-1.38,-0.13,0.0,1.0319883720275147,3.17119851160409,0.008989190812723313,0.5,0,0,0.0
3.1860842290006985,113,5466.41,-91.9,-1.2,-118.5,-0.01,-3.18,-0.76,-0.05,-1.03,0.05,-244.7,60.6,224.0,2.11,-1.96,0.03,0.0,1.0324243313676793,3.2695718374123546,0.00923664714983019,0.5,0,0,0.0
3.194693649000328,114,5466.42,-91.9,-1.1,-118.8,-0.07,-3.27,-0.87,-0.05,-1.02,0.05,-243.9,83.2,227.0,2.09,-2.6,-0.42,0.0,1.0224480426897007,3.3844792804802335,0.0007248486975854895,0.5,0,0,0.0
3.2062111460008964,115,5466.43,-91.8,-1.0,-119.2,-0.07,-3.38,-0.96,-0.04,-1.0,0.05,-242.9,107.5,248.0,2.06,-3.28,-0.07,0.0,1.0020479030465559,3.514384725666784,0.020702488573915767,0.5,0,0,0.0
3.214757907000603,116,5466.44,-91.8,-1.0,-119.5,-0.05,-3.49,-1.02,-0.02,-1.0,0.05,-241.7,130.8,230.0,2.02,-3.92,0.0,0.0,1.0014489502715553,3.636344318130504,0.02087541252193792,0.5,0,0,0.0
3.226073250000809,117,5466.45,-91.7,-0.9,-119.9,-0.05,-3.58,-0.98,0.0,-0.98,0.03,-240.2,154.4,241.0,1.98,-4.57,-0.27,0.0,0.9804590761474953,3.7120479522764787,0.04102798091307791,0.5,0,0,0.0
3.2346445520006455,118,5466.46,-91.7,-0.8,-120.2,-0.08,-3.61,-0.92,0.02,-0.99,0.01,-238.5,179.6,248.0,1.93,-5.27,-0.07,0.0,0.9902524930541705,3.7262447584666254,0.03060987272627469,0.5,0,0,0.0
3.246262960000422,119,5466.47,-91.7,-0.7,-120.6,-0.08,-3.56,-0.87,0.05,-1.0,-0.02,-236.5,206.6,262.0,1.87,-6.01,-0.34,0.0,1.0014489502715553,3.665637734419483,0.019025147198712178,0.5,0,0,0.0
3.2548048350008685,120,5466.48,-91.7,-0.5,-121.0,-0.04,-3.42,-0.81,0.07,-1.01,-0.04,-234.3,231.4,240.0,1.8,-6.62,0.0,0.0,1.0132127121192271,3.5148399679075006,0.007116157644019516,0.5,0,0,0.0
3.2661848790003205,121,5466.49,-91.7,-0.4,-121.3,0.02,-3.23,-0.79,0.08,-1.02,-0.05,-231.8,252.8,223.0,1.73,-7.19,0.1,0.0,1.02435345462394,3.325266906580583,0.003944093163479323,0.5,0,0,0.0
3.27477633000035,122,5466.5,-91.7,-0.3,-121.6,0.12,-3.07,-0.8,0.09,-1.0,-0.05,-229.1,274.2,212.0,1.66,-7.74,-0.18,0.0,1.0052860289489753,3.1747913317255985,0.014820865861255639,0.5,0,0,0.0
3.28632235600071,123,5466.51,-91.7,-0.2,-121.9,0.09,-2.89,-0.81,0.07,-0.98,-0.07,-226.2,293.4,199.0,1.58,-8.24,-0.11,0.0,0.9849873095629201,3.0027154377329865,0.03441719354236461,0.5,0,0,0.0
3.298669462000362,124,5466.52,-91.7,-0.1,-122.2,0.06,-2.69,-0.85,0.06,-0.97,-0.09,-223.2,309.4,164.0,1.49,-8.66,0.04,0.0,0.976012295004525,2.8217370536603865,0.04252436393874459,0.5,0,0,0.0
3.306666733000384,125,5466.53,-91.8,0.0,-122.4,0.03,-2.49,-0.92,0.05,-0.96,-0.09,-220.0,325.9,168.0,1.4,-9.09,0.23,0.0,0.9655050491841044,2.6546939559956813,0.051970977563981835,0.5,0,0,0.0
3.314659193000807,126,5466.54,-91.8,0.1,-122.7,-0.05,-2.26,-0.98,0.04,-0.95,-0.1,-216.6,338.4,111.0,1.31,-9.26,-0.21,0.0,0.9560857702110204,2.46383846873126,0.06016245140632459,0.5,0,0,0.0
3.3261120190009024,127,5466.55,-91.9,0.2,-122.9,-0.06,-2.06,-1.03,0.04,-0.95,-0.1,-213.2,340.7,44.0,1.22,-9.28,0.08,0.0,0.9560857702110204,2.3039314225905247,0.05895920237819818,0.5,0,0,0.0
3.334669894000399,128,5466.56,-91.9,0.3,-123.1,0.02,-1.87,-1.01,0.06,-0.94,-0.11,-209.8,344.1,41.0,1.12,-9.39,0.03,0.0,0.9483142938920619,2.125417606024755,0.0653960651232135,0.5,0,0,0.0
3.3460392670003785,129,5466.57,-91.9,0.4,-123.3,0.09,-1.66,-0.94,0.09,-0.94,-0.13,-206.4,341.4,-41.0,1.03,-9.09,0.07,0.0,0.9532051195833979,1.9097905644337025,0.05929513464323999,0.5,0,0,0.0
3.3547543670001687,130,5466.58,-91.9,0.5,-123.4,0.14,-1.41,-0.83,0.11,-0.96,-0.15,-203.0,327.5,-107.0,0.94,-8.72,0.04,0.0,0.9778547949465708,1.6421327595538673,0.03395255009446574,0.5,0,0,0.0
3.3660908760002712,131,5466.59,-91.9,0.6,-123.6,0.16,-1.12,-0.75,0.13,-0.98,-0.16,-199.8,315.7,-116.0,0.86,-8.35,0.03,0.0,1.0014489502715553,1.357387196049823,0.010151226874091535,0.5,0,0,0.0
3.3745587040002647,132,5466.6,-91.9,0.6,-123.7,0.18,-0.89,-0.64,0.14,-0.99,-0.16,-196.8,297.9,-175.0,0.78,-7.76,0.01,0.0,1.0125709851659783,1.1109005356016353,0.0009513918599248772,0.5,0,0,0.0
3.3860625350007467,133,5466.61,-91.8,0.7,-123.7,0.27,-0.64,-0.54,0.13,-1.01,-0.17,-194.0,276.4,-191.0,0.7,-7.22,0.03,0.0,1.0324243313676793,0.8798295289429652,0.02038864330039325,0.5,0,0,0.0
3.394559945000765,134,5466.62,-91.8,0.7,-123.8,0.39,-0.43,-0.41,0.12,-1.0,-0.16,-191.3,259.9,-154.0,0.63,-6.89,0.09,0.0,1.019803902718557,0.7107038764492564,0.007612850358245549,0.5,0,0,0.0
3.4059748880008556,135,5466.63,-91.8,0.8,-123.8,0.54,-0.29,-0.28,0.1,-0.98,-0.15,-188.8,249.3,-120.0,0.57,-6.63,0.09,0.0,0.9964436762808021,0.6738694235532579,0.015432428557919153,0.5,0,0,0.0
3.4187624370006233,136,5466.64,-91.7,0.8,-123.9,0.66,-0.17,-0.12,0.09,-0.96,-0.15,-186.4,240.1,-96.0,0.5,-6.4,0.0,0.0,0.9758073580374356,0.6920260110718383,0.035347371865259936,0.5,0,0,0.0
3.430747144000634,137,5466.65,-91.6,0.8,-123.9,0.78,-0.01,0.05,0.08,-0.94,-0.16,-184.0,234.7,-54.0,0.44,-6.34,-0.08,0.0,0.9568698971124548,0.7816648898345121,0.05319913613443583,0.5,0,0,0.0
3.4384970810006052,138,5466.66,-91.5,0.8,-123.9,0.81,0.15,0.13,0.08,-0.94,-0.15,-181.7,234.8,-6.0,0.38,-6.42,-0.08,0.0,0.9552486587271399,0.8339664261827332,0.05372396702935578,0.5,0,0,0.0
3.446733363000021,139,5466.67,-91.5,0.8,-123.8,0.8,0.27,0.19,0.08,-0.92,-0.15,-179.3,236.3,3.0,0.31,-6.41,-0.02,0.0,0.9355746896961247,0.8654478609367523,0.07192997733916362,0.5,0,0,0.0
3.454727264000212,140,5466.68,-91.4,0.7,-123.8,0.77,0.48,0.24,0.09,-0.91,-0.16,-176.9,237.4,18.0,0.25,-6.51,0.06,0.0,0.9283318372220141,0.9385627309881849,0.07758937321700865,0.5,0,0,0.0
3.466251306000231,141,5466.69,-91.3,0.7,-123.7,0.75,0.7,0.3,0.1,-0.89,-0.17,-174.5,242.2,47.0,0.18,-6.69,0.05,0.0,0.9115920140062659,1.0688779163215976,0.0924426125041018,0.5,0,0,0.0
3.474756728000102,142,5466.7,-91.2,0.7,-123.7,0.75,0.95,0.38,0.11,-0.89,-0.18,-172.1,250.2,70.0,0.11,-6.91,-0.05,0.0,0.91465840618233,1.2686212988910441,0.08758869592147689,0.5,0,0,0.0
3.4860870970005635,143,5466.71,-91.1,0.6,-123.5,0.74,1.23,0.45,0.12,-0.89,-0.19,-169.5,255.1,35.0,0.04,-6.94,0.17,0.0,0.9179324593890337,1.5043270920913443,0.08262834986047762,0.5,0,0,0.0
3.4947195260001536,144,5466.72,-91.1,0.6,-123.4,0.73,1.5,0.54,0.14,-0.88,-0.19,-167.0,256.4,28.0,-0.02,-7.03,0.0,0.0,0.9110982383914481,1.7534252193920332,0.08767331944090195,0.5,0,0,0.0
3.5062070950007183,145,5466.73,-91.0,0.5,-123.2,0.67,1.76,0.62,0.15,-0.88,-0.2,-164.4,260.3,39.0,-0.09,-7.12,0.16,0.0,0.9148223871331528,1.9826497421380307,0.08227018728521329,0.5,0,0,0.0
3.514684951000163,146,5466.74,-90.9,0.5,-123.0,0.56,1.99,0.7,0.15,-0.9,-0.2,-161.8,261.0,-8.0,-0.16,-6.99,0.07,0.0,0.9340770846134703,2.182590204321462,0.06175518000879787,0.5,0,0,0.0
3.526235318000545,147,5466.75,-90.9,0.4,-122.8,0.48,2.2,0.8,0.14,-0.92,-0.2,-159.2,252.5,-69.0,-0.23,-6.69,-0.09,0.0,0.9518403227432635,2.389644324999016,0.04311210304142454,0.5,0,0,0.0
3.5346600390003005,148,5466.76,-90.8,0.3,-122.6,0.49,2.34,0.91,0.12,-0.93,-0.19,-156.8,239.2,-120.0,-0.29,-6.26,0.24,0.0,0.9567653839891994,2.558085221410733,0.0374233009595788,0.5,0,0,0.0
3.5467019270008677,149,5466.77,-90.8,0.2,-122.4,0.5,2.45,1.02,0.11,-0.94,-0.17,-154.5,221.9,-169.0,-0.35,-5.72,0.08,0.0,0.9615612304996495,2.700536983638625,0.03197490536014613,0.5,0,0,0.0
3.5546248660002675,150,5466.78,-90.7,0.1,-122.1,0.47,2.47,1.05,0.1,-0.94,-0.15,-152.4,200.8,-204.0,-0.4,-5.08,0.0,0.0,0.9571311299921239,2.7247568698876607,0.03567690575031823,0.5,0,0,0.0
3.5659658710001167,151,5466.79,-90.7,0.0,-121.9,0.4,2.48,1.1,0.08,-0.93,-0.15,-150.6,172.0,-288.0,-0.45,-4.15,0.08,0.0,0.9454099639838793,2.7423347716863455,0.046450110323391525,0.5,0,0,0.0
3.574816139000177,152,5466.8,-90.7,0.0,-121.6,0.27,2.51,1.21,0.04,-0.91,-0.15,-149.1,136.2,-344.0,-0.48,-3.11,0.18,0.0,0.9231467922275417,2.7994820949597083,0.06733901643813456,0.5,0,0,0.0
3.586136615000214,153,5466.81,-90.6,-0.1,-121.4,0.16,2.59,1.33,0.02,-0.91,-0.14,-148.0,99.2,-351.0,-0.51,-2.16,0.24,0.0,0.9209234495874237,2.9159218096512807,0.06817111189668756,0.5,0,0,0.0
3.5944839220001086,154,5466.82,-90.7,-0.2,-121.1,0.03,2.57,1.33,0.01,-0.93,-0.1,-147.3,63.8,-346.0,-0.52,-1.24,0.17,0.0,0.9354143466934854,2.893907393127845,0.0526066104948133,0.5,0,0,0.0
3.6063896930008923,155,5466.83,-90.7,-0.4,-120.8,-0.08,2.42,1.25,0.01,-0.94,-0.07,-146.9,31.5,-315.0,-0.53,-0.44,0.07,0.0,0.9426558226627574,2.724940366319968,0.04445783183503049,0.5,0,0,0.0
3.618597083000168,156,5466.84,-90.8,-0.5,-120.6,-0.17,2.22,1.15,0.01,-0.92,-0.08,-146.7,3.1,-287.0,-0.53,0.23,0.07,0.0,0.9235258523723091,2.5059529125663955,0.062316046082969145,0.5,0,0,0.0
3.6265745210002933,157,5466.85,-90.8,-0.6,-120.4,-0.19,2.06,1.09,0.02,-0.9,-0.12,-146.8,-10.6,-135.0,-0.53,0.32,0.02,0.0,0.9081850031794183,2.3383327393679454,0.0761037573703427,0.5,0,0,0.0
3.6347577150008874,158,5466.86,-90.9,-0.7,-120.2,-0.15,2.03,1.1,0.03,-0.9,-0.17,-147.0,-16.1,-113.0,-0.52,0.66,0.05,0.0,0.9164060235506967,2.313741558601565,0.06652508225908305,0.5,0,0,0.0
3.6460993640002926,159,5466.87,-90.9,-0.8,-120.0,-0.2,2.13,1.11,0.03,-0.93,-0.19,-147.2,-31.9,-150.0,-0.51,1.13,0.32,0.0,0.9496841580230767,2.410186714758838,0.032582008830968956,0.5,0,0,0.0
3.6546673890006787,160,5466.88,-90.9,-0.9,-119.7,-0.61,2.35,0.91,0.02,-1.05,-0.19,-147.7,-52.8,-198.0,-0.49,1.75,0.01,0.0,1.067239429556461,2.5928170008699034,0.08327379744836694,0.5,0,0,0.0
3.666276320000179,161,5466.89,-91.0,-0.9,-119.5,-1.42,2.63,0.46,-0.05,-1.18,-0.17,-148.4,-71.5,-176.0,-0.47,2.19,-0.24,0.0,1.1932309080810803,3.0240535709540595,0.20507997045352666,0.5,0,0,0.0
3.6747865640008968,162,5466.9,-91.2,-1.0,-119.2,-1.79,2.62,-0.07,-0.05,-1.22,-0.12,-149.2,-91.6,-221.0,-0.45,2.91,0.07,0.0,1.226906679417795,3.173862000780752,0.23398062695443644,0.5,0,0,0.0
3.685975299000347,163,5466.91,-91.5,-0.9,-119.0,-1.62,2.51,-0.47,0.0,-1.2,-0.14,-150.3,-122.9,-309.0,-0.41,3.89,0.22,0.0,1.2081390648431165,3.0241362403172247,0.21090875213216287,0.5,0,0,0.0
3.6946641460008323,164,5466.92,-91.6,-0.9,-118.7,-1.36,2.27,-0.71,0.03,-1.12,-0.16,-151.8,-158.6,-332.0,-0.37,4.78,0.0,0.0,1.1317685275708986,2.739817512171203,0.13184745056274605,0.5,0,0,0.0
3.7064106010002433,165,5466.93,-91.8,-0.8,-118.5,-1.55,2.06,-0.8,0.04,-1.05,-0.16,-153.6,-187.3,-277.0,-0.31,5.42,0.0,0.0,1.0628734637763801,2.6992776811584247,0.061693339032863115,0.5,0,0,0.0
3.714668506000635,166,5466.94,-92.0,-0.7,-118.3,-1.78,1.91,-0.91,0.03,-1.04,-0.13,-155.6,-207.2,-212.0,-0.26,5.88,-0.18,0.0,1.0485227703774487,2.76488697779855,0.04639579272125305,0.5,0,0,0.0
3.726137354000457,167,5466.95,-92.2,-0.5,-118.1,-1.96,1.75,-1.1,0.03,-1.07,-0.09,-157.8,-222.6,-168.0,-0.19,6.25,0.0,0.0,1.074197374787334,2.8485259345844125,0.07062898918851546,0.5,0,0,0.0
3.7347836290000487,168,5466.96,-92.4,-0.4,-118.0,-2.27,1.51,-1.33,0.01,-1.13,-0.04,-160.1,-233.3,-107.0,-0.13,6.41,0.04,0.0,1.130751962191532,3.0334633671762052,0.12463990506085931,0.5,0,0,0.0
3.7460718590000397,169,5466.97,-92.7,-0.2,-117.9,-2.7,1.13,-1.71,-0.02,-1.21,0.0,-162.5,-235.7,-32.0,-0.07,6.37,0.0,0.0,1.2101652779682617,3.389837754229544,0.1999721564208372,0.5,0,0,0.0
3.754556796000543,170,5466.98,-92.9,0.0,-117.8,-2.9,0.72,-2.1,-0.03,-1.3,0.05,-164.8,-231.7,29.0,0.0,6.17,-0.15,0.0,1.3013070352534024,3.6521774327105194,0.2852916354318584,0.5,0,0,0.0
3.7660839340005623,171,5466.99,-93.2,0.1,-117.7,-3.01,0.36,-2.74,-0.07,-1.41,0.06,-167.1,-224.8,45.0,0.05,6.05,0.0,0.0,1.4130109695257145,4.086232984057566,0.38905565831008704,0.5,0,0,0.0
3.774748723000812,172,5467.0,-93.2,0.1,-117.7,-3.01,0.36,-2.74,-0.07,-1.41,0.06,-168.7,-222.1,44.0,0.11,5.95,-0.01,0.0,1.4130109695257145,4.086232984057566,0.38127454514388526,0.5,0,0,0.0
3.7862333430002764,173,5467.01,-93.8,0.7,-117.8,-2.85,-0.23,-3.6,-0.14,-1.37,0.0,-171.7,-214.9,74.0,0.16,5.72,0.06,0.0,1.3771347065556079,4.5973253093510795,0.33849031653030304,0.5,0,0,0.0
3.794794163000006,174,5467.02,-94.0,1.1,-117.8,-1.58,-0.37,-3.33,-0.05,-1.18,-0.03,-173.8,-203.5,111.0,0.22,5.35,-0.05,0.0,1.1814397995666135,3.7043487956724594,0.1399395013504825,0.5,0,0,0.0
3.806323433000216,175,5467.03,-94.1,1.4,-117.9,-0.63,-0.18,-2.54,0.09,-1.01,-0.05,-175.7,-188.6,139.0,0.27,4.94,0.16,0.0,1.0152339631828715,2.6231469650021517,0.025741008332594184,0.5,0,0,0.0
3.8146917740004938,176,5467.04,-94.1,1.6,-117.9,-0.71,0.16,-1.62,0.24,-0.93,-0.04,-177.3,-175.5,138.0,0.32,4.57,-0.07,0.0,0.9613012014972208,1.7759786034747154,0.07808029461788013,0.5,0,0,0.0
3.8261005670001396,177,5467.05,-94.2,1.7,-117.9,-1.2,0.64,-0.88,0.34,-0.92,-0.04,-179.0,-162.7,125.0,0.36,4.26,-0.09,0.0,0.9816312953446422,1.6198765385053269,0.05659519675504954,0.5,0,0,0.0
3.8347790170000735,178,5467.06,-94.4,1.8,-117.8,-1.55,1.38,-0.28,0.37,-0.92,-0.06,-180.5,-152.0,113.0,0.4,3.95,-0.06,0.0,0.9934284070832684,2.0941107898103195,0.04390212331609478,0.5,0,0,0.0
3.84623393900074,179,5467.07,-94.5,1.8,-117.6,-1.44,2.26,0.2,0.33,-0.94,-0.04,-182.0,-140.2,120.0,0.44,3.61,-0.17,0.0,0.9970456358662827,2.6872290561096572,0.039479196642418835,0.5,0,0,0.0
3.8548251990005156,180,5467.08,-94.6,1.8,-117.3,-0.85,3.13,0.56,0.26,-0.93,0.0,-183.3,-128.0,114.0,0.47,3.34,-0.13,0.0,0.9656603957913984,3.291352305664041,0.06944714798295715,0.5,0,0,0.0
3.8662340930004575,181,5467.09,-94.7,1.7,-117.0,-0.29,3.88,0.76,0.17,-0.91,0.03,-184.5,-118.8,95.0,0.5,3.08,0.05,0.0,0.9262289133902051,3.964353667371265,0.10670105777646754,0.5,0,0,0.0
3.8746778420008923,182,5467.1,-94.6,1.7,-116.5,0.14,4.48,0.81,0.06,-0.88,0.05,-185.6,-109.4,96.0,0.53,2.83,0.0,0.0,0.8834591105421914,4.554788688841668,0.14648144341199165,0.5,0,0,0.0
3.886092335000285,183,5467.11,-94.6,1.7,-116.0,0.44,4.88,0.69,-0.01,-0.86,0.09,-186.6,-99.3,103.0,0.56,2.56,0.07,0.0,0.8647543003651383,4.948141065086968,0.1618825285172638,0.5,0,0,0.0
3.894753227000365,184,5467.12,-94.5,1.6,-115.5,0.4,5.05,0.48,-0.08,-0.87,0.12,-187.6,-89.2,112.0,0.58,2.19,0.01,0.0,0.8818730067305609,5.088506657163769,0.14186854570880447,0.5,0,0,0.0
3.906153533000179,185,5467.13,-94.5,1.6,-115.0,0.0,4.98,0.15,-0.14,-0.89,0.12,-188.3,-73.0,148.0,0.6,1.73,-0.11,0.0,0.9089004345911602,4.982258524002945,0.11254429549124101,0.5,0,0,0.0
3.914533250000204,186,5467.14,-94.5,1.7,-114.5,-0.31,4.92,-0.08,-0.17,-0.92,0.11,-189.0,-57.1,145.0,0.62,1.34,-0.23,0.0,0.942019108086455,4.9304056628232935,0.0778371095560274,0.5,0,0,0.0
3.9262478040000133,187,5467.15,-94.5,1.7,-114.1,-0.18,4.71,-0.31,-0.16,-0.95,0.13,-189.4,-42.4,140.0,0.63,0.97,-0.16,0.0,0.972111104761179,4.723621492033416,0.046790210623677275,0.5,0,0,0.0
3.9346934030008924,188,5467.16,-94.5,1.8,-113.6,0.21,4.38,-0.47,-0.13,-0.95,0.11,-189.8,-31.5,107.0,0.63,0.74,-0.08,0.0,0.9651424765287248,4.410147389827238,0.052683662079008875,0.5,0,0,0.0
3.9460153390000414,189,5467.17,-94.5,1.9,-113.2,0.3,4.01,-0.56,-0.11,-0.94,0.08,-190.0,-25.5,73.0,0.64,0.58,-0.07,0.0,0.949789450352024,4.060012315252258,0.06667595449059538,0.5,0,0,0.0
3.954505493000397,190,5467.18,-94.4,2.0,-112.8,-0.02,3.73,-0.58,-0.11,-0.94,0.05,-190.2,-18.3,68.0,0.65,0.44,0.04,0.0,0.9477341399358787,3.774877481455524,0.06735663960860583,0.5,0,0,0.0
3.9658894359999977,191,5467.19,-94.4,2.1,-112.5,-0.41,3.43,-0.5,-0.11,-0.96,0.04,-190.4,-18.6,-5.0,0.65,0.6,0.07,0.0,0.9671090941563936,3.4904154480519938,0.04702205168032925,0.5,0,0,0.0
3.974120280000534,192,5467.2,-94.5,2.1,-112.1,-0.57,3.13,-0.34,-0.09,-1.0,0.03,-190.7,-25.4,-44.0,0.66,0.78,-0.06,0.0,1.0044899203078146,3.199593724209372,0.00944840101833,0.5,0,0,0.0
3.9866962270007207,193,5467.21,-94.5,2.2,-111.9,-0.52,2.79,-0.14,-0.07,-1.04,0.0,-191.0,-32.3,-67.0,0.67,1.0,-0.06,0.0,1.0423531071570709,2.8414960848116615,0.027846490114307842,0.5,0,0,0.0
3.9946790770000007,194,5467.22,-94.6,2.2,-111.6,-0.44,2.55,0.16,-0.06,-1.04,-0.02,-191.3,-42.3,-99.0,0.68,1.33,0.05,0.0,1.0419213022104885,2.592624153247053,0.026866391464370976,0.5,0,0,0.0
4.006203898000422,195,5467.23,-94.6,2.2,-111.3,-0.24,2.33,0.45,-0.05,-1.07,-0.03,-191.9,-54.6,-117.0,0.7,1.7,0.01,0.0,1.0715876072445034,2.38516246826081,0.055402042568418075,0.5,0,0,0.0
4.014612777000366,196,5467.24,-94.6,2.1,-111.1,0.09,2.11,0.56,-0.05,-1.1,-0.03,-192.5,-69.5,-145.0,0.72,2.1,0.07,0.0,1.101544370418187,2.1849027438309467,0.0836516296272598,0.5,0,0,0.0
4.026264480000464,197,5467.25,-94.5,2.0,-110.9,0.51,1.96,0.63,-0.05,-1.04,-0.02,-193.3,-82.6,-126.0,0.74,2.41,-0.03,0.0,1.0413932974625868,2.120990334725738,0.023030545538226255,0.5,0,0,0.0
4.034832431000723,198,5467.26,-94.4,1.9,-110.7,0.57,1.81,0.76,-0.04,-1.02,-0.02,-194.2,-94.0,-114.0,0.77,2.7,0.19,0.0,1.0209799214480175,2.044162420161373,0.002564826133183873,0.5,0,0,0.0
4.046545215000151,199,5467.27,-94.3,1.8,-110.5,0.51,1.66,0.83,-0.04,-1.0,-0.01,-195.2,-103.3,-90.0,0.79,2.89,0.0,0.0,1.0008496390567367,1.9247337478207212,0.01721414713293501,0.5,0,0,0.0
4.0544240870003705,200,5467.28,-94.2,1.7,-110.4,0.36,1.42,0.98,-0.05,-0.96,0.0,-196.3,-107.1,-42.0,0.82,2.92,-0.03,0.0,0.9613012014972206,1.7624982269494627,0.05562733299860212,0.5,0,0,0.0
4.065952872000707,201,5467.29,-94.2,1.6,-110.2,0.07,1.19,1.12,-0.05,-0.98,-0.02,-197.3,-107.1,-14.0,0.85,2.92,-0.04,0.0,0.9814784765851974,1.6356650023767092,0.0347410567524129,0.5,0,0,0.0
4.074145545000647,202,5467.3,-94.2,1.4,-110.1,0.25,1.11,1.01,-0.05,-1.0,-0.03,-198.4,-105.4,17.0,0.88,2.8,-0.09,0.0,1.0016985574512922,1.5214138161591673,0.014230556368591607,0.5,0,0,0.0
4.0865257540008315,203,5467.31,-94.1,1.3,-110.0,0.45,0.89,1.07,-0.05,-0.97,-0.03,-199.5,-100.3,48.0,0.91,2.63,-0.08,0.0,0.9717509969122748,1.4627029773675857,0.043294554569456745,0.5,0,0,0.0
4.0945462690006025,204,5467.32,-94.0,1.2,-109.9,0.55,0.7,1.21,-0.05,-0.96,-0.04,-200.5,-94.2,52.0,0.94,2.47,-0.09,0.0,0.9621330469326994,1.5021983890285595,0.051854254458051585,0.5,0,0,0.0
4.10639863400047,205,5467.33,-94.0,1.0,-109.8,0.67,0.52,1.29,-0.06,-0.97,-0.06,-201.4,-87.8,60.0,0.96,2.28,-0.1,0.0,0.9737042672187486,1.5438264151127872,0.039477373488562284,0.5,0,0,0.0
4.114565018000576,206,5467.34,-93.9,0.8,-109.8,0.9,0.37,1.29,-0.06,-0.98,-0.07,-202.2,-81.7,66.0,0.98,2.07,0.01,0.0,0.9843271813782245,1.6158589047314744,0.028277370142504643,0.5,0,0,0.0
4.126306012000896,207,5467.35,-93.8,0.6,-109.8,1.1,0.26,1.25,-0.07,-0.98,-0.08,-203.0,-73.9,68.0,1.0,1.87,-0.01,0.0,0.9857484466130291,1.6852596239155557,0.026318982809546032,0.5,0,0,0.0
4.134828936000304,208,5467.36,-93.7,0.5,-109.7,1.38,0.15,1.16,-0.09,-0.97,-0.08,-203.7,-65.2,88.0,1.02,1.61,-0.28,0.0,0.977445650662992,1.8090052515125543,0.03392934318439145,0.5,0,0,0.0
4.146163795000575,209,5467.37,-93.5,0.3,-109.7,1.66,0.01,1.05,-0.11,-0.95,-0.08,-204.2,-56.0,75.0,1.03,1.43,0.0,0.0,0.9596874491208062,1.964230129083657,0.050653793832045824,0.5,0,0,0.0
4.154713087000346,210,5467.38,-93.4,0.2,-109.7,1.87,-0.14,0.86,-0.14,-0.94,-0.08,-204.8,-48.7,81.0,1.04,1.19,-0.06,0.0,0.9537295214053091,2.0630317496345034,0.05547948711659212,0.5,0,0,0.0
4.166323367000587,211,5467.39,-93.2,0.1,-109.7,2.09,-0.33,0.55,-0.16,-0.92,-0.08,-205.2,-40.5,74.0,1.06,1.01,-0.07,0.0,0.9372299611087985,2.186206760578697,0.07053946646484055,0.5,0,0,0.0
4.174629251000624,212,5467.4,-92.9,0.1,-109.8,2.26,-0.57,0.16,-0.17,-0.89,-0.07,-205.5,-34.2,58.0,1.06,0.87,-0.16,0.0,0.9087904048789248,2.336257691266098,0.09699944224082002,0.5,0,0,0.0
4.186302961000365,213,5467.41,-92.7,0.1,-109.9,2.18,-0.92,-0.16,-0.17,-0.84,-0.07,-205.9,-30.9,47.0,1.07,0.74,0.0,0.0,0.8598837130682264,2.3715817506466017,0.142988011370488,0.5,0,0,0.0
4.194785813000635,214,5467.42,-92.5,0.1,-110.0,1.76,-1.28,-0.4,-0.15,-0.82,-0.1,-206.1,-26.1,45.0,1.08,0.65,0.01,0.0,0.8395832299420944,2.212690669750293,0.16002272460668754,0.5,0,0,0.0
4.206246626000393,215,5467.43,-92.4,0.2,-110.1,1.2,-1.53,-0.58,-0.12,-0.83,-0.13,-206.4,-21.6,46.0,1.09,0.54,0.05,0.0,0.848645980371085,2.0291131067537855,0.14794077469414313,0.5,0,0,0.0
4.214555853000093,216,5467.44,-92.3,0.2,-110.3,0.88,-1.69,-0.73,-0.09,-0.87,-0.14,-206.6,-21.3,3.0,1.09,0.62,-0.07,0.0,0.8857764955111419,2.040441128775834,0.10859405436300451,0.5,0,0,0.0
4.226380908000465,217,5467.45,-92.2,0.3,-110.5,0.84,-1.8,-0.82,-0.07,-0.91,-0.14,-206.8,-23.3,-12.0,1.1,0.68,0.1,0.0,0.9233634170791044,2.14895323355349,0.06958699013914116,0.5,0,0,0.0
4.23455094900055,218,5467.46,-92.1,0.4,-110.6,0.89,-1.82,-0.83,-0.05,-0.93,-0.13,-207.1,-27.4,-32.0,1.11,0.8,0.07,0.0,0.9403722667114338,2.189383474862273,0.05152657769667557,0.5,0,0,0.0
4.2463165500003015,219,5467.47,-92.0,0.4,-110.8,0.93,-1.79,-0.82,-0.04,-0.94,-0.11,-207.4,-32.2,-52.0,1.11,0.96,-0.12,0.0,0.9472592042308167,2.1774756026187756,0.0437468473737469,0.5,0,0,0.0
4.254816364000362,220,5467.48,-92.0,0.5,-111.0,0.86,-1.79,-0.85,-0.02,-0.92,-0.11,-207.7,-36.5,-41.0,1.12,1.05,0.1,0.0,0.9267685795278129,2.1601388844238696,0.06295272263521567,0.5,0,0,0.0
4.266208734000429,221,5467.49,-92.0,0.6,-111.2,0.57,-1.84,-0.9,-0.01,-0.89,-0.11,-208.1,-40.5,-45.0,1.14,1.22,0.22,0.0,0.896827742657418,2.126146749403719,0.09103568831549835,0.5,0,0,0.0
4.274729885000852,222,5467.5,-92.0,0.6,-111.4,0.06,-1.86,-0.88,-0.01,-0.86,-0.13,-208.6,-47.5,-58.0,1.15,1.38,0.08,0.0,0.8698275691193054,2.05854317418897,0.11567514461653883,0.5,0,0,0.0
4.28627907200007,223,5467.51,-92.0,0.7,-111.6,-0.57,-1.82,-0.71,0.0,-0.87,-0.16,-209.1,-54.1,-68.0,1.16,1.57,0.07,0.0,0.8845903006477066,2.0350429970887594,0.09889416482637481,0.5,0,0,0.0
4.294715936000102,224,5467.52,-92.1,0.7,-111.7,-0.96,-1.67,-0.49,0.0,-0.93,-0.18,-209.7,-62.3,-82.0,1.18,1.86,0.03,0.0,0.9472592042308167,1.9876116320851012,0.035500756018399415,0.5,0,0,0.0
4.3063739980007085,225,5467.53,-92.2,0.8,-111.9,-1.03,-1.53,-0.26,0.0,-0.95,-0.19,-210.4,-74.7,-122.0,1.2,2.24,0.01,0.0,0.9688137075826291,1.8626325456192372,0.013667327613255287,0.5,0,0,0.0
4.314555370000562,226,5467.54,-92.3,0.8,-112.1,-0.99,-1.39,0.0,0.0,-0.99,-0.2,-211.2,-89.5,-133.0,1.23,2.63,-0.29,0.0,1.01,1.7065169205138282,0.026968585508033383,0.5,0,0,0.0
4.326373377000891,227,5467.55,-92.4,0.8,-112.2,-0.83,-1.16,0.16,0.0,-1.02,-0.22,-212.2,-104.8,-153.0,1.26,3.08,0.12,0.0,1.0434557968596465,1.4353048456686823,0.05921589472032629,0.5,0,0,0.0
4.334849534000568,228,5467.56,-92.5,0.7,-112.3,-0.75,-0.97,0.16,0.0,-1.05,-0.22,-213.4,-120.5,-158.0,1.29,3.5,0.09,0.0,1.072800074571213,1.2365273955719704,0.08678896898325483,0.5,0,0,0.0
4.346331717000794,229,5467.57,-92.6,0.7,-112.4,-0.67,-0.91,0.03,-0.01,-1.09,-0.17,-214.7,-136.3,-155.0,1.33,3.93,0.03,0.0,1.1032225523438144,1.1304423912787418,0.11486721782073916,0.5,0,0,0.0
4.354790388000765,230,5467.58,-92.7,0.7,-112.5,-0.76,-1.11,-0.14,-0.01,-1.11,-0.13,-216.2,-151.4,-147.0,1.37,4.31,-0.08,0.0,1.1176314240392493,1.3525161736556057,0.12669056772585063,0.5,0,0,0.0
4.366297943000063,231,5467.59,-92.8,0.7,-112.6,-1.14,-1.38,-0.11,0.0,-1.12,-0.13,-217.8,-164.4,-133.0,1.42,4.67,-0.15,0.0,1.1275194011634568,1.793348822733603,0.133846973953057,0.5,0,0,0.0
4.374786930000482,232,5467.6,-93.0,0.7,-112.8,-1.49,-1.46,0.12,0.04,-1.16,-0.15,-219.5,-175.6,-107.0,1.47,4.89,-0.01,0.0,1.170341830406826,2.0895214763193986,0.17313601513249766,0.5,0,0,0.0
4.386187275000339,233,5467.61,-93.2,0.7,-112.9,-1.33,-1.44,0.42,0.09,-1.23,-0.16,-221.3,-184.2,-97.0,1.52,5.14,0.1,0.0,1.2436237373096415,2.0047194317410106,0.24148956359460683,0.5,0,0,0.0
4.394717044000572,234,5467.62,-93.3,0.7,-113.0,-0.81,-1.48,0.63,0.12,-1.28,-0.11,-223.2,-193.2,-97.0,1.57,5.41,0.13,0.0,1.2903100402616419,1.8009441968034434,0.28241234921567515,0.5,0,0,0.0
4.406343202000244,235,5467.63,-93.4,0.6,-113.2,-0.12,-1.57,0.73,0.12,-1.3,-0.08,-225.3,-204.7,-107.0,1.63,5.7,-0.02,0.0,1.3079755349393964,1.7355690709389817,0.2940762870155611,0.5,0,0,0.0
4.414581033000104,236,5467.64,-93.4,0.6,-113.3,0.51,-1.54,0.82,0.12,-1.29,-0.05,-227.4,-212.9,-81.0,1.68,5.88,0.0,0.0,1.2965338406690357,1.8177183500201564,0.2769819008902963,0.5,0,0,0.0
4.426320541000678,237,5467.65,-93.3,0.6,-113.5,1.09,-1.45,1.07,0.08,-1.25,0.01,-229.5,-219.4,-70.0,1.74,6.05,-0.07,0.0,1.2525973016097391,2.106062677130004,0.22838445459437984,0.5,0,0,0.0
4.434732260000601,238,5467.66,-93.1,0.4,-113.6,1.42,-1.43,1.57,0.07,-1.23,0.08,-231.8,-225.0,-56.0,1.81,6.16,0.18,0.0,1.2345849504995594,2.5546428321783066,0.20616466141451606,0.5,0,0,0.0
4.446306489000563,239,5467.67,-93.0,0.2,-113.8,1.95,-1.41,2.08,0.07,-1.21,0.14,-234.0,-229.0,-39.0,1.87,6.24,0.03,0.0,1.2200819644597654,3.180723188207361,0.18782844186722758,0.5,0,0,0.0
4.454728405000424,240,5467.68,-92.7,0.0,-113.9,2.39,-1.7,2.4,0.04,-1.11,0.2,-236.3,-229.6,-7.0,1.93,6.2,-0.08,0.0,1.128583182578936,3.789736138572183,0.09440306678667043,0.5,0,0,0.0
4.466326025000853,241,5467.69,-92.5,-0.2,-114.1,2.04,-2.24,2.47,-0.03,-1.01,0.26,-238.6,-226.6,24.0,1.99,6.13,-0.14,0.0,1.0433599570617995,3.9089768482302376,0.008996244444143153,0.5,0,0,0.0
4.474587616000463,242,5467.7,-92.4,-0.4,-114.3,1.14,-3.0,2.33,-0.14,-0.94,0.26,-240.9,-224.8,6.0,2.05,6.15,0.04,0.0,0.985291834940288,3.96591729616239,0.04809044012382102,0.5,0,0,0.0
4.486377999000069,243,5467.71,-92.3,-0.7,-114.7,0.07,-3.55,1.96,-0.25,-0.97,0.23,-243.1,-228.4,-26.0,2.12,6.3,0.18,0.0,1.0277645644796283,4.05573667784288,0.005505356372791148,0.5,0,0,0.0
4.494859357000678,244,5467.72,-92.3,-0.8,-115.0,-0.26,-3.87,1.43,-0.32,-1.0,0.2,-245.5,-231.7,-23.0,2.18,6.31,-0.09,0.0,1.068831137270991,4.13393275223485,0.034849992090200343,0.5,0,0,0.0
4.506440295000175,245,5467.73,-92.3,-1.0,-115.4,0.0,-4.15,1.01,-0.31,-1.02,0.19,-247.8,-231.1,11.0,2.24,6.22,-0.23,0.0,1.082866566110525,4.271135680354817,0.047907712511139566,0.5,0,0,0.0
4.514595129000554,246,5467.74,-92.3,-1.1,-115.9,0.55,-4.42,0.68,-0.23,-1.02,0.2,-250.1,-227.2,32.0,2.3,6.09,0.09,0.0,1.0645656391223606,4.505696394565439,0.02901464981251567,0.5,0,0,0.0
4.526407355000629,247,5467.75,-92.2,-1.1,-116.3,0.89,-4.8,0.43,-0.14,-0.98,0.21,-252.3,-220.9,61.0,2.36,5.85,0.0,0.0,1.0119782606360672,4.900714233660232,0.02310127410030205,0.5,0,0,0.0
4.534687068000494,248,5467.76,-92.1,-1.2,-116.8,0.96,-5.04,0.31,-0.05,-0.94,0.17,-254.4,-208.5,121.0,2.42,5.4,-0.08,0.0,0.9565563234854495,5.139970817037778,0.07695274702590127,0.5,0,0,0.0
4.546314144000462,249,5467.77,-92.0,-1.2,-117.3,0.79,-5.07,0.21,0.02,-0.93,0.13,-256.4,-188.6,193.0,2.47,4.74,-0.1,0.0,0.9392550239418472,5.135474661606267,0.09236896563811337,0.5,0,0,0.0
4.554716107000786,250,5467.78,-91.9,-1.3,-117.8,0.61,-4.92,0.07,0.05,-0.94,0.1,-258.1,-158.7,293.0,2.51,3.72,-0.21,0.0,0.9466255859631092,4.958164983136402,0.08329843554451433,0.5,0,0,0.0
4.56634558100086,251,5467.79,-91.9,-1.3,-118.3,0.23,-4.69,-0.16,0.06,-0.97,0.1,-259.4,-118.6,369.0,2.54,2.6,-0.13,0.0,0.976985158536198,4.698361416494053,0.05188008571199687,0.5,0,0,0.0
4.574705144000291,252,5467.8,-91.8,-1.3,-118.8,-0.3,-4.51,-0.51,0.08,-1.01,0.09,-260.3,-74.9,424.0,2.56,1.35,-0.17,0.0,1.017152889196113,4.548648150824595,0.011478107951040206,0.5,0,0,0.0
4.586397758000203,253,5467.81,-91.9,-1.2,-119.2,-0.68,-4.33,-0.79,0.09,-1.02,0.07,-260.7,-29.1,451.0,2.56,0.06,-0.21,0.0,1.026352765865616,4.453695095086775,0.00223266665590649,0.5,0,0,0.0
4.594759404000797,254,5467.82,-92.0,-1.1,-119.6,-0.81,-3.99,-0.95,0.1,-1.02,0.02,-260.7,16.2,422.0,2.55,-0.94,-0.15,0.0,1.02508536229916,4.180753520598889,0.0034300688179151884,0.5,0,0,0.0
4.606183184000656,255,5467.83,-92.0,-1.0,-120.0,-0.73,-3.54,-1.08,0.11,-1.02,0.0,-260.3,46.5,322.0,2.54,-1.64,0.0,0.0,1.0259142264341596,3.7723865125408347,0.0025491805892572383,0.5,0,0,0.0
4.614738059000047,256,5467.84,-92.1,-0.9,-120.3,-0.67,-3.25,-1.16,0.11,-0.99,0.04,-259.6,72.0,269.0,2.52,-2.28,0.0,0.0,0.9968951800465282,3.5152524802636864,0.030936862437350943,0.5,0,0,0.0
4.62633552600073,257,5467.85,-92.2,-0.8,-120.7,-0.67,-3.14,-1.19,0.11,-0.96,0.04,-258.8,94.6,243.0,2.49,-2.93,0.0,0.0,0.9671090941563936,3.424120324988595,0.05950848936093589,0.5,0,0,0.0
4.634696097000415,258,5467.86,-92.2,-0.7,-121.0,-0.64,-3.0,-1.12,0.1,-0.94,0.02,-257.7,118.6,237.0,2.46,-3.58,-0.09,0.0,0.945515732285825,3.265578049901732,0.07947981420687444,0.5,0,0,0.0
4.6463427150001735,259,5467.87,-92.3,-0.6,-121.3,-0.54,-2.79,-1.01,0.09,-0.94,0.0,-256.3,141.5,229.0,2.42,-4.2,-0.02,0.0,0.9442986815621421,3.0159244022355733,0.07908292763194602,0.5,0,0,0.0
4.654719214000579,260,5467.88,-92.3,-0.5,-121.5,-0.37,-2.57,-0.91,0.08,-0.94,0.0,-254.7,164.4,228.0,2.37,-4.81,-0.13,0.0,0.9433981132056604,2.7513451255703996,0.07838382606865935,0.5,0,0,0.0
4.666309208000712,261,5467.89,-92.3,-0.4,-121.8,-0.22,-2.41,-0.83,0.08,-0.94,-0.01,-252.9,187.0,225.0,2.32,-5.43,0.0,0.0,0.9434511116109832,2.5583979362092992,0.0767642111100697,0.5,0,0,0.0
4.674572949000321,262,5467.9,-92.3,-0.2,-122.0,-0.16,-2.24,-0.82,0.08,-0.95,-0.04,-250.9,209.1,223.0,2.26,-6.0,0.0,0.0,0.95420123663722,2.3907321054438535,0.06469380436215622,0.5,0,0,0.0
4.686342004000835,263,5467.91,-92.3,-0.1,-122.2,-0.15,-2.04,-0.86,0.08,-0.94,-0.04,-248.7,231.7,231.0,2.2,-6.68,-0.02,0.0,0.9442457307290301,2.2189411889457547,0.07315632406493922,0.5,0,0,0.0
4.694595782000761,264,5467.92,-92.4,0.0,-122.4,-0.15,-1.85,-0.9,0.07,-0.93,-0.05,-246.2,258.1,258.0,2.12,-7.43,0.0,0.0,0.9339700209321496,2.062765134473627,0.08176339318458326,0.5,0,0,0.0
4.706395407000855,265,5467.93,-92.4,0.1,-122.6,-0.19,-1.62,-0.95,0.08,-0.92,-0.05,-243.4,284.1,245.0,2.04,-8.04,-0.09,0.0,0.9248243076390239,1.8875910574062382,0.0890909243481548,0.5,0,0,0.0
4.714591262000795,266,5467.94,-92.4,0.2,-122.8,-0.23,-1.41,-1.01,0.09,-0.91,-0.06,-240.4,305.9,239.0,1.96,-8.72,-0.14,0.0,0.9164060235506967,1.7495999542752623,0.09555902426775231,0.5,0,0,0.0
4.726392939000107,267,5467.95,-92.5,0.4,-122.9,-0.31,-1.22,-1.08,0.08,-0.89,-0.07,-237.1,335.4,294.0,1.87,-9.61,-0.08,0.0,0.8963258336118624,1.6585837331892532,0.1133264299224549,0.5,0,0,0.0
4.734879928000737,268,5467.96,-92.5,0.5,-123.0,-0.48,-1.04,-1.11,0.08,-0.89,-0.07,-233.6,364.3,269.0,1.77,-10.25,-0.08,0.0,0.8963258336118624,1.5950235107985087,0.11105990132400578,0.5,0,0,0.0
4.746387526000035,269,5467.97,-92.6,0.7,-123.1,-0.57,-0.92,-1.2,0.08,-0.89,-0.07,-229.8,387.6,248.0,1.66,-10.91,-0.27,0.0,0.8963258336118624,1.615951731952412,0.10883870329752565,0.5,0,0,0.0
4.7546026870004425,270,5467.98,-92.7,0.8,-123.2,-0.7,-0.87,-1.19,0.08,-0.87,-0.08,-225.7,413.4,257.0,1.54,-11.61,0.0,0.0,0.8773254812211941,1.6318700928689145,0.12528227457442997,0.5,0,0,0.0
4.766298172000461,271,5467.99,-92.8,1.0,-123.3,-0.74,-0.79,-1.23,0.09,-0.92,-0.11,-221.4,439.1,270.0,1.42,-12.39,-0.06,0.0,0.9309135298189624,1.6384749006316819,0.07026034145712856,0.5,0,0,0.0
4.774763705000623,272,5468.0,-92.8,1.0,-123.3,-0.74,-0.79,-1.23,0.09,-0.92,-0.11,-218.0,460.6,295.0,1.3,-12.95,-0.08,0.0,0.9309135298189624,1.6384749006316819,0.06885513462798598,0.5,0,0,0.0
4.786857126000541,273,5468.01,-92.9,1.2,-123.5,-0.38,-0.6,-0.85,0.11,-0.88,-0.15,-211.6,484.6,244.0,1.16,-13.48,-0.22,0.0,0.8994442728707543,1.1076551810017412,0.09831790374467009,0.5,0,0,0.0
4.794810673000029,274,5468.02,-92.9,1.3,-123.5,-0.11,-0.46,-0.58,0.11,-0.9,-0.19,-206.6,505.7,184.0,1.02,-13.86,-0.15,0.0,0.926390846241477,0.7483982896827064,0.06994390376646842,0.5,0,0,0.0
4.806853152000258,275,5468.03,-92.9,1.3,-123.6,0.15,-0.35,-0.42,0.11,-0.9,-0.19,-201.4,520.6,218.0,0.88,-14.53,-0.14,0.0,0.926390846241477,0.5669215113223346,0.06854502569113907,0.5,0,0,0.0
4.814709558000686,276,5468.04,-92.9,1.3,-123.6,0.27,-0.24,-0.25,0.1,-0.89,-0.18,-196.0,541.4,129.0,0.73,-14.7,0.08,0.0,0.9135097153287425,0.4393176527297759,0.07979763347179614,0.5,0,0,0.0
4.826848168000652,277,5468.05,-92.9,1.3,-123.6,0.4,-0.21,-0.02,0.1,-0.86,-0.18,-190.6,539.3,29.0,0.59,-14.64,-0.16,0.0,0.8843076387773657,0.4522167621838006,0.10681971582270944,0.5,0,0,0.0
4.834830796999995,278,5468.06,-92.8,1.3,-123.6,0.55,-0.09,0.25,0.09,-0.87,-0.19,-185.3,529.1,-104.0,0.44,-14.11,0.24,0.0,0.8950418984606252,0.6108191221630181,0.09416374701666097,0.5,0,0,0.0
4.8469161290004195,279,5468.07,-92.8,1.3,-123.6,0.8,0.1,0.56,0.12,-0.86,-0.21,-180.2,499.1,-314.0,0.31,-12.9,0.17,0.0,0.8933644273195569,0.9816312953446422,0.09392439379457473,0.5,0,0,0.0
4.8548738730005425,280,5468.08,-92.7,1.2,-123.6,0.95,0.35,0.85,0.13,-0.88,-0.2,-175.6,435.6,-549.0,0.2,-11.03,0.27,0.0,0.911756546453054,1.3219304066402284,0.07402162916785604,0.5,0,0,0.0
4.866792747000545,281,5468.09,-92.6,1.1,-123.5,0.89,0.69,1.02,0.11,-0.91,-0.2,-171.7,374.4,-571.0,0.1,-9.46,0.28,0.0,0.9381897462667134,1.5194077793666847,0.046636660767112814,0.5,0,0,0.0
4.874707838000177,282,5468.1,-92.5,1.0,-123.5,0.56,0.98,1.01,0.06,-0.95,-0.19,-168.4,316.3,-564.0,0.01,-7.94,0.27,0.0,0.9706698717895802,1.5146286673637206,0.013873404539361034,0.5,0,0,0.0
4.887127091000366,283,5468.11,-92.5,0.9,-123.3,0.41,1.15,0.97,0.06,-0.93,-0.17,-165.5,271.3,-441.0,-0.05,-6.96,-0.08,0.0,0.9473119866232034,1.5593267778115014,0.03648666391162314,0.5,0,0,0.0
4.8948493300003975,284,5468.12,-92.4,0.8,-123.2,0.34,1.14,1.01,0.06,-0.94,-0.14,-163.0,241.7,-324.0,-0.12,-6.27,0.18,0.0,0.9522604685693931,1.5605447766725566,0.030907418326124758,0.5,0,0,0.0
4.9068698690007295,285,5468.13,-92.4,0.7,-123.1,0.4,1.04,1.04,0.08,-0.92,-0.14,-160.8,216.1,-282.0,-0.17,-5.55,0.19,0.0,0.9340235543068494,1.524204710660612,0.048161445936895086,0.5,0,0,0.0
4.914791821000108,286,5468.14,-92.3,0.6,-123.0,0.46,1.0,1.19,0.1,-0.89,-0.16,-158.8,191.4,-248.0,-0.22,-4.94,0.13,0.0,0.9097801932335084,1.621018198540658,0.0709567108700313,0.5,0,0,0.0
4.926756915000624,287,5468.15,-92.3,0.5,-122.9,0.37,0.97,1.27,0.12,-0.89,-0.17,-157.0,168.3,-244.0,-0.27,-4.26,0.11,0.0,0.9140021881811882,1.6403353315709563,0.06540002160390457,0.5,0,0,0.0
4.934791282000333,288,5468.16,-92.3,0.4,-122.8,0.2,0.93,1.32,0.13,-0.91,-0.17,-155.5,141.0,-270.0,-0.31,-3.47,0.08,0.0,0.934826187052973,1.6270525498581785,0.04368450227747733,0.5,0,0,0.0
4.94681518500056,289,5468.17,-92.2,0.3,-122.7,0.0,0.9,1.29,0.11,-0.94,-0.18,-154.3,111.5,-289.0,-0.34,-2.66,-0.1,0.0,0.9633794683301071,1.5729272074701994,0.014828596580336417,0.5,0,0,0.0
4.954845796000882,290,5468.18,-92.3,0.1,-122.6,-0.23,0.86,1.16,0.08,-0.99,-0.17,-153.4,83.4,-269.0,-0.36,-1.97,0.15,0.0,1.007670581092849,1.462224332994086,0.02887326585875738,0.5,0,0,0.0
4.966946575000293,291,5468.19,-92.3,0.0,-122.5,-0.4,0.75,0.96,0.05,-1.02,-0.15,-152.8,57.1,-271.0,-0.37,-1.2,0.17,0.0,1.0321821544669332,1.2822246293064254,0.05231714244818475,0.5,0,0,0.0
4.974849172000177,292,5468.2,-92.4,0.0,-122.4,-0.49,0.6,0.73,0.02,-1.05,-0.15,-152.4,31.3,-251.0,-0.38,-0.56,0.0,0.0,1.060848716830067,1.0644247272588137,0.07936403071509235,0.5,0,0,0.0
4.986832275000779,293,5468.21,-92.5,0.0,-122.4,-0.49,0.33,0.54,0.02,-1.04,-0.15,-152.2,5.7,-265.0,-0.38,0.16,0.04,0.0,1.050951949424901,0.8003749121505497,0.06807791804372787,0.5,0,0,0.0
4.99482334700042,294,5468.22,-92.6,0.0,-122.4,-0.43,0.15,0.47,0.02,-1.03,-0.17,-152.3,-9.4,-128.0,-0.38,0.27,-0.02,0.0,1.0441264291262815,0.654446330878247,0.060027349790206075,0.5,0,0,0.0
5.006726418000653,295,5468.23,-92.6,-0.1,-122.4,-0.28,0.0,0.45,0.04,-1.0,-0.21,-152.4,-12.2,-70.0,-0.37,0.38,0.24,0.0,1.0225947388873073,0.53,0.03772574636020731,0.5,0,0,0.0
5.0147378540004865,296,5468.24,-92.7,-0.1,-122.4,-0.18,0.05,0.52,0.07,-0.99,-0.26,-152.6,-16.5,-54.0,-0.37,0.51,0.04,0.0,1.0259629622944486,0.5525395913416522,0.040272090372001634,0.5,0,0,0.0
5.026879975000156,297,5468.25,-92.7,-0.2,-122.3,-0.27,0.25,0.54,0.09,-0.99,-0.27,-152.8,-21.3,-39.0,-0.36,0.61,0.0,0.0,1.0300970828033638,0.6534523701081817,0.04351808666329848,0.5,0,0,0.0
5.034804505000466,298,5468.26,-92.7,-0.2,-122.3,-0.55,0.44,0.48,0.09,-1.01,-0.24,-153.0,-31.5,-148.0,-0.35,1.2,-0.01,0.0,1.0420172743289815,0.8523496934944014,0.054329512625137855,0.5,0,0,0.0
5.046968633000688,299,5468.27,-92.8,-0.3,-122.2,-0.38,0.75,0.46,0.19,-0.97,-0.26,-153.6,-62.1,-257.0,-0.34,2.07,0.0,0.0,1.0220567498920987,0.9583840566286566,0.03368160842448997,0.5,0,0,0.0
5.0548154840007555,300,5468.28,-92.8,-0.3,-122.1,-0.94,1.27,0.44,0.12,-1.07,-0.27,-154.4,-92.8,-291.0,-0.31,2.91,0.1,0.0,1.110045044131093,1.6401524319403975,0.11923650461021451,0.5,0,0,0.0
5.066936278000867,301,5468.29,-93.0,-0.3,-122.0,-1.76,1.82,0.23,0.05,-1.1,-0.26,-155.5,-124.6,-315.0,-0.27,3.79,0.17,0.0,1.1314150432091665,2.5422234362856466,0.1377943736145223,0.5,0,0,0.0
5.074858451000182,302,5468.3,-93.2,-0.3,-121.8,-2.16,2.22,0.06,0.05,-1.12,-0.21,-157.0,-158.0,-320.0,-0.23,4.67,0.01,0.0,1.1406138698087096,3.0979993544221407,0.1440533362097841,0.5,0,0,0.0
5.0870465270008935,303,5468.31,-93.4,-0.3,-121.5,-2.33,2.33,-0.15,0.02,-1.17,-0.17,-158.8,-189.2,-308.0,-0.18,5.5,0.08,0.0,1.182455073142316,3.298529975610348,0.1821766487525227,0.5,0,0,0.0
5.094777262000207,304,5468.32,-93.7,-0.3,-121.3,-2.55,2.5,-0.42,-0.02,-1.2,-0.13,-160.9,-213.2,-228.0,-0.12,5.98,0.13,0.0,1.2071868123865501,3.595677961108308,0.20277022023682179,0.5,0,0,0.0
5.1072017250007775,305,5468.33,-94.0,-0.2,-121.0,-2.79,2.6,-0.85,-0.05,-1.29,-0.06,-163.1,-222.6,-101.0,-0.06,6.04,0.04,0.0,1.2923621783385648,3.9072496720839327,0.28218667446505985,0.5,0,0,0.0
5.114731394000046,306,5468.34,-94.2,-0.1,-120.8,-2.84,2.44,-1.49,-0.07,-1.33,0.02,-165.3,-216.4,28.0,0.0,5.75,0.1,0.0,1.3319909909605245,4.02980148394434,0.3153791773452792,0.5,0,0,0.0
5.12683592600024,307,5468.35,-94.5,0.0,-120.6,-2.91,2.19,-2.22,-0.05,-1.43,0.15,-167.4,-205.0,82.0,0.05,5.44,-0.15,0.0,1.4387147041717478,4.2652784199862035,0.4136608327453726,0.5,0,0,0.0
5.134810731000471,308,5468.36,-94.8,0.3,-120.4,-2.81,1.7,-3.2,-0.06,-1.5,0.19,-169.4,-196.7,76.0,0.1,5.25,-0.18,0.0,1.513175469005495,4.585422554138277,0.47835916562753744,0.5,0,0,0.0
5.147057890000724,309,5468.37,-95.1,0.7,-120.3,-2.74,1.33,-3.96,-0.11,-1.51,0.16,-171.3,-188.2,85.0,0.15,5.01,0.0,0.0,1.5224322645030879,4.995808242917256,0.47786364190262764,0.5,0,0,0.0
5.154835153000022,310,5468.38,-95.3,1.1,-120.2,-1.8,0.87,-4.25,-0.1,-1.38,0.14,-173.1,-180.2,75.0,0.2,4.81,0.25,0.0,1.3906832852953974,4.696743552718202,0.33919236944103837,0.5,0,0,0.0
5.166808009000306,311,5468.39,-95.4,1.5,-120.2,-0.07,0.69,-3.65,-0.01,-1.14,0.08,-174.9,-173.4,72.0,0.25,4.63,0.0,0.0,1.1428473213863695,3.7153061784999633,0.08952927742137029,0.5,0,0,0.0
5.174700536000273,312,5468.4,-95.4,1.8,-120.1,1.09,0.87,-2.48,0.11,-0.96,0.02,-176.5,-166.5,67.0,0.29,4.45,-0.12,0.0,0.9664884893261791,2.845241641759097,0.08509296354604357,0.5,0,0,0.0
5.186879362000582,313,5468.41,-95.2,2.0,-120.0,1.5,1.55,-1.22,0.23,-0.84,0.01,-178.2,-159.5,76.0,0.33,4.22,-0.16,0.0,0.870976463516667,2.478083937238608,0.1769928895684445,0.5,0,0,0.0
5.194692879000286,314,5468.42,-95.1,2.1,-119.8,1.51,2.44,-0.39,0.26,-0.79,0.0,-179.7,-149.7,91.0,0.37,3.96,-0.31,0.0,0.83168503653727,2.8958245803225027,0.21195863021688466,0.5,0,0,0.0
5.206912561000536,315,5468.43,-94.9,2.1,-119.6,1.36,3.28,0.24,0.26,-0.76,0.06,-181.1,-137.7,119.0,0.41,3.57,-0.04,0.0,0.8054812226240907,3.558876227125636,0.23339919524746267,0.5,0,0,0.0
5.214781711000796,316,5468.44,-94.8,2.1,-119.2,1.09,3.91,0.67,0.26,-0.77,0.07,-182.4,-122.5,153.0,0.44,3.09,-0.34,0.0,0.8157205403813245,4.114012639747234,0.2186966799404243,0.5,0,0,0.0
5.226844006000647,317,5468.45,-94.7,2.1,-118.8,0.46,4.57,0.85,0.22,-0.84,0.01,-183.5,-104.3,177.0,0.47,2.59,0.01,0.0,0.8683893136145792,4.671081245279298,0.16270734857302627,0.5,0,0,0.0
5.234846300000754,318,5468.46,-94.6,2.0,-118.3,0.27,5.02,0.74,0.15,-0.91,0.03,-184.4,-86.0,170.0,0.49,2.14,-0.05,0.0,0.922767576370128,5.081426964938096,0.10616250410112782,0.5,0,0,0.0
5.246915293000711,319,5468.47,-94.6,2.0,-117.7,0.62,5.16,0.48,0.07,-0.97,0.06,-185.1,-68.2,182.0,0.51,1.62,-0.13,0.0,0.9743715923609432,5.219233660222542,0.05346731834810636,0.5,0,0,0.0
5.254829303000406,320,5468.48,-94.5,2.0,-117.2,0.76,5.02,0.13,0.0,-1.0,0.06,-185.7,-49.0,190.0,0.52,1.09,-0.08,0.0,1.0017983829094554,5.078867984108269,0.025519717243602136,0.5,0,0,0.0
5.266962498000794,321,5468.49,-94.4,2.1,-116.7,0.48,4.78,-0.2,-0.09,-1.02,0.05,-186.1,-31.8,172.0,0.53,0.66,-0.01,0.0,1.0251829105091441,4.808201326899696,0.002092485851035164,0.5,0,0,0.0
5.274837740000294,322,5468.5,-94.3,2.1,-116.3,0.26,4.53,-0.39,-0.16,-1.01,0.03,-186.3,-15.8,163.0,0.54,0.23,-0.14,0.0,1.0230347012687302,4.554184888649121,0.00415588118962007,0.5,0,0,0.0
5.286929891,323,5468.51,-94.3,2.2,-115.9,0.31,4.21,-0.37,-0.18,-0.98,0.02,-186.3,-2.3,128.0,0.54,-0.03,-0.05,0.0,0.9965942002640793,4.237581857616441,0.029984454550385564,0.5,0,0,0.0
5.2948645720007335,324,5468.52,-94.2,2.3,-115.5,0.43,3.83,-0.23,-0.18,-0.99,0.03,-186.3,0.6,28.0,0.54,0.05,0.12,0.0,1.006677704133751,3.860919579582046,0.0195029316670996,0.5,0,0,0.0
5.307053015000747,325,5468.53,-94.2,2.3,-115.1,0.34,3.38,-0.08,-0.15,-0.99,0.02,-186.3,-5.9,-45.0,0.54,0.28,0.01,0.0,1.0014988766843425,3.3979994114184304,0.024188123934177908,0.5,0,0,0.0
5.316936322000402,326,5468.54,-94.1,2.3,-114.8,-0.03,3.01,0.11,-0.13,-1.01,0.0,-186.5,-17.6,-100.0,0.54,0.64,0.1,0.0,1.0183319694480772,3.012158694358582,0.00720793054703428,0.5,0,0,0.0
5.326900627000214,327,5468.55,-94.1,2.3,-114.5,-0.2,2.76,0.33,-0.1,-1.02,-0.02,-186.8,-32.2,-137.0,0.55,1.07,0.2,0.0,1.02508536229916,2.786844093235213,0.00044544694203252355,0.5,0,0,0.0
5.33481790300084,328,5468.56,-94.1,2.3,-114.2,0.08,2.58,0.54,-0.07,-1.03,-0.03,-187.2,-50.1,-168.0,0.57,1.59,-0.09,0.0,1.032811696293182,2.6371196408202646,0.0071352693109496546,0.5,0,0,0.0
5.3469055870000375,329,5468.57,-94.1,2.2,-114.0,0.62,2.33,0.67,-0.05,-1.01,-0.03,-187.8,-68.6,-164.0,0.59,2.02,-0.02,0.0,1.0116817681464858,2.502438810440727,0.013714765659031514,0.5,0,0,0.0
5.354863274000309,330,5468.58,-94.0,2.1,-113.7,0.99,2.1,0.71,-0.04,-0.98,-0.02,-188.6,-83.9,-167.0,0.61,2.51,0.01,0.0,0.9810198774744576,2.427797355629172,0.04348912320443854,0.5,0,0,0.0
5.36688105400026,331,5468.59,-93.8,2.0,-113.5,1.15,1.83,0.75,-0.05,-0.95,-0.02,-189.6,-100.4,-153.0,0.64,2.89,-0.09,0.0,0.9515250916292223,2.2877718417709403,0.07152423086868043,0.5,0,0,0.0
5.374679061000279,332,5468.6,-93.7,1.9,-113.4,1.19,1.58,0.76,-0.05,-0.96,-0.02,-190.7,-111.6,-106.0,0.67,3.11,-0.01,0.0,0.9615092303249095,2.1189856063692365,0.06030929032953325,0.5,0,0,0.0
5.386918089000574,333,5468.61,-93.5,1.8,-113.2,1.29,1.29,0.94,-0.06,-0.9,-0.01,-191.8,-116.9,-66.0,0.7,3.22,0.01,0.0,0.9020532135079394,2.0522670391545055,0.11737000100357331,0.5,0,0,0.0
5.394815616000415,334,5468.62,-93.4,1.7,-113.1,1.3,0.96,1.16,-0.06,-0.88,-0.01,-193.0,-120.3,-35.0,0.73,3.28,0.04,0.0,0.8820997676000147,1.9892712233378333,0.13457697797326806,0.5,0,0,0.0
5.407000586000322,335,5468.63,-93.2,1.5,-113.0,1.23,0.7,1.38,-0.07,-0.88,-0.02,-194.2,-120.1,-7.0,0.77,3.25,-0.21,0.0,0.8830062287436029,1.9766891510806648,0.13099710649308638,0.5,0,0,0.0
5.4147308540004815,336,5468.64,-93.1,1.3,-112.9,1.1,0.42,1.59,-0.08,-0.86,-0.02,-195.4,-118.0,21.0,0.8,3.15,0.0,0.0,0.8639444426582069,1.9785095400325974,0.14705771472691265,0.5,0,0,0.0
5.426857966000171,337,5468.65,-93.0,1.1,-112.9,0.96,0.21,1.62,-0.08,-0.9,-0.05,-196.6,-111.9,54.0,0.83,2.95,-0.12,0.0,0.9049309365912959,1.8947559209565754,0.10394979637794721,0.5,0,0,0.0
5.434834646000127,338,5468.66,-92.9,0.9,-112.9,1.14,0.18,1.38,-0.08,-0.94,-0.09,-197.6,-104.1,67.0,0.86,2.73,0.0,0.0,0.9476813810558905,1.798999722067794,0.05997536487508548,0.5,0,0,0.0
5.4467847520008945,339,5468.67,-92.8,0.8,-112.9,1.4,0.08,1.26,-0.09,-0.92,-0.09,-198.6,-94.6,95.0,0.88,2.42,-0.04,0.0,0.9287626176801045,1.8852055590836772,0.07731624568585405,0.5,0,0,0.0
5.454720877,340,5468.68,-92.6,0.6,-112.9,1.63,0.0,1.22,-0.09,-0.93,-0.11,-199.5,-82.3,115.0,0.9,2.09,0.03,0.0,0.9407975340103736,2.036000982318034,0.06397570276847331,0.5,0,0,0.0
5.466893522000646,341,5468.69,-92.5,0.5,-112.8,1.97,-0.03,1.07,-0.09,-0.94,-0.14,-200.2,-70.8,109.0,0.92,1.8,-0.02,0.0,0.9546203433826455,2.2420303298572923,0.04914983552827734,0.5,0,0,0.0
5.4748546630007695,342,5468.7,-92.2,0.4,-112.9,2.54,-0.15,0.82,-0.1,-0.91,-0.15,-200.8,-59.8,117.0,0.94,1.46,-0.26,0.0,0.9276852914647294,2.6732938484199598,0.0745631896972695,0.5,0,0,0.0
5.486999068000841,343,5468.71,-91.9,0.4,-112.9,3.08,-0.31,0.52,-0.12,-0.87,-0.16,-201.4,-47.5,116.0,0.95,1.15,-0.01,0.0,0.8926925562588723,3.1389329397105636,0.10736480640506407,0.5,0,0,0.0
5.494878614000299,344,5468.72,-91.6,0.3,-112.9,3.37,-0.48,0.16,-0.14,-0.85,-0.15,-201.8,-37.1,100.0,0.96,0.9,0.1,0.0,0.8744140895479668,3.4077705321808276,0.12313040765365013,0.5,0,0,0.0
5.507003555000665,345,5468.73,-91.3,0.3,-113.0,3.09,-0.73,-0.23,-0.17,-0.81,-0.12,-202.1,-28.7,85.0,0.97,0.7,0.02,0.0,0.836301381082203,3.1833787082280987,0.15801825379702572,0.5,0,0,0.0
5.514887658000589,346,5468.74,-91.0,0.4,-113.1,2.3,-1.04,-0.46,-0.18,-0.8,-0.1,-202.3,-23.6,54.0,0.97,0.59,-0.05,0.0,0.8260750571225354,2.5657747367997836,0.16487968620155946,0.5,0,0,0.0
5.526946354000756,347,5468.75,-90.8,0.4,-113.2,1.26,-1.38,-0.57,-0.16,-0.8,-0.11,-202.5,-19.2,42.0,0.98,0.49,-0.07,0.0,0.8232253640407347,1.9536888186197923,0.16437479169769298,0.5,0,0,0.0
5.536863290000838,348,5468.76,-90.8,0.5,-113.4,0.41,-1.67,-0.58,-0.13,-0.83,-0.13,-202.7,-21.4,-17.0,0.99,0.64,-0.06,0.0,0.8501176389182853,1.8147727130414981,0.1347328664837395,0.5,0,0,0.0
5.5467627920006635,349,5468.77,-90.8,0.5,-113.5,-0.04,-1.87,-0.58,-0.1,-0.85,-0.16,-203.0,-28.3,-65.0,0.99,0.91,0.03,0.0,0.8706893820416095,1.9582900704441106,0.11187790089320693,0.5,0,0,0.0
5.554772947000856,350,5468.78,-90.8,0.6,-113.7,-0.28,-2.0,-0.62,-0.08,-0.85,-0.17,-203.3,-38.9,-94.0,1.0,1.2,0.11,0.0,0.8705170877128144,2.112534023394653,0.10980919131756195,0.5,0,0,0.0
5.56688593600029,351,5468.79,-90.8,0.6,-113.9,-0.37,-2.08,-0.67,-0.06,-0.82,-0.17,-203.8,-52.4,-135.0,1.02,1.63,0.22,0.0,0.8395832299420946,2.2163483480716653,0.1379281881065162,0.5,0,0,0.0
5.574808197000493,352,5468.8,-90.9,0.7,-114.1,-0.67,-2.07,-0.63,-0.05,-0.79,-0.17,-204.5,-71.7,-189.0,1.04,2.23,0.15,0.0,0.8096295449154509,2.2651048540851257,0.16452423567049668,0.5,0,0,0.0
5.586927965000541,353,5468.81,-91.0,0.8,-114.3,-1.26,-1.95,-0.38,-0.04,-0.79,-0.16,-205.3,-95.4,-229.0,1.07,2.92,0.1,0.0,0.8070315978944071,2.3525518060183077,0.1637797390377096,0.5,0,0,0.0
5.594545884000581,354,5468.82,-91.1,0.8,-114.5,-1.9,-1.61,-0.05,-0.01,-0.88,-0.16,-206.5,-120.5,-237.0,1.1,3.57,0.03,0.0,0.8944830909525344,2.4909034505576484,0.07480168105999063,0.5,0,0,0.0
5.606923414000448,355,5468.83,-91.4,0.8,-114.7,-1.92,-1.16,0.1,0.01,-0.99,-0.14,-207.9,-145.5,-247.0,1.14,4.25,0.0,0.0,0.9998999949994999,2.2454398232862975,0.030002918527235356,0.5,0,0,0.0
5.614833269000883,356,5468.84,-91.6,0.8,-114.8,-1.58,-0.89,0.18,0.04,-1.06,-0.13,-209.5,-168.8,-226.0,1.19,4.83,0.09,0.0,1.0686907878334126,1.8223336686787084,0.09681783713392511,0.5,0,0,0.0
5.6269494010002745,357,5468.85,-91.8,0.7,-114.8,-1.1,-0.74,0.19,0.07,-1.11,-0.16,-211.3,-187.5,-189.0,1.24,5.29,-0.09,0.0,1.123654751247019,1.339290857132983,0.14874616453658085,0.5,0,0,0.0
5.634823406000578,358,5468.86,-91.9,0.7,-114.9,-0.68,-0.7,0.02,0.07,-1.16,-0.12,-213.3,-202.8,-158.0,1.3,5.66,-0.01,0.0,1.168289347721702,0.9761147473529943,0.18951314579103862,0.5,0,0,0.0
5.647000603000379,359,5468.87,-92.0,0.8,-115.0,-0.8,-1.03,0.0,0.04,-1.16,-0.06,-215.4,-216.7,-146.0,1.35,6.05,-0.08,0.0,1.162239218061411,1.3041855696180662,0.17979375580813262,0.5,0,0,0.0
5.654727009000453,360,5468.88,-92.1,0.8,-115.1,-1.27,-1.34,0.24,0.04,-1.2,-0.08,-217.7,-229.4,-124.0,1.42,6.36,0.0,0.0,1.2033287165193058,1.8617464918726179,0.2164655891807069,0.5,0,0,0.0
5.666898530000253,361,5468.89,-92.3,0.7,-115.2,-0.96,-1.1,0.67,0.05,-1.27,-0.13,-220.0,-237.7,-86.0,1.48,6.53,-0.05,0.0,1.2776149654727749,1.6063934760823702,0.28493680137149247,0.5,0,0,0.0
5.674704365000252,362,5468.9,-92.3,0.6,-115.3,-0.54,-0.7,1.19,0.02,-1.29,-0.06,-222.4,-244.8,-78.0,1.55,6.74,0.04,0.0,1.2915494570476194,1.4824641648282766,0.2928938670874103,0.5,0,0,0.0
5.6868512490000285,363,5468.91,-92.4,0.5,-115.4,-0.15,-0.62,1.71,0.0,-1.32,0.02,-225.0,-254.2,-102.0,1.62,7.08,0.01,0.0,1.32015150645674,1.8251027368342856,0.3150659981666002,0.5,0,0,0.0
5.6947785440006555,364,5468.92,-92.3,0.3,-115.4,-0.34,-0.51,2.08,0.03,-1.36,0.05,-227.6,-265.4,-110.0,1.69,7.37,0.16,0.0,1.3612494260788506,2.168432613663611,0.3490406394329366,0.5,0,0,0.0
5.706912703000853,365,5468.93,-92.4,0.1,-115.5,-0.84,-0.23,2.34,0.05,-1.42,0.06,-230.3,-278.5,-128.0,1.77,7.75,0.13,0.0,1.4221462653327892,2.4968179749433075,0.4017387291131378,0.5,0,0,0.0
5.714842348000275,366,5468.94,-92.4,-0.1,-115.5,-0.54,0.2,2.58,0.05,-1.46,0.12,-233.2,-294.2,-149.0,1.85,8.19,0.15,0.0,1.4657762448614045,2.6434825514839324,0.4364613344689179,0.5,0,0,0.0
5.726752510000551,367,5468.95,-92.4,-0.3,-115.4,0.67,0.21,2.6,0.03,-1.46,0.19,-236.2,-307.7,-119.0,1.93,8.46,0.17,0.0,1.4726167186338743,2.693139431964116,0.4344357720765599,0.5,0,0,0.0
5.734818649000772,368,5468.96,-92.2,-0.6,-115.4,1.91,-0.05,2.17,-0.02,-1.33,0.21,-239.4,-312.7,-66.0,2.02,8.56,0.08,0.0,1.3466254119093402,2.8912799933593427,0.3022755760449851,0.5,0,0,0.0
5.746771472000546,369,5468.97,-92.0,-0.7,-115.4,1.91,-0.74,1.54,-0.13,-1.14,0.24,-242.5,-319.8,-88.0,2.1,8.83,-0.15,0.0,1.172220115848555,2.5626743843102657,0.125312874384516,0.5,0,0,0.0
5.754843020000408,370,5468.98,-91.9,-0.9,-115.6,0.7,-1.67,1.02,-0.22,-1.02,0.28,-245.8,-328.6,-61.0,2.19,8.94,-0.03,0.0,1.0803703068855603,2.078292568432077,0.03279380411309085,0.5,0,0,0.0
5.7668169260005016,371,5468.99,-91.9,-1.0,-115.8,-0.19,-2.75,0.64,-0.25,-1.01,0.29,-249.1,-327.2,-1.0,2.28,8.85,-0.15,0.0,1.0801388799594245,2.829876322385839,0.03191112964321596,0.5,0,0,0.0
5.774782413000139,372,5469.0,-91.9,-1.0,-115.8,-0.19,-2.75,0.64,-0.25,-1.01,0.29,-251.2,-325.2,20.0,2.37,8.75,-0.06,0.0,1.0801388799594245,2.829876322385839,0.031272907050351684,0.5,0,0,0.0
5.786831001000792,373,5469.01,-91.9,-1.1,-116.5,-0.08,-4.19,0.43,-0.2,-1.03,0.19,-255.5,-314.2,110.0,2.46,8.31,-0.01,0.0,1.066302021005306,4.212766312056723,0.017087327134308605,0.5,0,0,0.0
5.794775225000194,374,5469.02,-91.9,-1.1,-116.9,0.36,-4.65,0.56,-0.12,-1.03,0.17,-258.5,-290.7,219.0,2.53,7.54,-0.15,0.0,1.0508092119885513,4.697414182292211,0.0015626277552027723,0.5,0,0,0.0
5.806981837000421,375,5469.03,-91.8,-1.2,-117.4,0.98,-4.89,0.71,-0.05,-0.99,0.12,-261.2,-259.2,295.0,2.6,6.61,-0.15,0.0,0.9984988733093292,5.037519230732523,0.049732756705539005,0.5,0,0,0.0
5.81477777300006,376,5469.04,-91.7,-1.3,-117.9,1.19,-4.8,0.74,0.0,-0.99,0.08,-263.5,-221.4,368.0,2.66,5.5,-0.16,0.0,0.9932270636667125,5.0003699863110125,0.053904475021192444,0.5,0,0,0.0
5.826808389000689,377,5469.05,-91.5,-1.4,-118.4,0.91,-4.44,0.58,0.02,-1.0,0.04,-265.5,-178.6,406.0,2.71,4.34,-0.17,0.0,1.000999500499376,4.5692559569365345,0.04520939742475849,0.5,0,0,0.0
5.834769952000897,378,5469.06,-91.4,-1.4,-118.8,0.67,-3.96,0.31,0.06,-1.0,0.02,-266.9,-134.0,444.0,2.74,3.06,-0.12,0.0,1.0019980039900278,4.0282254157383,0.04332667605542451,0.5,0,0,0.0
5.84681081600047,379,5469.07,-91.3,-1.4,-119.2,0.38,-3.42,-0.02,0.09,-1.01,0.01,-268.0,-86.2,468.0,2.76,1.76,-0.03,0.0,1.014051280754578,3.4411044738571945,0.03064793130505672,0.5,0,0,0.0
5.854602851000891,380,5469.08,-91.3,-1.4,-119.5,0.17,-2.88,-0.4,0.12,-0.99,0.0,-268.5,-38.3,475.0,2.77,0.45,-0.37,0.0,0.9972462083156797,2.9126105129247883,0.04650394366907595,0.5,0,0,0.0
5.866817901000104,381,5469.09,-91.2,-1.3,-119.7,0.02,-2.39,-0.78,0.15,-0.95,0.0,-268.5,7.6,434.0,2.77,-0.64,0.02,0.0,0.9617692030835672,2.5141400120120596,0.08034132992316478,0.5,0,0,0.0
5.874639784000465,382,5469.1,-91.2,-1.2,-119.9,-0.1,-1.98,-1.04,0.17,-0.88,0.01,-268.2,40.9,347.0,2.76,-1.46,-0.22,0.0,0.8963258336118624,2.238749651032915,0.14286900540697223,0.5,0,0,0.0
5.886825620000309,383,5469.11,-91.3,-1.1,-120.1,-0.34,-1.62,-1.17,0.16,-0.84,0.01,-267.6,68.6,296.0,2.74,-2.18,0.03,0.0,0.8551608035919326,2.0270421801235416,0.1803533547183639,0.5,0,0,0.0
5.8947359480007435,384,5469.12,-91.3,-1.0,-120.3,-0.52,-1.31,-1.17,0.14,-0.82,0.02,-266.8,94.9,275.0,2.71,-2.89,0.0,0.0,0.8321057625085887,1.8317750953651488,0.19934022788567363,0.5,0,0,0.0
5.9067120320005415,385,5469.13,-91.4,-0.9,-120.4,-0.52,-1.1,-1.12,0.11,-0.82,0.03,-265.6,120.9,261.0,2.68,-3.59,-0.17,0.0,0.8278888814327681,1.6537230723431298,0.19948596678226438,0.5,0,0,0.0
5.9147756670008675,386,5469.14,-91.4,-0.8,-120.5,-0.43,-0.9,-1.01,0.09,-0.82,0.01,-264.2,146.1,258.0,2.64,-4.29,0.03,0.0,0.8249848483457135,1.419506956657839,0.19834219987193247,0.5,0,0,0.0
5.9267795870000555,387,5469.15,-91.4,-0.7,-120.6,-0.42,-0.76,-0.87,0.07,-0.82,0.01,-262.6,171.3,246.0,2.59,-4.93,-0.01,0.0,0.82304313374209,1.229186723000212,0.1962782361860449,0.5,0,0,0.0
5.934733152000263,388,5469.16,-91.5,-0.5,-120.7,-0.45,-0.61,-0.72,0.07,-0.84,0.01,-260.7,195.1,247.0,2.53,-5.6,-0.06,0.0,0.8429709366283039,1.0454664030948102,0.17282342463383438,0.5,0,0,0.0
5.946778140000788,389,5469.17,-91.5,-0.4,-120.7,-0.38,-0.5,-0.62,0.06,-0.87,0.0,-258.6,218.8,234.0,2.47,-6.22,-0.07,0.0,0.8720665112249181,0.8824964589164083,0.14085329303647576,0.5,0,0,0.0
5.954721287000211,390,5469.18,-91.5,-0.3,-120.8,-0.27,-0.47,-0.58,0.05,-0.88,0.01,-256.2,243.1,238.0,2.41,-6.88,-0.11,0.0,0.8814760348415605,0.7938513714795736,0.12881489403143664,0.5,0,0,0.0
5.966699800000242,391,5469.19,-91.5,-0.2,-120.8,-0.16,-0.44,-0.52,0.04,-0.89,0.0,-253.7,265.7,226.0,2.33,-7.49,0.01,0.0,0.8908984229416954,0.6997142273814361,0.1170046558126756,0.5,0,0,0.0
5.974580263000462,392,5469.2,-91.5,-0.1,-120.9,-0.09,-0.39,-0.5,0.04,-0.89,-0.01,-250.9,286.1,210.0,2.26,-8.03,-0.11,0.0,0.8909545442950499,0.6404685784642367,0.11460956377013476,0.5,0,0,0.0
5.986466554000799,393,5469.21,-91.5,-0.1,-120.9,-0.13,-0.33,-0.49,0.04,-0.89,-0.02,-247.8,309.6,243.0,2.17,-8.75,-0.06,0.0,0.8911228871485684,0.6048966853934645,0.11215239649828401,0.5,0,0,0.0
5.996720453000307,394,5469.22,-91.5,0.0,-120.9,-0.24,-0.25,-0.49,0.05,-0.89,-0.03,-244.5,336.8,254.0,2.08,-9.45,-0.09,0.0,0.8919080670113932,0.6001666435249463,0.10913987230274991,0.5,0,0,0.0
6.006685780000225,395,5469.23,-91.6,0.0,-120.9,-0.38,-0.24,-0.48,0.05,-0.88,-0.04,-241.0,358.6,224.0,1.98,-10.02,-0.36,0.0,0.8823264701911645,0.6575712889109439,0.11634703974051908,0.5,0,0,0.0
6.01483728400035,396,5469.24,-91.6,0.1,-121.0,-0.52,-0.27,-0.41,0.05,-0.87,-0.05,-237.3,386.8,292.0,1.87,-10.94,-0.18,0.0,0.8728688332160794,0.715122367151245,0.1232885831812921,0.5,0,0,0.0
6.0265964070003974,397,5469.25,-91.7,0.2,-121.0,-0.62,-0.28,-0.4,0.05,-0.91,-0.08,-233.2,415.9,255.0,1.76,-11.55,-0.07,0.0,0.9148770409186143,0.7891767862779543,0.07965476796918203,0.5,0,0,0.0
6.034834495000723,398,5469.26,-91.8,0.2,-121.0,-0.58,-0.28,-0.36,0.04,-0.88,-0.1,-228.9,437.9,240.0,1.64,-12.19,-0.09,0.0,0.8865664103720601,0.7378346698278687,0.10580609054542156,0.5,0,0,0.0
6.046563351000259,399,5469.27,-91.9,0.3,-121.1,-0.64,-0.36,-0.17,0.02,-0.89,-0.1,-224.3,463.0,247.0,1.51,-12.89,-0.07,0.0,0.8958236433584459,0.7537240874484509,0.09461788040785502,0.5,0,0,0.0
6.054830471000059,400,5469.28,-92.0,0.3,-121.1,-0.52,-0.4,-0.08,0.01,-0.91,-0.13,-219.5,491.1,289.0,1.38,-13.74,-0.05,0.0,0.9192932067626738,0.6609084656743323,0.06972535066355456,0.5,0,0,0.0
6.0667404670002725,401,5469.29,-92.1,0.3,-121.1,-0.33,-0.42,0.01,0.0,-0.92,-0.15,-214.4,514.5,206.0,1.24,-14.15,-0.09,0.0,0.932148056909416,0.5342284155677233,0.05573309050647601,0.5,0,0,0.0
6.074835795000581,402,5469.3,-92.2,0.3,-121.2,-0.19,-0.41,0.1,0.01,-0.93,-0.16,-209.1,535.4,239.0,1.09,-14.87,0.0,0.0,0.9437160589923221,0.46281745861624535,0.04328178665509852,0.5,0,0,0.0
6.086686998000005,403,5469.31,-92.3,0.3,-121.2,0.01,-0.37,0.19,0.02,-0.92,-0.16,-203.6,551.9,173.0,0.94,-15.23,-0.22,0.0,0.9340235543068494,0.41605288125429435,0.05191480551375982,0.5,0,0,0.0
6.094783950000419,404,5469.32,-92.3,0.2,-121.3,0.15,-0.35,0.25,0.03,-0.92,-0.16,-197.9,579.1,247.0,0.78,-16.02,0.0,0.0,0.9342911751697112,0.45552167895721496,0.05061424095788003,0.5,0,0,0.0
6.106773841000177,405,5469.33,-92.3,0.2,-121.3,0.18,-0.28,0.31,0.05,-0.91,-0.17,-192.0,597.0,190.0,0.62,-16.45,0.14,0.0,0.9270922284217467,0.4548626166217664,0.05665692395172761,0.5,0,0,0.0
6.11471922400051,406,5469.34,-92.2,0.2,-121.3,0.2,-0.14,0.43,0.08,-0.9,-0.18,-185.9,616.7,208.0,0.45,-17.07,0.14,0.0,0.9213034245024817,0.4944694126030446,0.06119681331357274,0.5,0,0,0.0
6.1266448190008305,407,5469.35,-92.2,0.1,-121.3,0.26,0.04,0.57,0.1,-0.9,-0.18,-179.6,637.3,116.0,0.28,-17.19,-0.17,0.0,0.9232551110067033,0.6277738446287803,0.05806022427316415,0.5,0,0,0.0
6.13480828000047,408,5469.36,-92.2,0.1,-121.3,0.56,0.27,0.76,0.16,-0.88,-0.21,-173.4,610.1,-233.0,0.11,-15.97,0.32,0.0,0.9187491496594704,0.9818859404228172,0.06131486190798907,0.5,0,0,0.0
6.146983853000165,409,5469.37,-92.1,0.0,-121.2,1.04,0.62,1.08,0.23,-0.86,-0.22,-167.7,535.1,-705.0,-0.02,-13.29,0.4,0.0,0.9170059977993601,1.6224672569885656,0.06179685349273745,0.5,0,0,0.0
6.154862185000638,410,5469.38,-92.0,-0.1,-121.2,1.01,1.07,1.44,0.21,-0.88,-0.26,-163.0,443.1,-780.0,-0.14,-11.09,0.26,0.0,0.9413288479590965,2.0587860500790267,0.036724523266341014,0.5,0,0,0.0
6.166818344000603,411,5469.39,-91.9,-0.2,-121.0,0.23,1.56,1.46,0.1,-0.97,-0.28,-159.2,366.4,-741.0,-0.23,-9.15,0.33,0.0,1.0145442326483356,2.1489765005695154,0.03576104419444004,0.5,0,0,0.0
6.174763195000196,412,5469.4,-91.9,-0.3,-120.8,-0.37,1.82,1.28,0.01,-0.98,-0.22,-155.9,308.6,-581.0,-0.32,-7.83,0.21,0.0,1.0044401425669924,2.255593048402127,0.02514381503083496,0.5,0,0,0.0
6.186733979000564,413,5469.41,-92.0,-0.4,-120.7,-0.28,1.66,1.2,0.0,-0.95,-0.13,-153.1,267.4,-444.0,-0.39,-6.84,0.13,0.0,0.9588534820294495,2.0673654732533384,0.020033988596573793,0.5,0,0,0.0
6.194697581000582,414,5469.42,-92.1,-0.6,-120.5,0.05,1.33,1.26,0.0,-0.9,-0.11,-150.7,230.0,-412.0,-0.45,-5.75,0.13,0.0,0.906697303403953,1.8327574853209576,0.07074636387762889,0.5,0,0,0.0
6.206778113000837,415,5469.43,-92.1,-0.7,-120.4,-0.02,1.12,1.31,0.03,-0.89,-0.14,-148.7,186.8,-436.0,-0.5,-4.51,0.14,0.0,0.901443287178955,1.723629890666787,0.07448037250057438,0.5,0,0,0.0
6.214768298000308,416,5469.44,-92.1,-0.8,-120.3,-0.45,1.03,1.31,0.04,-0.89,-0.17,-147.2,138.2,-485.0,-0.53,-3.12,0.32,0.0,0.9069729874698585,1.7261228229763952,0.06757165876547744,0.5,0,0,0.0
6.227002034000179,417,5469.45,-92.2,-0.9,-120.2,-1.05,0.92,1.19,0.0,-0.94,-0.16,-146.1,88.1,-488.0,-0.55,-1.81,0.24,0.0,0.9535197952848173,1.8343936327844141,0.02060435393150828,0.5,0,0,0.0
6.234726802000296,418,5469.46,-92.4,-1.0,-120.1,-1.32,0.81,0.99,-0.03,-1.01,-0.14,-145.6,44.3,-438.0,-0.57,-0.7,0.16,0.0,1.0200980345045274,1.838096841844847,0.04505440758243773,0.5,0,0,0.0
6.246850248000555,419,5469.47,-92.6,-1.1,-120.0,-1.16,0.56,0.76,-0.04,-1.05,-0.12,-145.4,4.0,-396.0,-0.57,0.28,0.03,0.0,1.0575916035975323,1.4955935276671934,0.08089701714193387,0.5,0,0,0.0
6.254688272000749,420,5469.48,-92.7,-1.2,-120.0,-0.6,0.22,0.64,-0.04,-1.03,-0.14,-145.5,-18.1,-225.0,-0.56,0.61,-0.01,0.0,1.040240356840668,0.904433524367601,0.062274854977368066,0.5,0,0,0.0
6.266774017000898,421,5469.49,-92.8,-1.3,-119.9,0.0,0.02,0.71,-0.02,-0.99,-0.21,-145.8,-28.7,-145.0,-0.55,0.9,-0.18,0.0,1.0122252713699653,0.7102816342831905,0.033574574116532085,0.5,0,0,0.0
6.274735898000472,422,5469.5,-92.7,-1.4,-119.9,0.21,0.12,0.84,0.0,-1.0,-0.25,-146.2,-48.4,-243.0,-0.54,1.75,0.22,0.0,1.0307764064044151,0.8741281370600079,0.05108319496796232,0.5,0,0,0.0
6.286732509000103,423,5469.51,-92.7,-1.4,-119.9,0.3,0.28,0.83,0.08,-1.0,-0.25,-146.9,-83.2,-295.0,-0.51,2.62,-0.12,0.0,1.0338762014864256,0.9259049627256568,0.05309933024897329,0.5,0,0,0.0
6.29469558800065,424,5469.52,-92.7,-1.5,-119.9,-0.67,0.58,0.55,-0.03,-1.23,-0.22,-147.9,-109.9,-264.0,-0.48,3.28,0.13,0.0,1.249879994239447,1.0429765098025938,0.26372106054195477,0.5,0,0,0.0
6.306822545000614,425,5469.53,-92.9,-1.5,-119.8,-1.69,0.67,-0.36,-0.09,-1.31,-0.21,-149.2,-135.0,-269.0,-0.44,4.03,0.26,0.0,1.3297744169595083,1.8532673849177834,0.33674317359677575,0.5,0,0,0.0
6.314698002000114,426,5469.54,-93.1,-1.5,-119.7,-1.83,0.62,-1.15,-0.03,-1.34,-0.19,-150.8,-168.5,-336.0,-0.4,5.05,-0.02,0.0,1.3537355724069602,2.248510618164833,0.35349024246334304,0.5,0,0,0.0
6.326837864000481,427,5469.55,-93.4,-1.3,-119.7,-1.68,0.29,-1.78,0.0,-1.3,-0.17,-152.7,-207.7,-363.0,-0.34,6.08,-0.09,0.0,1.3110682667199294,2.464731222669117,0.304606478040786,0.5,0,0,0.0
6.33471576500051,428,5469.56,-93.6,-1.1,-119.7,-2.03,0.0,-2.16,0.0,-1.26,-0.14,-155.0,-239.7,-315.0,-0.27,6.86,0.17,0.0,1.2677539193392384,2.9642030969554027,0.25606628804689313,0.5,0,0,0.0
6.34668429300018,429,5469.57,-93.8,-0.8,-119.7,-2.33,-0.36,-2.53,-0.03,-1.24,-0.12,-157.6,-262.5,-229.0,-0.2,7.33,0.14,0.0,1.2461540835707277,3.458236544830327,0.22977712323281474,0.5,0,0,0.0
6.354686334000689,430,5469.58,-94.1,-0.6,-119.8,-2.43,-0.56,-2.71,-0.06,-1.2,-0.08,-160.3,-274.7,-135.0,-0.13,7.53,-0.12,0.0,1.2041594578792296,3.6827435425236983,0.18402684759049026,0.5,0,0,0.0
6.366769301000204,431,5469.59,-94.3,-0.4,-119.9,-2.23,-0.86,-2.57,-0.03,-1.17,-0.01,-163.1,-275.7,-25.0,-0.05,7.43,0.08,0.0,1.1704272724095246,3.509615363540569,0.1472887688783695,0.5,0,0,0.0
6.374705496000388,432,5469.6,-94.4,-0.1,-120.0,-1.8,-1.07,-2.36,0.04,-1.21,0.03,-165.8,-268.3,42.0,0.01,7.2,-0.18,0.0,1.2110326172320875,3.1550752764395336,0.1841362314269137,0.5,0,0,0.0
6.386708973000168,433,5469.61,-94.6,0.0,-120.1,-1.75,-1.03,-2.25,0.1,-1.25,0.04,-168.5,-265.7,13.0,0.08,7.23,-0.07,0.0,1.2546314199795892,3.0308249702020076,0.22318033349092703,0.5,0,0,0.0
6.394745786000385,434,5469.62,-94.8,0.2,-120.2,-2.23,-0.62,-2.08,0.12,-1.28,0.0,-171.1,-264.4,30.0,0.16,7.11,-0.06,0.0,1.2856126943990558,3.1118643929323144,0.24907837575218572,0.5,0,0,0.0
6.406726363000416,435,5469.63,-95.0,0.4,-120.3,-1.99,0.1,-1.94,0.13,-1.26,-0.02,-173.7,-253.0,117.0,0.22,6.64,0.0,0.0,1.2668464784653268,2.7809530740377477,0.2257059166220876,0.5,0,0,0.0
6.414704842000901,436,5469.64,-95.2,0.6,-120.2,-0.87,1.05,-1.5,0.16,-1.17,-0.01,-176.1,-232.2,188.0,0.29,6.02,-0.01,0.0,1.1809318354587617,2.0271655087831384,0.13699544814321207,0.5,0,0,0.0
6.427081950000684,437,5469.65,-95.2,0.7,-120.1,0.3,2.1,-0.88,0.19,-1.07,0.0,-178.2,-207.2,237.0,0.34,5.31,-0.3,0.0,1.0867382389517726,2.296606191753388,0.041945814603498555,0.5,0,0,0.0
6.434740496000813,438,5469.66,-95.1,0.8,-119.8,0.76,3.09,-0.29,0.17,-1.01,0.06,-180.1,-179.7,271.0,0.39,4.5,-0.01,0.0,1.0259629622944486,3.195277765703633,0.018452872812748877,0.5,0,0,0.0
6.446524471000885,439,5469.67,-95.0,0.8,-119.5,1.03,3.79,0.06,0.16,-0.98,0.11,-181.7,-147.0,310.0,0.43,3.6,-0.11,0.0,0.9990495483208027,3.9279256612110167,0.04445896105066682,0.5,0,0,0.0
6.454725006000444,440,5469.68,-94.9,0.9,-119.1,0.96,4.29,0.16,0.16,-0.98,0.15,-182.9,-114.4,320.0,0.46,2.7,-0.07,0.0,1.0042410069301093,4.399011252543008,0.03848215239253294,0.5,0,0,0.0
6.466755518000355,441,5469.69,-94.8,0.9,-118.6,0.75,4.71,-0.05,0.12,-0.99,0.12,-183.9,-80.7,333.0,0.48,1.78,-0.13,0.0,1.0044401425669924,4.769601660516316,0.037517356420536885,0.5,0,0,0.0
6.474535308000668,442,5469.7,-94.8,1.0,-118.1,0.73,4.98,-0.42,0.06,-0.99,0.13,-184.4,-48.2,311.0,0.49,0.96,0.03,0.0,1.000299955013495,5.050712820978838,0.040824393094553546,0.5,0,0,0.0
6.486651089000588,443,5469.71,-94.7,1.1,-117.6,1.08,4.91,-0.77,0.01,-0.97,0.15,-184.7,-20.4,283.0,0.49,0.24,-0.16,0.0,0.981580358401695,5.08600039323632,0.05835310991222642,0.5,0,0,0.0
6.4947977780002475,444,5469.72,-94.5,1.2,-117.2,1.26,4.56,-1.0,-0.02,-0.95,0.15,-184.8,1.7,206.0,0.49,-0.18,-0.04,0.0,0.961977130705299,4.835411047677333,0.07639721085645002,0.5,0,0,0.0
6.506721980000293,445,5469.73,-94.4,1.3,-116.7,0.9,4.05,-1.14,-0.05,-0.94,0.12,-184.7,4.0,41.0,0.49,-0.01,0.01,0.0,0.9489467845985885,4.302569000027773,0.08763900582389728,0.5,0,0,0.0
6.514724071000273,446,5469.74,-94.3,1.5,-116.4,0.43,3.61,-1.05,-0.08,-0.93,0.08,-184.7,-2.7,-21.0,0.49,0.11,0.01,0.0,0.9368564457802486,3.7841115205553866,0.09773475774939233,0.5,0,0,0.0
6.5270899310007735,447,5469.75,-94.3,1.6,-116.0,0.16,3.32,-0.8,-0.11,-0.93,0.05,-184.8,-6.1,-27.0,0.5,0.21,0.08,0.0,0.9378166132032425,3.418771709254656,0.09483909851987049,0.5,0,0,0.0
6.534564345000035,448,5469.76,-94.3,1.7,-115.7,0.4,3.03,-0.49,-0.1,-0.94,0.03,-184.9,-12.6,-72.0,0.5,0.48,0.0,0.0,0.9457801012920498,3.095319046560467,0.085138098222442,0.5,0,0,0.0
6.546925343000112,449,5469.77,-94.2,1.7,-115.4,0.67,2.73,-0.22,-0.1,-0.94,0.01,-185.1,-25.5,-121.0,0.51,0.9,-0.12,0.0,0.9453570753953238,2.8196099020963876,0.08384990163678463,0.5,0,0,0.0
6.554747004000092,450,5469.78,-94.1,1.8,-115.2,0.51,2.47,0.07,-0.1,-0.93,-0.01,-185.5,-44.0,-176.0,0.52,1.46,-0.17,0.0,0.9354143466934854,2.5230735225117797,0.09191677773185059,0.5,0,0,0.0
6.566731687000356,451,5469.79,-94.1,1.8,-114.9,0.26,2.29,0.36,-0.1,-0.93,-0.01,-186.1,-66.5,-218.0,0.54,2.11,0.13,0.0,0.9354143466934854,2.332659426491574,0.09007844217721361,0.5,0,0,0.0
6.574560440000823,452,5469.8,-94.0,1.7,-114.7,0.22,2.13,0.6,-0.11,-0.94,0.0,-186.9,-91.0,-237.0,0.56,2.78,-0.14,0.0,0.9464142856064673,2.2238030488332368,0.07749693319894713,0.5,0,0,0.0
6.587084520000644,453,5469.81,-94.0,1.7,-114.5,0.47,1.93,0.74,-0.1,-0.95,0.0,-188.0,-114.2,-213.0,0.6,3.31,-0.07,0.0,0.95524865872714,2.119764137822885,0.06728930887670903,0.5,0,0,0.0
6.594666686000892,454,5469.82,-93.9,1.6,-114.3,0.65,1.69,0.83,-0.09,-0.94,0.0,-189.2,-130.7,-172.0,0.63,3.72,0.01,0.0,0.9442986815621421,1.9918584287042087,0.07667450032087286,0.5,0,0,0.0
6.60657141000047,455,5469.83,-93.9,1.5,-114.2,0.69,1.44,0.8,-0.07,-0.95,0.0,-190.6,-144.7,-140.0,0.67,4.05,0.01,0.0,0.9525754563287887,1.7859731240978962,0.06702977104314178,0.5,0,0,0.0
6.6147234170002775,456,5469.84,-93.8,1.5,-114.0,0.83,1.2,0.68,-0.06,-0.89,0.0,-192.1,-154.1,-102.0,0.71,4.28,0.02,0.0,0.8920201791439475,1.6097515336225028,0.1250333472634233,0.5,0,0,0.0
6.626706453000224,457,5469.85,-93.7,1.4,-113.9,0.6,0.89,0.71,-0.06,-0.86,0.0,-193.7,-159.3,-54.0,0.76,4.34,-0.14,0.0,0.8620904824900922,1.2869343417595165,0.151863783038933,0.5,0,0,0.0
6.634651634000875,458,5469.86,-93.6,1.3,-113.8,0.35,0.57,0.77,-0.05,-0.84,-0.03,-195.3,-161.8,-35.0,0.8,4.42,-0.1,0.0,0.8420213774008353,1.0199509792141974,0.16849423036562616,0.5,0,0,0.0
6.646948608000457,459,5469.87,-93.6,1.2,-113.8,0.03,0.3,0.81,-0.04,-0.86,-0.06,-197.0,-162.7,-6.0,0.85,4.4,-0.11,0.0,0.8630179604156567,0.8642916174532761,0.14454769440378867,0.5,0,0,0.0
6.654681682000046,460,5469.88,-93.6,1.0,-113.8,-0.14,0.09,0.8,-0.03,-0.89,-0.06,-198.6,-160.7,20.0,0.89,4.3,-0.08,0.0,0.8925245094673872,0.817129120763665,0.11274032244501708,0.5,0,0,0.0
6.66659085900028,461,5469.89,-93.7,0.9,-113.8,0.0,-0.03,0.79,-0.03,-0.91,-0.08,-200.1,-154.4,57.0,0.93,4.09,0.0,0.0,0.9140021881811882,0.7905694150420949,0.08943739085659175,0.5,0,0,0.0
6.674727100000382,462,5469.9,-93.7,0.8,-113.8,0.36,-0.15,0.84,-0.03,-0.92,-0.07,-201.6,-145.7,83.0,0.97,3.82,-0.05,0.0,0.9231467922275417,0.9261209424259879,0.07868693107403335,0.5,0,0,0.0
6.68655846800084,463,5469.91,-93.6,0.7,-113.8,0.71,-0.26,0.92,-0.04,-0.92,-0.09,-203.0,-133.7,108.0,1.01,3.49,-0.09,0.0,0.9252567211320327,1.1908400396358865,0.07504546212615149,0.5,0,0,0.0
6.694529965000584,464,5469.92,-93.5,0.6,-113.8,0.94,-0.33,0.89,-0.06,-0.92,-0.09,-204.3,-120.1,132.0,1.04,3.08,0.09,0.0,0.9263368717696603,1.3358892169637422,0.07248600525875348,0.5,0,0,0.0
6.706577186000686,465,5469.93,-93.5,0.4,-113.8,1.08,-0.46,0.67,-0.07,-0.89,-0.09,-205.4,-105.1,142.0,1.07,2.68,-0.04,0.0,0.8972736483370054,1.3516286472252652,0.09951824411758015,0.5,0,0,0.0
6.714700780000385,466,5469.94,-93.4,0.4,-113.9,1.16,-0.65,0.37,-0.08,-0.84,-0.1,-206.3,-91.0,141.0,1.09,2.3,-0.32,0.0,0.84970583144992,1.380217374184226,0.1441443397845723,0.5,0,0,0.0
6.7264623330002,467,5469.95,-93.2,0.3,-114.0,1.16,-0.84,0.06,-0.1,-0.8,-0.12,-207.1,-78.2,125.0,1.11,1.99,-0.12,0.0,0.8151073548925933,1.4334573589751458,0.17516796001506096,0.5,0,0,0.0
6.734676433000459,468,5469.96,-93.1,0.4,-114.1,0.99,-1.08,-0.27,-0.11,-0.79,-0.13,-207.8,-66.9,108.0,1.13,1.72,0.15,0.0,0.8081460264085941,1.4897650821522164,0.17848670272907896,0.5,0,0,0.0
6.746985474000212,469,5469.97,-93.1,0.4,-114.2,0.67,-1.37,-0.56,-0.12,-0.77,-0.13,-208.4,-59.8,80.0,1.15,1.53,-0.05,0.0,0.7900632886041472,1.6246230331987788,0.1926380517228553,0.5,0,0,0.0
6.754466374000003,470,5469.98,-93.0,0.4,-114.4,0.19,-1.75,-0.74,-0.12,-0.76,-0.12,-209.0,-54.1,60.0,1.16,1.41,0.02,0.0,0.7787168933572713,1.9095025530226453,0.19990475803033658,0.5,0,0,0.0
6.766858262000824,471,5469.99,-93.0,0.5,-114.6,-0.46,-2.16,-0.75,-0.08,-0.76,-0.13,-209.5,-50.8,31.0,1.17,1.38,0.06,0.0,0.7751773990513398,2.3323164450820135,0.19937536728954286,0.5,0,0,0.0
6.774730802000704,472,5470.0,-93.0,0.5,-114.6,-0.46,-2.16,-0.75,-0.08,-0.76,-0.13,-209.8,-51.4,-1.0,1.19,1.47,-0.15,0.0,0.7751773990513398,2.3323164450820135,0.19538785994375196,0.5,0,0,0.0
6.7865821510004025,473,5470.01,-93.2,0.6,-115.1,-1.05,-2.56,-0.58,-0.02,-0.84,-0.16,-210.6,-59.0,-61.0,1.2,1.72,0.16,0.0,0.8553361912137237,2.827100988645436,0.1129244864257406,0.5,0,0,0.0
6.7947023810002065,474,5470.02,-93.3,0.7,-115.3,-0.88,-2.62,-0.54,-0.03,-0.86,-0.17,-211.3,-70.3,-100.0,1.22,2.07,0.06,0.0,0.8771544903835355,2.8160965892525778,0.0892840635108102,0.5,0,0,0.0
6.8065796580003735,475,5470.03,-93.4,0.7,-115.6,-0.84,-2.59,-0.49,-0.03,-0.87,-0.19,-212.1,-84.2,-135.0,1.25,2.48,0.0,0.0,0.891010662113535,2.76655019835173,0.07391933394519457,0.5,0,0,0.0
6.814724603000286,476,5470.04,-93.5,0.7,-115.8,-1.1,-2.35,-0.43,-0.03,-0.9,-0.22,-213.0,-100.8,-156.0,1.28,2.94,0.19,0.0,0.9269843580125827,2.6300950553164424,0.03718672528522382,0.5,0,0,0.0
6.826553471000807,477,5470.05,-93.7,0.7,-116.0,-1.72,-1.92,-0.28,-0.01,-0.96,-0.22,-214.2,-119.2,-173.0,1.31,3.45,0.13,0.0,0.9849365461794988,2.5929134193026964,0.020350153624058342,0.5,0,0,0.0
6.834565247000683,478,5470.06,-93.9,0.8,-116.2,-2.1,-1.44,-0.14,0.01,-1.06,-0.2,-215.5,-138.2,-186.0,1.35,3.99,0.04,0.0,1.0787492757819122,2.550137251208256,0.11187962556194231,0.5,0,0,0.0
6.846516243000224,479,5470.07,-94.2,0.8,-116.3,-1.79,-1.03,-0.08,0.05,-1.13,-0.2,-217.0,-156.2,-169.0,1.39,4.43,0.0,0.0,1.1486513831445988,2.0667365579579804,0.17814609826613637,0.5,0,0,0.0
6.85455295400061,480,5470.08,-94.3,0.8,-116.4,-1.02,-0.84,-0.12,0.09,-1.17,-0.24,-218.7,-170.2,-141.0,1.44,4.76,-0.15,0.0,1.1977478866606277,1.3268006632497589,0.222697749746522,0.5,0,0,0.0
6.8668333730001905,481,5470.09,-94.4,0.8,-116.5,-0.5,-0.83,-0.41,0.07,-1.14,-0.25,-220.4,-178.2,-86.0,1.49,4.91,0.0,0.0,1.1691877522451215,1.0521406750050109,0.19025486302439554,0.5,0,0,0.0
6.874669547000849,482,5470.1,-94.4,0.8,-116.6,-0.93,-1.04,-0.48,0.04,-1.07,-0.29,-222.2,-183.0,-55.0,1.54,5.01,0.02,0.0,1.109324118551472,1.4754321400864223,0.12778340474413108,0.5,0,0,0.0
6.886552488000234,483,5470.11,-94.6,0.9,-116.7,-1.45,-1.25,-0.48,0.02,-1.08,-0.27,-224.1,-186.9,-53.0,1.59,5.16,0.08,0.0,1.1134181604410807,1.9736767719158068,0.12923989770106503,0.5,0,0,0.0
6.8946962890004215,484,5470.12,-94.7,0.9,-116.9,-1.61,-1.31,-0.18,0.0,-1.1,-0.26,-226.0,-195.3,-90.0,1.64,5.47,0.0,0.0,1.1303096920755835,2.0834106652314133,0.14320880074885656,0.5,0,0,0.0
6.90647129700028,485,5470.13,-94.9,0.9,-117.0,-1.3,-1.08,0.27,0.0,-1.14,-0.22,-228.1,-210.4,-144.0,1.7,5.95,0.01,0.0,1.1610340218959994,1.7115197924651646,0.170454467957887,0.5,0,0,0.0
6.914534121000543,486,5470.14,-95.1,0.8,-117.1,-0.61,-0.76,0.72,0.0,-1.19,-0.17,-230.3,-232.4,-209.0,1.76,6.62,0.25,0.0,1.2020815280171306,1.2116517651536682,0.20727193459743787,0.5,0,0,0.0
6.926523089000511,487,5470.15,-95.1,0.7,-117.1,-0.42,-0.72,0.92,-0.03,-1.22,-0.11,-232.8,-259.0,-254.0,1.83,7.39,0.34,0.0,1.2253162856993292,1.2414507642270796,0.22589655843404366,0.5,0,0,0.0
6.934646900000189,488,5470.16,-95.2,0.6,-117.2,-0.7,-0.83,0.91,-0.02,-1.26,-0.04,-235.6,-287.8,-278.0,1.91,8.17,-0.07,0.0,1.260793400997959,1.4166862743741113,0.25614620025801993,0.5,0,0,0.0
6.946527431000504,489,5470.17,-95.2,0.5,-117.3,-1.01,-0.87,0.86,0.02,-1.29,0.02,-238.7,-312.8,-239.0,2.0,8.76,0.0,0.0,1.2903100402616419,1.586379525838631,0.2799495827312688,0.5,0,0,0.0
6.954641713000456,490,5470.18,-95.3,0.4,-117.4,-1.34,-0.77,1.41,0.03,-1.3,0.1,-242.0,-338.0,-276.0,2.09,9.59,0.06,0.0,1.3041855696180662,2.0920325045275945,0.2879486098459392,0.5,0,0,0.0
6.966950739000822,491,5470.19,-95.4,0.2,-117.4,-1.16,-0.6,2.52,0.07,-1.35,0.22,-245.6,-369.0,-280.0,2.19,10.34,0.01,0.0,1.3695984813075692,2.8383093559370867,0.3462942911047333,0.5,0,0,0.0
6.974675058000685,492,5470.2,-95.5,-0.1,-117.4,0.08,-0.89,3.54,0.14,-1.44,0.37,-249.4,-393.0,-254.0,2.3,10.99,0.17,0.0,1.4933519344079613,3.6510409474559444,0.4606467893210229,0.5,0,0,0.0
6.986835570000039,493,5470.21,-95.4,-0.4,-117.5,2.08,-1.57,3.78,0.03,-1.35,0.36,-253.5,-421.0,-274.0,2.42,11.78,0.04,0.0,1.3974977638622539,4.59126344267022,0.3574967663998092,0.5,0,0,0.0
6.99465862300076,494,5470.22,-95.1,-0.8,-117.7,2.64,-2.34,3.36,-0.11,-1.13,0.35,-257.9,-437.6,-140.0,2.54,11.92,0.06,0.0,1.1880656547514534,4.8718374357115,0.14510336414322866,0.5,0,0,0.0
7.006789187000322,495,5470.23,-94.9,-1.2,-118.0,1.65,-3.3,2.8,-0.25,-0.99,0.33,-262.3,-438.3,-40.0,2.66,11.87,-0.16,0.0,1.0730796801729123,4.631684358848301,0.029515041773393813,0.5,0,0,0.0
7.014634173000559,496,5470.24,-94.8,-1.4,-118.3,0.61,-4.31,1.99,-0.35,-0.95,0.31,-266.6,-430.5,65.0,2.77,11.52,-0.07,0.0,1.0588200980336555,4.786261589173747,0.014950350441454319,0.5,0,0,0.0
7.0270848630007094,497,5470.25,-94.7,-1.6,-118.8,-0.14,-5.17,1.27,-0.43,-0.93,0.27,-270.8,-413.0,164.0,2.88,10.91,-0.03,0.0,1.0595753866525968,5.325542225914654,0.015391526279187717,0.5,0,0,0.0
7.034640855000362,498,5470.26,-94.8,-1.8,-119.3,-0.63,-5.74,0.89,-0.4,-0.93,0.19,-274.7,-377.8,348.0,2.98,9.66,-0.4,0.0,1.0300485425454473,5.842653506755299,0.013852611471402598,0.5,0,0,0.0
7.046863287000633,499,5470.27,-94.8,-1.9,-119.9,-0.37,-6.06,0.63,-0.29,-0.98,0.11,-278.2,-329.3,424.0,3.07,8.41,-0.34,0.0,1.0279105019407089,6.103884009382878,0.0156708390346183,0.5,0,0,0.0
7.054667620000146,500,5470.28,-94.8,-2.0,-120.5,-0.03,-5.98,0.46,-0.15,-1.01,0.05,-281.1,-286.2,424.0,3.15,7.25,-0.07,0.0,1.02230132544177,5.9977412415008375,0.020854415222886002,0.5,0,0,0.0
7.066643523000494,501,5470.29,-94.7,-2.1,-121.1,0.04,-5.69,0.35,0.0,-1.02,0.0,-283.7,-240.5,458.0,3.21,5.95,-0.17,0.0,1.02,5.7008946666290905,0.02269262585136289,0.5,0,0,0.0
7.0746727930009,502,5470.3,-94.7,-2.2,-121.6,0.13,-5.27,0.22,0.11,-1.04,0.0,-285.8,-191.6,481.0,3.26,4.6,-0.21,0.0,1.0458011283222064,5.2761918084921815,0.003046332421426712,0.5,0,0,0.0
7.086496146000172,503,5470.31,-94.7,-2.2,-122.1,0.43,-4.69,0.12,0.2,-1.01,-0.05,-287.3,-143.9,477.0,3.3,3.31,-0.41,0.0,1.030824912388132,4.711199422652367,0.01169128584239476,0.5,0,0,0.0
7.094484601000659,504,5470.32,-94.6,-2.3,-122.6,0.67,-3.84,0.04,0.23,-0.99,-0.07,-288.5,-96.2,475.0,3.32,2.03,-0.16,0.0,1.0187737727287642,3.8982175413899105,0.023267576991727212,0.5,0,0,0.0
7.106514817000061,505,5470.33,-94.5,-2.3,-122.9,0.44,-3.11,-0.15,0.22,-0.97,-0.05,-289.1,-48.4,480.0,3.34,0.72,-0.17,0.0,0.9958915603618699,3.1445508423302684,0.04522679357144921,0.5,0,0,0.0
7.114728249000109,506,5470.34,-94.5,-2.3,-123.2,-0.19,-2.62,-0.45,0.19,-0.98,-0.02,-289.2,-1.8,449.0,3.33,-0.42,0.03,0.0,0.9984487968844471,2.6651453994106964,0.04181616590789461,0.5,0,0,0.0
7.126412511000126,507,5470.35,-94.5,-2.2,-123.4,-0.52,-2.32,-0.83,0.13,-0.96,-0.01,-289.0,30.9,343.0,3.32,-1.18,-0.04,0.0,0.9688137075826291,2.518273217901505,0.07002223010551845,0.5,0,0,0.0
7.134583562000444,508,5470.36,-94.6,-2.1,-123.7,-0.71,-2.09,-1.09,0.06,-0.93,-0.01,-288.5,57.8,288.0,3.31,-1.88,-0.24,0.0,0.9319871243745806,2.461767657598905,0.10471183704729559,0.5,0,0,0.0
7.146502945000066,509,5470.37,-94.6,-2.0,-123.9,-0.76,-1.93,-1.16,0.02,-0.9,-0.02,-287.8,83.5,268.0,3.28,-2.58,0.0,0.0,0.9004443347592342,2.3765731631910683,0.13352953412938906,0.5,0,0,0.0
7.154703731000154,510,5470.38,-94.7,-1.9,-124.1,-0.64,-1.85,-1.16,0.0,-0.89,-0.02,-286.8,109.1,253.0,3.25,-3.25,-0.17,0.0,0.8902246907382427,2.2754559982561737,0.14087419458737305,0.5,0,0,0.0
7.1663399960007155,511,5470.39,-94.7,-1.8,-124.3,-0.43,-1.82,-1.12,-0.01,-0.88,-0.02,-285.5,134.0,259.0,3.22,-3.99,-0.19,0.0,0.8802840450672725,2.1798394436288193,0.14779854345317645,0.5,0,0,0.0
7.17454880600053,512,5470.4,-94.7,-1.7,-124.4,-0.33,-1.73,-1.03,0.0,-0.86,-0.05,-284.0,160.0,249.0,3.17,-4.63,-1.34,0.0,0.8614522621712708,2.04026959002971,0.16329771982219454,0.5,0,0,0.0
7.186379530000522,513,5470.41,-94.7,-1.6,-124.6,-0.35,-1.54,-0.85,0.04,-0.86,-0.07,-282.2,185.4,257.0,3.12,-5.35,0.0,0.0,0.8637708029332781,1.7934882213162147,0.15775959547898355,0.5,0,0,0.0
7.19445205700049,514,5470.42,-94.7,-1.5,-124.8,-0.32,-1.31,-0.67,0.09,-0.88,-0.11,-280.2,209.2,232.0,3.06,-5.95,-0.05,0.0,0.891403387922662,1.5057888298164521,0.12752447027980762,0.5,0,0,0.0
7.206463704000271,515,5470.43,-94.8,-1.4,-124.9,-0.16,-1.04,-0.57,0.13,-0.89,-0.14,-277.9,231.1,227.0,3.0,-6.56,-0.15,0.0,0.910274683818022,1.196703806294607,0.1064801108967588,0.5,0,0,0.0
7.214591354000731,516,5470.44,-94.8,-1.4,-125.0,-0.01,-0.83,-0.46,0.14,-0.9,-0.14,-275.5,255.3,249.0,2.93,-7.27,-0.14,0.0,0.9215204826806618,0.9489994731294639,0.09332962579343662,0.5,0,0,0.0
7.226553069000147,517,5470.45,-94.8,-1.3,-125.1,0.06,-0.57,-0.38,0.15,-0.9,-0.15,-272.7,284.1,268.0,2.85,-8.04,-0.04,0.0,0.9246621004453465,0.6876772498781678,0.088384247868177,0.5,0,0,0.0
7.234504597000523,518,5470.46,-94.8,-1.3,-125.1,0.07,-0.29,-0.3,0.15,-0.89,-0.16,-269.7,310.0,255.0,2.76,-8.72,-0.27,0.0,0.916624241442479,0.4230839160261236,0.09449366473362364,0.5,0,0,0.0
7.24674929000048,519,5470.47,-94.7,-1.3,-125.1,0.01,0.0,-0.23,0.14,-0.88,-0.17,-266.4,335.5,256.0,2.67,-9.42,-0.02,0.0,0.9071383576941281,0.23021728866442678,0.10189995751233516,0.5,0,0,0.0
7.254664891000175,520,5470.48,-94.8,-1.3,-125.1,-0.15,0.26,-0.16,0.11,-0.88,-0.17,-262.9,359.7,237.0,2.57,-10.03,-0.11,0.0,0.9029950165975447,0.340147027033899,0.10392243263674028,0.5,0,0,0.0
7.266698251000889,521,5470.49,-94.8,-1.2,-125.1,-0.34,0.43,-0.14,0.09,-0.89,-0.17,-259.1,382.8,245.0,2.47,-10.73,-0.03,0.0,0.9105492847726586,0.5657738063926254,0.09444080117239384,0.5,0,0,0.0
7.274742104000325,522,5470.5,-94.8,-1.2,-125.0,-0.47,0.56,-0.11,0.06,-0.89,-0.19,-255.1,410.4,259.0,2.36,-11.45,-0.17,0.0,0.9120307012376283,0.7393240155709809,0.09110019701327565,0.5,0,0,0.0
7.286441393000132,523,5470.51,-94.9,-1.2,-125.0,-0.57,0.66,-0.03,0.03,-0.89,-0.2,-250.9,428.9,186.0,2.24,-11.84,-0.21,0.0,0.9126883367283709,0.8725823743349392,0.08863371029208245,0.5,0,0,0.0
7.294649164000475,524,5470.52,-94.9,-1.2,-124.9,-0.43,0.76,0.05,0.03,-0.91,-0.21,-246.4,451.0,242.0,2.11,-12.6,0.15,0.0,0.9343982020530648,0.874642784226795,0.06558536806804083,0.5,0,0,0.0
7.3064434470006745,525,5470.53,-95.0,-1.2,-124.8,-0.09,0.87,0.15,0.03,-0.9,-0.22,-241.7,474.3,202.0,1.99,-13.09,-0.09,0.0,0.9269843580125827,0.8874119674649424,0.07153922786635247,0.5,0,0,0.0
7.314399001000311,526,5470.54,-94.9,-1.2,-124.7,0.32,0.97,0.32,0.05,-0.87,-0.23,-236.8,501.9,305.0,1.85,-14.11,0.0,0.0,0.9012768719988326,1.0703737664946764,0.09530177960250064,0.5,0,0,0.0
7.326526720000402,527,5470.55,-94.9,-1.3,-124.6,0.55,1.12,0.6,0.07,-0.85,-0.21,-231.6,530.9,246.0,1.7,-14.65,-0.12,0.0,0.8783507272155013,1.38452157801892,0.11586336589811519,0.5,0,0,0.0
7.3346808580008656,528,5470.56,-94.9,-1.3,-124.5,0.52,1.32,0.82,0.1,-0.86,-0.22,-226.1,553.1,246.0,1.55,-15.35,-0.23,0.0,0.8933084573650918,1.6386579875007474,0.09888752303355419,0.5,0,0,0.0
7.346414207000635,529,5470.57,-94.8,-1.4,-124.3,0.48,1.6,0.93,0.1,-0.89,-0.22,-220.4,581.1,310.0,1.39,-16.29,-0.06,0.0,0.9222255689363639,1.9118838876877435,0.06857100323303644,0.5,0,0,0.0
7.354742399000315,530,5470.58,-94.8,-1.5,-124.1,0.4,1.84,1.08,0.1,-0.88,-0.23,-214.4,610.0,228.0,1.22,-16.75,-0.26,0.0,0.9150409826887537,2.1707141681944218,0.0742404776910337,0.5,0,0,0.0
7.36653764500079,531,5470.59,-94.7,-1.6,-123.9,0.37,2.07,1.26,0.09,-0.87,-0.23,-208.1,632.4,243.0,1.05,-17.44,-0.13,0.0,0.9043782394551519,2.451407758819409,0.08320515650614269,0.5,0,0,0.0
7.374635811000189,532,5470.6,-94.7,-1.7,-123.7,0.48,2.26,1.45,0.09,-0.87,-0.22,-202.3,648.1,234.0,0.87,-18.15,0.01,0.0,0.9018869108707588,2.7277279923042177,0.08398255538872512,0.5,0,0,0.0
7.386391171000469,533,5470.61,-94.7,-1.8,-123.5,0.41,2.42,1.49,0.11,-0.9,-0.19,-195.0,680.9,225.0,0.69,-18.69,0.08,0.0,0.926390846241477,2.8713411500551445,0.05828904761764675,0.5,0,0,0.0
7.3947520420006185,534,5470.62,-94.6,-2.0,-123.2,0.17,2.43,1.4,0.11,-0.91,-0.17,-188.0,700.5,235.0,0.5,-19.37,0.11,0.0,0.9322553298319083,2.8095907175245296,0.05137607274667122,0.5,0,0,0.0
7.406419309000739,535,5470.63,-94.6,-2.1,-122.9,-0.12,2.36,1.21,0.09,-0.92,-0.15,-180.8,735.8,318.0,0.29,-20.35,-0.16,0.0,0.9364827814754524,2.654825794661488,0.04620564868106458,0.5,0,0,0.0
7.414753949000442,536,5470.64,-94.7,-2.2,-122.7,-0.45,2.36,1.07,0.06,-0.89,-0.16,-173.3,757.7,250.0,0.09,-20.91,-1.11,0.0,0.9062560344626678,2.6300190113381308,0.07490374777997222,0.5,0,0,0.0
7.42665490500076,537,5470.65,-94.8,-2.3,-122.5,-0.83,2.41,1.0,0.03,-0.9,-0.15,-165.6,768.9,150.0,-0.11,-21.12,0.07,0.0,0.9129074432821763,2.7380650101851125,0.06688729218125444,0.5,0,0,0.0
7.434745310000835,538,5470.66,-94.9,-2.3,-122.2,-1.01,2.27,0.87,0.0,-0.91,-0.13,-157.9,771.0,-93.0,-0.32,-20.4,0.1,0.0,0.9192388155425119,2.6324703227197075,0.059344801522500545,0.5,0,0,0.0
7.446280129000115,539,5470.67,-95.0,-2.3,-122.0,-0.96,1.97,0.84,0.03,-0.9,-0.12,-150.6,698.4,-734.0,-0.51,-17.32,0.81,0.0,0.9084602357836032,2.3469341703592796,0.06872091365578092,0.5,0,0,0.0
7.454616588000135,540,5470.68,-95.1,-2.4,-121.8,-0.34,1.77,0.91,0.16,-0.89,-0.15,-144.8,516.7,-1732.0,-0.64,-10.95,0.98,0.0,0.916624241442479,2.0190591868491623,0.059345769836967044,0.5,0,0,0.0
7.466451318000509,541,5470.69,-95.1,-2.5,-121.6,0.13,2.07,1.04,0.19,-1.05,-0.23,-141.4,260.0,-2256.0,-0.7,-4.08,0.68,0.0,1.0915585188161008,2.320215507232033,0.11327673738592159,0.5,0,0,0.0
7.474361061000309,542,5470.7,-95.2,-2.5,-121.4,-1.37,2.25,0.08,-0.16,-1.42,-0.22,-140.3,40.3,-2042.0,-0.7,1.0,0.6,0.0,1.4458215657542253,2.6354885695066104,0.4581889886375652,0.5,0,0,0.0
7.486643485000059,543,5470.71,-95.4,-2.5,-121.2,-1.84,2.15,-0.95,-0.36,-1.36,-0.15,-140.9,-92.7,-1372.0,-0.67,3.6,0.24,0.0,1.4148144754701941,2.98506281340946,0.41863826038646335,0.5,0,0,0.0
7.494592328000181,544,5470.72,-95.5,-2.3,-121.0,-0.13,1.23,-1.23,-0.38,-1.29,-0.09,-142.4,-168.7,-894.0,-0.62,5.27,0.0,0.0,1.3478130434151467,1.7443336836740841,0.3446040917647877,0.5,0,0,0.0
7.506453532000705,545,5470.73,-95.5,-2.2,-120.9,0.92,0.56,-1.08,-0.31,-1.2,-0.07,-144.5,-219.3,-607.0,-0.56,6.5,0.0,0.0,1.2413702106946178,1.5252540771950096,0.23339803386337366,0.5,0,0,0.0
7.514594314000533,546,5470.74,-95.4,-2.1,-120.9,0.71,0.24,-0.98,-0.13,-1.1,-0.07,-147.0,-262.1,-481.0,-0.49,7.61,0.2,0.0,1.1098648566379603,1.2337341690980275,0.09985482621058184,0.5,0,0,0.0
7.526630042000761,547,5470.75,-95.3,-2.0,-120.9,-0.05,-0.08,-1.09,0.0,-1.05,-0.08,-149.8,-299.5,-393.0,-0.41,8.54,0.21,0.0,1.0530432089900206,1.0940749517286281,0.04217251499138919,0.5,0,0,0.0
7.534530856000856,548,5470.76,-95.4,-1.9,-120.9,-1.34,-0.42,-1.25,0.01,-1.07,-0.1,-153.0,-326.4,-269.0,-0.32,9.05,0.06,0.0,1.074709263010234,1.880026595556563,0.0625617976313706,0.5,0,0,0.0
7.546492113000568,549,5470.77,-95.6,-1.7,-121.0,-2.44,-0.52,-1.59,0.0,-1.16,-0.11,-156.4,-335.0,-111.0,-0.23,9.1,0.06,0.0,1.1652038448271616,2.9583948350414624,0.14999525185933216,0.5,0,0,0.0
7.55454689400085,550,5470.78,-95.9,-1.5,-121.1,-3.06,-0.5,-2.0,-0.02,-1.24,-0.1,-159.7,-332.6,-4.0,-0.14,8.96,-0.08,0.0,1.2441864811996632,3.689661231061735,0.22439833046719726,0.5,0,0,0.0
7.566410410000572,551,5470.79,-96.2,-1.3,-121.1,-3.34,-0.51,-2.3,0.0,-1.31,-0.07,-163.0,-319.6,119.0,-0.05,8.42,0.17,0.0,1.3118688958886098,4.087260696358871,0.28623913025302095,0.5,0,0,0.0
7.5746436840008755,552,5470.8,-96.4,-1.0,-121.2,-2.95,-0.43,-2.75,0.02,-1.37,-0.03,-166.0,-294.5,216.0,0.02,7.68,-0.15,0.0,1.3704743704279916,4.055847630274096,0.33794771269655466,0.5,0,0,0.0
7.58658892800031,553,5470.81,-96.7,-0.7,-121.3,-2.59,-0.27,-2.91,0.07,-1.29,-0.04,-168.8,-272.0,201.0,0.09,7.17,0.0,0.0,1.2925169244539896,3.9050096030611754,0.2547904613881016,0.5,0,0,0.0
7.594638425000085,554,5470.82,-96.9,-0.5,-121.3,-2.14,-0.03,-2.7,0.12,-1.25,-0.04,-171.4,-254.8,189.0,0.16,6.68,0.11,0.0,1.256383699353028,3.4453591975293376,0.21428409156139705,0.5,0,0,0.0
7.606604790000347,555,5470.83,-97.1,-0.2,-121.4,-1.53,0.44,-2.2,0.18,-1.19,-0.08,-173.8,-233.5,214.0,0.22,6.05,-0.08,0.0,1.2061923561356207,2.7156030637779156,0.16081089337710996,0.5,0,0,0.0
7.614677610000399,556,5470.84,-97.2,0.0,-121.3,-0.92,1.24,-1.5,0.21,-1.14,-0.08,-175.9,-207.9,250.0,0.28,5.31,0.05,0.0,1.1619380362136356,2.1526727572949866,0.11422544198602225,0.5,0,0,0.0
7.626369404000798,557,5470.85,-97.3,0.0,-121.1,-0.17,2.27,-0.9,0.21,-1.12,-0.08,-177.8,-180.1,273.0,0.33,4.53,-0.11,0.0,1.142322196230118,2.4478153525133384,0.09271740996245459,0.5,0,0,0.0
7.63451208800052,558,5470.86,-97.2,0.1,-120.8,0.57,3.39,-0.52,0.16,-1.09,-0.06,-179.4,-149.6,302.0,0.37,3.66,-0.32,0.0,1.1033131921625883,3.476693831789046,0.05263423777702636,0.5,0,0,0.0
7.646423073000733,559,5470.87,-97.2,0.2,-120.5,0.96,4.3,-0.35,0.1,-1.03,0.0,-180.7,-116.0,333.0,0.4,2.7,-0.17,0.0,1.034842983258813,4.419739811346364,0.015519251704213755,0.5,0,0,0.0
7.654735352000898,560,5470.88,-97.1,0.3,-120.0,1.16,4.94,-0.28,0.06,-0.98,0.05,-181.6,-80.4,340.0,0.42,1.77,-0.27,0.0,0.9831073186585481,5.082086185809918,0.06590981797838913,0.5,0,0,0.0
7.666340315000525,561,5470.89,-96.9,0.4,-119.5,1.28,5.36,-0.35,0.07,-0.98,0.08,-182.2,-47.3,328.0,0.43,0.89,-0.14,0.0,0.9857484466130291,5.521820352021606,0.062003316223429916,0.5,0,0,0.0
7.6747361430007,562,5470.9,-96.8,0.5,-118.9,1.31,5.67,-0.58,0.05,-0.98,0.08,-182.4,-14.9,316.0,0.43,0.05,-0.1,0.0,0.9845303448853163,5.848196303134839,0.061956989592119815,0.5,0,0,0.0
7.6864536460007,563,5470.91,-96.6,0.6,-118.4,1.4,5.67,-0.86,0.01,-0.94,0.1,-182.4,7.6,208.0,0.43,-0.32,0.01,0.0,0.9453570753953238,5.903261810219838,0.09910765390047005,0.5,0,0,0.0
7.694359387000077,564,5470.92,-96.5,0.8,-117.9,1.63,5.41,-1.05,-0.02,-0.93,0.12,-182.3,14.8,92.0,0.42,-0.4,-0.01,0.0,0.9379232377972091,5.746955715855135,0.10441066166861313,0.5,0,0,0.0
7.706554904000768,565,5470.93,-96.3,1.0,-117.3,1.69,4.98,-1.19,-0.07,-0.9,0.11,-182.1,11.5,-2.0,0.42,-0.24,0.04,0.0,0.9093954035511727,5.391901334408856,0.13027972599635662,0.5,0,0,0.0
7.714732088000346,566,5470.94,-96.1,1.1,-116.9,1.36,4.5,-1.19,-0.13,-0.88,0.08,-182.1,3.8,-63.0,0.42,0.03,0.24,0.0,0.8931405264570632,4.849298918400473,0.14360391102865677,0.5,0,0,0.0
7.726225730000806,567,5470.95,-96.0,1.3,-116.5,0.96,3.98,-1.05,-0.17,-0.89,0.06,-182.1,-2.9,-34.0,0.42,0.06,-0.01,0.0,0.9080748867797194,4.226641692881004,0.1260961596918807,0.5,0,0,0.0
7.734660382000584,568,5470.96,-95.9,1.4,-116.1,0.74,3.39,-0.79,-0.18,-0.88,0.05,-182.1,-1.4,-1.0,0.42,0.01,0.04,0.0,0.8996110270555825,3.558623329322731,0.1318688190276972,0.5,0,0,0.0
7.746290863000468,569,5470.97,-95.9,1.5,-115.8,0.61,2.84,-0.48,-0.15,-0.9,0.02,-182.1,-0.9,-12.0,0.42,0.07,0.05,0.0,0.912633551870629,2.9441637182738325,0.11646936832839772,0.5,0,0,0.0
7.754718594000224,570,5470.98,-95.8,1.6,-115.6,0.32,2.44,-0.13,-0.1,-0.92,-0.01,-182.2,-7.2,-59.0,0.42,0.31,0.15,0.0,0.9254728521139883,2.464325465517897,0.10155746672333765,0.5,0,0,0.0
7.766336349000085,571,5470.99,-95.8,1.6,-115.3,0.18,2.23,0.23,-0.07,-0.96,-0.04,-182.3,-19.1,-105.0,0.43,0.67,0.02,0.0,0.9633794683301072,2.249044241450132,0.062377833497074264,0.5,0,0,0.0
7.7746766960008244,572,5471.0,-95.8,1.6,-115.3,0.18,2.23,0.23,-0.07,-0.96,-0.04,-182.5,-28.3,-158.0,0.44,1.14,0.02,0.0,0.9633794683301072,2.249044241450132,0.06113027682713279,0.5,0,0,0.0
7.786430303000088,573,5471.01,-95.6,1.5,-114.9,0.85,2.09,0.85,-0.06,-0.98,-0.06,-183.1,-52.3,-204.0,0.46,1.67,0.11,0.0,0.983666610188635,2.411037121240567,0.04002627226923294,0.5,0,0,0.0
7.794562800000676,574,5471.02,-95.5,1.3,-114.7,1.21,2.05,0.93,-0.07,-0.96,-0.06,-183.8,-71.1,-184.0,0.48,2.15,0.0,0.0,0.9644169222903547,2.555679948663369,0.05809044096416294,0.5,0,0,0.0
7.806713391000812,575,5471.03,-95.4,1.2,-114.5,1.46,1.97,0.9,-0.08,-0.93,-0.06,-184.6,-88.4,-174.0,0.5,2.59,-0.01,0.0,0.9353608929178086,2.6119915773217954,0.08540354092997493,0.5,0,0,0.0
7.814555578000181,576,5471.04,-95.2,1.1,-114.3,1.47,1.85,0.82,-0.09,-0.89,-0.06,-185.6,-101.0,-127.0,0.53,2.86,-0.16,0.0,0.8965489389877164,2.5011597310047993,0.12173118496286572,0.5,0,0,0.0
7.82658783000079,577,5471.05,-95.1,1.1,-114.1,1.15,1.64,0.76,-0.09,-0.88,-0.05,-186.7,-110.9,-102.0,0.56,3.11,-0.1,0.0,0.8860022573334675,2.1423585134145964,0.12963230928477232,0.5,0,0,0.0
7.834705851000763,578,5471.06,-95.0,1.0,-113.9,0.73,1.42,0.73,-0.09,-0.88,-0.06,-187.8,-117.3,-66.0,0.59,3.23,-0.15,0.0,0.8866228059327146,1.7556195487633417,0.1264315254718147,0.5,0,0,0.0
7.8464627370003655,579,5471.07,-94.9,0.9,-113.8,0.46,1.14,0.68,-0.09,-0.9,-0.07,-189.0,-120.1,-29.0,0.62,3.25,-0.1,0.0,0.9071934744033381,1.4048487463068755,0.1037436398611673,0.5,0,0,0.0
7.854552390000208,580,5471.08,-94.9,0.8,-113.7,0.55,0.91,0.68,-0.09,-0.9,-0.08,-190.2,-120.6,-16.0,0.66,3.28,0.06,0.0,0.9080198235721508,1.2621410380777578,0.10085894487850755,0.5,0,0,0.0
7.866647338000803,581,5471.09,-94.8,0.6,-113.6,0.6,0.67,0.85,-0.08,-0.88,-0.08,-191.4,-120.7,-1.0,0.69,3.27,0.19,0.0,0.8872429205127533,1.2374974747448984,0.11920313097914692,0.5,0,0,0.0
7.874560488000498,582,5471.1,-94.7,0.5,-113.5,0.7,0.49,1.01,-0.07,-0.89,-0.09,-192.6,-120.4,1.0,0.72,3.26,0.07,0.0,0.8972736483370054,1.3229512462672235,0.10698895509179684,0.5,0,0,0.0
7.886590054000408,583,5471.11,-94.7,0.3,-113.5,0.84,0.42,1.02,-0.06,-0.88,-0.11,-193.8,-117.8,23.0,0.76,3.15,-0.05,0.0,0.8888756943465155,1.386506400994961,0.11307917090064112,0.5,0,0,0.0
7.894737879000786,584,5471.12,-94.6,0.2,-113.4,0.9,0.39,1.02,-0.05,-0.87,-0.12,-194.9,-113.5,41.0,0.78,3.02,0.0,0.0,0.8796590248499698,1.4150971698084907,0.11984992358924307,0.5,0,0,0.0
7.906466962000195,585,5471.13,-94.6,0.1,-113.4,0.82,0.35,0.98,-0.04,-0.86,-0.14,-196.0,-107.8,55.0,0.81,2.84,0.13,0.0,0.872238499494261,1.3248773528142141,0.12472503996605289,0.5,0,0,0.0
7.914682656000878,586,5471.14,-94.5,0.0,-113.4,0.66,0.39,0.92,-0.04,-0.87,-0.14,-197.0,-101.1,62.0,0.84,2.66,-0.16,0.0,0.8820997676000147,1.1975391434103522,0.11256649642309313,0.5,0,0,0.0
7.926510334000341,587,5471.15,-94.5,0.0,-113.3,0.64,0.46,0.77,-0.05,-0.88,-0.16,-198.0,-95.0,62.0,0.86,2.51,-0.21,0.0,0.8958236433584458,1.1018620603324174,0.09686576825136883,0.5,0,0,0.0
7.934627040000123,588,5471.16,-94.4,-0.1,-113.2,0.75,0.51,0.51,-0.06,-0.9,-0.16,-198.9,-88.1,69.0,0.89,2.31,-0.08,0.0,0.916078599247903,1.0405287117614774,0.07507859611467338,0.5,0,0,0.0
7.946375449000698,589,5471.17,-94.3,-0.1,-113.2,0.99,0.48,0.13,-0.1,-0.91,-0.16,-199.7,-79.2,79.0,0.91,2.06,-0.25,0.0,0.9293546147730692,1.107880860020607,0.06056652897771697,0.5,0,0,0.0
7.954691039000863,590,5471.18,-94.2,-0.1,-113.2,1.24,0.37,-0.33,-0.15,-0.88,-0.15,-200.4,-73.2,69.0,0.93,1.89,-0.05,0.0,0.9052071586106685,1.335440002396214,0.0830197054373154,0.5,0,0,0.0
7.966464575000828,591,5471.19,-94.1,-0.1,-113.1,1.26,0.08,-0.76,-0.19,-0.84,-0.14,-201.1,-64.9,73.0,0.95,1.69,-0.22,0.0,0.8725250712730265,1.4736349615830917,0.11338775691945824,0.5,0,0,0.0
7.974479210000027,592,5471.2,-94.0,0.0,-113.2,0.71,-0.28,-1.03,-0.19,-0.82,-0.15,-201.7,-59.5,54.0,0.96,1.57,0.02,0.0,0.8549853799919621,1.2819516371532897,0.12830889923651212,0.5,0,0,0.0
7.986577395000495,593,5471.21,-94.0,0.1,-113.2,-0.12,-0.69,-1.22,-0.17,-0.84,-0.18,-202.3,-56.1,33.0,0.98,1.51,-0.01,0.0,0.875728268357257,1.4067338056647392,0.10541469065379283,0.5,0,0,0.0
7.994369540000662,594,5471.22,-94.0,0.2,-113.3,-0.86,-0.98,-1.26,-0.14,-0.88,-0.19,-202.8,-57.0,-11.0,0.99,1.61,0.0,0.0,0.9110982383914481,1.8131740126088285,0.06864382620720977,0.5,0,0,0.0
8.005979549000585,595,5471.23,-94.1,0.3,-113.4,-1.04,-1.12,-1.16,-0.1,-0.94,-0.19,-203.4,-62.0,-35.0,1.01,1.74,-0.08,0.0,0.9642095207992918,1.9187495928338332,0.015221892923378721,0.5,0,0,0.0
8.014198735000718,596,5471.24,-94.2,0.4,-113.5,-0.64,-1.16,-1.04,-0.04,-0.99,-0.17,-204.1,-69.2,-76.0,1.03,2.02,0.02,0.0,1.0052860289489753,1.684280261714184,0.02533752292177871,0.5,0,0,0.0
8.026478417000362,597,5471.25,-94.3,0.5,-113.7,0.13,-1.24,-0.97,0.0,-0.97,-0.15,-204.9,-81.2,-109.0,1.05,2.37,0.07,0.0,0.9815294188153506,1.5796835126062436,0.0015492945323909435,0.5,0,0,0.0
8.034646162000172,598,5471.26,-94.3,0.5,-113.8,0.46,-1.37,-0.87,0.03,-0.9,-0.15,-205.8,-96.2,-139.0,1.08,2.79,0.14,0.0,0.9129074432821763,1.6868313490091416,0.06573122738076764,0.5,0,0,0.0
8.046266413000012,599,5471.27,-94.3,0.6,-114.0,0.19,-1.43,-0.68,0.06,-0.87,-0.15,-206.9,-110.6,-144.0,1.11,3.19,0.02,0.0,0.8848728722251575,1.5948040632002414,0.09189048246903075,0.5,0,0,0.0
8.054778081000222,600,5471.28,-94.3,0.7,-114.1,-0.19,-1.34,-0.39,0.07,-0.89,-0.15,-208.1,-124.4,-133.0,1.14,3.53,0.05,0.0,0.9052623929005336,1.4084743519141556,0.07007094255778168,0.5,0,0,0.0
8.066277800000535,601,5471.29,-94.4,0.7,-114.2,-0.23,-1.15,-0.11,0.05,-0.95,-0.15,-209.4,-135.7,-115.0,1.18,3.81,0.05,0.0,0.9630680142129111,1.1779218989389746,0.012020014820496083,0.5,0,0,0.0
8.074702511000396,602,5471.3,-94.4,0.7,-114.3,0.09,-0.87,0.15,0.03,-1.0,-0.17,-210.8,-145.0,-96.0,1.22,4.04,0.01,0.0,1.014790618797789,0.8874119674649424,0.038908537969094215,0.5,0,0,0.0
8.086407311000585,603,5471.31,-94.4,0.7,-114.4,0.66,-0.55,0.29,0.0,-1.04,-0.21,-212.3,-151.4,-69.0,1.26,4.18,0.0,0.0,1.0609901036296239,0.9067524469225324,0.08340586234491043,0.5,0,0,0.0
8.094677379000132,604,5471.32,-94.4,0.7,-114.4,1.19,-0.46,0.19,-0.05,-1.04,-0.22,-213.9,-156.7,-56.0,1.31,4.31,-0.31,0.0,1.0641898326896382,1.2898837156891314,0.08487347957682623,0.5,0,0,0.0
8.106384337000236,605,5471.33,-94.2,0.6,-114.5,0.99,-0.78,-0.01,-0.14,-1.0,-0.2,-215.5,-162.2,-61.0,1.35,4.5,-0.05,0.0,1.0293687385966217,1.2603967629282455,0.04905133777413351,0.5,0,0,0.0
8.11474788600026,606,5471.34,-94.2,0.6,-114.6,-0.13,-1.2,0.04,-0.16,-1.0,-0.22,-217.1,-169.2,-65.0,1.4,4.68,0.19,0.0,1.0363397126425293,1.2076837334335508,0.0549018655836403,0.5,0,0,0.0
8.126333894000709,607,5471.35,-94.3,0.6,-114.8,-1.16,-1.55,0.24,-0.19,-1.06,-0.22,-218.9,-176.0,-71.0,1.44,4.88,0.2,0.0,1.099136024339117,1.95082034026714,0.11534421373462345,0.5,0,0,0.0
8.13464754100005,608,5471.36,-94.4,0.5,-114.9,-1.68,-1.75,0.72,-0.18,-1.13,-0.22,-220.7,-184.2,-83.0,1.49,5.13,-0.13,0.0,1.1652038448271613,2.5304742638485775,0.17778379353821439,0.5,0,0,0.0
8.146269507000397,609,5471.37,-94.6,0.4,-115.1,-1.32,-1.8,1.29,-0.12,-1.19,-0.22,-222.6,-196.4,-120.0,1.55,5.53,0.05,0.0,1.2161003248087716,2.5780806814372585,0.22410666804942814,0.5,0,0,0.0
8.154679975000363,610,5471.38,-94.7,0.3,-115.3,-0.48,-1.85,1.77,-0.08,-1.19,-0.22,-224.7,-212.7,-155.0,1.61,6.0,0.03,0.0,1.2128066622508304,2.6049568134615977,0.2163967453816572,0.5,0,0,0.0
8.16621607200068,611,5471.39,-94.7,0.0,-115.4,-0.1,-1.88,2.19,-0.05,-1.18,-0.17,-227.0,-231.1,-166.0,1.67,6.47,0.02,0.0,1.1932309080810803,2.8879923822614213,0.192884571387669,0.5,0,0,0.0
8.174775434000367,612,5471.4,-94.8,-0.1,-115.6,-0.05,-1.89,2.44,0.0,-1.2,-0.13,-229.4,-248.8,-179.0,1.74,6.98,-0.01,0.0,1.20702112657567,3.086778255722299,0.20254129408461363,0.5,0,0,0.0
8.18623125600061,613,5471.41,-94.8,-0.4,-115.8,-0.1,-1.79,2.58,0.06,-1.24,-0.09,-232.0,-268.2,-192.0,1.81,7.54,0.16,0.0,1.2447088012864695,3.141735189349987,0.23542438941950494,0.5,0,0,0.0
8.194830030000048,614,5471.42,-94.8,-0.6,-115.9,0.04,-1.57,2.71,0.08,-1.27,-0.06,-234.8,-290.0,-208.0,1.89,8.13,0.08,0.0,1.2739309243440164,3.1321877338371658,0.2593535822275108,0.5,0,0,0.0
8.206551528000091,615,5471.43,-94.7,-0.9,-116.0,0.58,-1.2,2.98,0.05,-1.27,-0.06,-237.9,-306.1,-152.0,1.98,8.44,0.03,0.0,1.2723993083933989,3.264475455567096,0.25266552695135536,0.5,0,0,0.0
8.214737968000009,616,5471.44,-94.6,-1.2,-116.1,0.98,-0.58,3.37,0.04,-1.29,-0.02,-241.0,-318.7,-153.0,2.06,8.88,0.11,0.0,1.2907749610214787,3.5572039581671446,0.2656203559878465,0.5,0,0,0.0
8.226294476000476,617,5471.45,-94.5,-1.5,-116.1,1.17,-0.33,3.37,0.03,-1.33,0.11,-244.3,-338.9,-188.0,2.16,9.46,-0.02,0.0,1.3348782716038192,3.5825549542191255,0.30352919323878336,0.5,0,0,0.0
8.234634107000602,618,5471.46,-94.3,-1.8,-116.1,1.47,-0.73,2.81,-0.05,-1.3,0.21,-247.8,-355.1,-149.0,2.25,9.78,0.14,0.0,1.3178011989674316,3.2542126543912278,0.2807230781903478,0.5,0,0,0.0
8.24617416000001,619,5471.47,-94.2,-2.1,-116.2,1.33,-1.44,2.07,-0.15,-1.19,0.23,-251.5,-368.7,-160.0,2.35,10.26,-0.17,0.0,1.2212698309546501,2.8508595195133695,0.18050787597401508,0.5,0,0,0.0
8.254715181000392,620,5471.48,-94.1,-2.2,-116.4,0.71,-2.13,1.38,-0.22,-1.12,0.25,-255.3,-386.0,-142.0,2.46,10.6,0.0,0.0,1.1684605256490268,2.6354126811564065,0.12514459925502397,0.5,0,0,0.0
8.266306603000885,621,5471.49,-94.0,-2.4,-116.6,0.22,-2.83,0.81,-0.24,-1.08,0.29,-259.2,-389.4,-42.0,2.57,10.55,-0.1,0.0,1.1437219941926449,2.951846879497648,0.09839794644266919,0.5,0,0,0.0
8.274710085000152,622,5471.5,-94.0,-2.4,-116.9,0.15,-3.53,0.42,-0.21,-1.08,0.28,-263.0,-384.4,38.0,2.67,10.31,0.01,0.0,1.1352973178863766,3.5580612698490732,0.08817380473367287,0.5,0,0,0.0
8.286343046000184,623,5471.51,-94.0,-2.5,-117.3,0.31,-3.98,0.21,-0.17,-1.03,0.25,-266.8,-369.0,140.0,2.77,9.77,-0.24,0.0,1.0734523743510933,3.997574264475896,0.025802283974421858,0.5,0,0,0.0
8.294743274000211,624,5471.52,-93.9,-2.5,-117.7,0.39,-4.36,0.14,-0.1,-1.0,0.22,-270.3,-343.8,238.0,2.86,8.94,-0.07,0.0,1.0287856919689349,4.37964610442442,0.018487110439581844,0.5,0,0,0.0
8.306298245000107,625,5471.53,-93.8,-2.6,-118.2,0.42,-4.69,0.13,-0.03,-0.96,0.18,-273.5,-307.1,357.0,2.94,7.79,-0.13,0.0,0.9771898484941398,4.710562599095781,0.06868129483608942,0.5,0,0,0.0
8.314663415000723,626,5471.54,-93.8,-2.6,-118.7,0.36,-4.71,0.14,0.01,-0.93,0.11,-276.3,-260.2,435.0,3.01,6.49,-0.03,0.0,0.9365361712181757,4.725812099523213,0.10714827266981253,0.5,0,0,0.0
8.326301432000037,627,5471.55,-93.7,-2.7,-119.1,0.28,-4.48,0.08,0.05,-0.94,0.07,-278.5,-214.4,433.0,3.07,5.32,-0.17,0.0,0.9439279633531363,4.4894543098243025,0.09776135092415483,0.5,0,0,0.0
8.33474448600009,628,5471.56,-93.7,-2.7,-119.6,0.33,-4.09,0.03,0.08,-0.93,0.04,-280.4,-171.4,438.0,3.11,4.12,-0.01,0.0,0.9342911751697113,4.103401028415331,0.10525017632542821,0.5,0,0,0.0
8.346230527000444,629,5471.57,-93.6,-2.7,-119.9,0.48,-3.61,-0.02,0.1,-0.93,0.02,-281.8,-126.1,445.0,3.15,2.88,-0.05,0.0,0.9355746896961248,3.6418264648387626,0.1018873285630344,0.5,0,0,0.0
8.354726236000715,630,5471.58,-93.5,-2.8,-120.3,0.67,-3.06,-0.17,0.1,-0.94,0.0,-282.7,-81.2,446.0,3.17,1.66,-0.23,0.0,0.9453041838477179,3.1371005721844494,0.09031467772321244,0.5,0,0,0.0
8.366288248000274,631,5471.59,-93.5,-2.7,-120.6,0.49,-2.55,-0.37,0.1,-0.94,0.0,-283.2,-35.8,452.0,3.17,0.41,-0.15,0.0,0.9453041838477179,2.6228800963826004,0.08850838416874818,0.5,0,0,0.0
8.374687180000365,632,5471.6,-93.4,-2.7,-120.8,-0.02,-2.14,-0.62,0.1,-0.95,0.01,-283.3,6.9,407.0,3.17,-0.61,-0.03,0.0,0.9553009996854395,2.228093355315257,0.07694133696440597,0.5,0,0,0.0
