host_time_s,seq,device_time_s,roll,pitch,yaw,gyro_x,gyro_y,gyro_z,accel_x,accel_y,accel_z,belt_length,belt_velocity,belt_acceleration,motor_pos,motor_vel,motor_iq_meas,motor_iq_set,acc_mag,gyro_mag,acc_residual,threshold,heel_strike,hs_count,torque_cmd_nm
3.0705789149997145,1,834.55,96.0,4.3,-40.1,0.83,0.0,0.85,0.13,0.9,-0.18,-103.5,-253.8,21.0,-1.64,6.15,0.02,0.0,0.9269843580125827,1.1880235687897778,0.0,0.2,0,0,0.0
3.0775169839998853,2,834.56,96.2,4.5,-40.1,0.9,0.19,0.57,0.1,0.99,-0.23,-106.7,-218.1,138.0,-1.58,5.98,0.17,0.0,1.0212737145349429,1.0821275340735028,0.09240356939191297,0.2,0,0,0.0
3.0854672839996056,3,834.57,96.3,4.5,-40.1,0.54,0.13,0.57,0.1,1.0,-0.22,-108.9,-221.1,36.0,-1.52,6.01,-0.12,0.0,1.0287856919689349,0.7958643100428615,0.09791723588938683,0.2,0,0,0.0
3.096340305000922,4,834.58,96.4,4.6,-40.1,0.66,0.15,0.48,0.08,0.97,-0.24,-111.1,-220.3,26.0,-1.46,5.95,0.06,0.0,1.0024470060806208,0.8297590011563599,0.07014697900105127,0.2,0,0,0.0
3.10546128399983,5,834.59,96.5,4.6,-40.1,0.61,0.16,0.5,0.05,0.97,-0.24,-113.3,-216.9,36.0,-1.4,5.82,-0.01,0.0,1.000499875062461,0.8047981113297918,0.06683585102323364,0.2,0,0,0.0
3.116497318000256,6,834.6,96.6,4.7,-40.1,0.73,0.09,0.47,0.03,0.95,-0.24,-115.5,-211.1,58.0,-1.35,5.63,0.1,0.0,0.9803060746521975,0.8728688332160794,0.04570920960071079,0.2,0,0,0.0
3.1295097210004315,7,834.61,96.7,4.7,-40.1,1.13,0.0,0.37,0.02,0.95,-0.26,-117.5,-200.5,100.0,-1.3,5.29,-0.05,0.0,0.9851395840184273,1.1890332207301861,0.049531864587601726,0.2,0,0,0.0
3.1376241569996637,8,834.62,96.8,4.8,-40.1,1.32,-0.14,0.34,0.02,0.94,-0.28,-119.4,-186.8,131.0,-1.25,4.89,-0.2,0.0,0.9810198774744576,1.3702554506368512,0.0445039148827594,0.2,0,0,0.0
3.145458197001062,9,834.63,96.9,4.8,-40.1,1.6,-0.39,0.27,0.02,0.92,-0.28,-121.2,-170.8,150.0,-1.2,4.44,-0.08,0.0,0.9618731725128838,1.6688319268278637,0.024850065722761938,0.2,0,0,0.0
3.1561661300002015,10,834.64,97.1,4.8,-40.0,1.99,-0.74,0.16,0.01,0.92,-0.29,-122.8,-153.7,170.0,-1.16,3.95,-0.21,0.0,0.9646761114488116,2.1291547618714803,0.0270999445655159,0.2,0,0,0.0
3.165427773999909,11,834.65,97.4,4.8,-39.9,2.14,-1.15,0.08,0.0,0.94,-0.3,-124.2,-134.7,190.0,-1.13,3.38,-0.01,0.0,0.9867117106835207,2.430740627874558,0.04815283292422046,0.2,0,0,0.0
3.1932600750005804,13,834.67,97.8,4.8,-39.6,2.42,-1.99,-0.07,-0.04,0.97,-0.28,-126.4,-95.8,180.0,-1.07,2.41,-0.07,0.0,1.0103959619871805,3.1339112942136698,0.07040034254332261,0.2,0,0,0.0
3.201589132000663,14,834.68,98.1,4.7,-39.4,2.7,-2.44,-0.14,-0.06,1.03,-0.28,-127.2,-78.5,175.0,-1.05,1.93,-0.12,0.0,1.0690650120549265,3.6418676527298466,0.12648800475884725,0.2,0,0,0.0
3.2095341790009115,15,834.69,98.4,4.7,-39.1,2.5,-2.91,-0.08,-0.08,1.1,-0.25,-127.9,-64.0,141.0,-1.03,1.6,0.0,0.0,1.1308846094982459,3.8372516206264087,0.1845414501581233,0.2,0,0,0.0
3.217583227000432,16,834.7,98.6,4.6,-38.8,1.81,-3.53,0.17,-0.05,1.16,-0.17,-128.5,-54.2,104.0,-1.02,1.38,-0.04,0.0,1.1734564329364767,3.970629672986389,0.2225710081244271,0.2,0,1,0.0
3.2254643550004403,17,834.71,98.8,4.6,-38.4,1.32,-4.09,0.31,-0.02,1.11,-0.12,-129.0,-48.0,64.0,-1.0,1.26,0.0,0.0,1.1166467659918244,4.3088977708922265,0.16244611435617928,0.2,0,1,0.0
3.2363167500006966,18,834.72,98.9,4.5,-38.0,1.21,-4.46,-0.01,0.05,1.05,-0.07,-129.4,-46.2,34.0,-0.99,1.22,0.04,0.0,1.0535179163165664,4.621233601539744,0.09733091938730287,0.2,0,1,0.0
3.245448452000346,19,834.73,99.1,4.4,-37.5,1.14,-4.64,-0.7,0.17,1.04,0.0,-129.9,-41.5,50.0,-0.98,1.05,0.13,0.0,1.0538026380684384,4.828995754812795,0.09566332831639135,0.2,0,1,0.0
3.256261271000767,20,834.74,99.2,4.2,-37.1,0.64,-4.59,-1.54,0.31,1.07,0.01,-130.2,-33.8,78.0,-0.97,0.78,0.08,0.0,1.1140466776576285,4.883574510540409,0.1527892205474698,0.2,0,1,0.0
3.265448813999683,21,834.75,99.2,3.9,-36.7,-0.21,-3.98,-2.28,0.44,1.09,0.01,-130.5,-21.3,120.0,-0.97,0.38,-0.22,0.0,1.1754998936622667,4.591611917398944,0.20995758782106577,0.2,0,1,0.0
3.2763705810011743,22,834.76,99.2,3.6,-36.4,-0.96,-2.91,-2.77,0.52,1.09,0.0,-130.6,-4.9,144.0,-0.97,-0.04,-0.07,0.0,1.2076837334335508,4.130690014997494,0.23729859904050288,0.2,0,1,0.0
3.285466314000587,23,834.77,99.1,3.3,-36.2,-0.97,-1.46,-3.04,0.54,1.05,-0.03,-130.6,4.3,82.0,-0.97,-0.15,0.08,0.0,1.1811011811017718,3.5091451950581924,0.20650172577454928,0.2,0,1,0.0
3.2962257340004726,24,834.78,99.0,3.0,-36.2,-0.37,0.14,-3.04,0.45,1.03,-0.01,-130.5,6.7,37.0,-0.97,-0.19,0.09,0.0,1.124055158788927,3.0656320718572867,0.14646658939247037,0.2,0,1,0.0
3.305316711001069,25,834.79,99.0,2.7,-36.3,0.17,1.31,-2.77,0.28,1.0,0.06,-130.5,4.1,-18.0,-0.97,-0.04,0.02,0.0,1.0401922899156675,3.0688597230893433,0.06135164610882671,0.2,0,1,0.0
3.3162550529996224,26,834.8,99.1,2.5,-36.5,0.87,1.77,-2.38,0.08,0.98,0.14,-130.4,-0.1,-25.0,-0.97,0.02,-0.08,0.0,0.9931767214348108,3.090986897416422,0.01404935607541069,0.2,0,1,0.0
3.325299222000467,27,834.81,99.2,2.3,-36.7,2.1,1.39,-1.99,-0.06,1.02,0.16,-130.5,-0.4,-6.0,-0.97,0.01,0.17,0.0,1.0342146779078316,3.2097040362002227,0.05398556629746287,0.2,0,1,0.0
3.336313407000489,28,834.82,99.5,2.1,-36.9,3.15,0.7,-1.7,-0.17,1.09,0.11,-130.5,-0.7,-9.0,-0.97,0.04,0.16,0.0,1.108647825055369,3.6472592449673766,0.12585033917610033,0.2,0,1,0.0
3.3457253520009544,29,834.83,99.8,2.0,-36.9,3.22,-0.05,-1.4,-0.22,1.23,0.06,-130.5,-1.5,-13.0,-0.97,0.08,0.0,0.0,1.250959631642844,3.51153812452606,0.26279890284830376,0.2,0,1,0.0
3.3560084399996413,30,834.84,100.1,1.9,-36.9,2.28,-0.86,-1.02,-0.24,1.34,0.01,-130.5,-4.0,-24.0,-0.97,0.15,0.08,0.0,1.3613596145030895,2.6416661409042588,0.36573490799437836,0.2,0,1,0.0
3.366254245000164,31,834.85,100.2,1.8,-36.8,1.07,-1.64,-0.52,-0.2,1.39,-0.04,-130.6,-9.0,-52.0,-0.97,0.34,0.13,0.0,1.4048843368761714,2.0260552805883654,0.401074437760111,0.2,0,1,0.0
3.3762742140006594,32,834.86,100.3,1.7,-36.6,-0.44,-2.3,0.02,-0.13,1.33,-0.06,-130.7,-19.5,-97.0,-0.96,0.67,0.09,0.0,1.3376845667047221,2.341794183953833,0.32719717423688843,0.2,0,1,0.0
3.3854267900005652,33,834.87,100.2,1.7,-36.3,-1.3,-2.75,0.33,-0.05,1.2,-0.06,-131.0,-32.9,-131.0,-0.95,1.1,0.24,0.0,1.202538980657176,3.0596405017583357,0.1882105564255554,0.2,0,1,0.0
3.3961869480008318,34,834.88,100.0,1.7,-36.0,-1.59,-2.97,0.48,0.03,1.11,-0.1,-131.5,-51.3,-181.0,-0.94,1.67,0.24,0.0,1.1148990985734988,3.4028517452278173,0.09855926085504052,0.2,0,1,0.0
3.4053153559998464,35,834.89,99.8,1.7,-35.7,-1.67,-2.98,0.54,0.1,1.02,-0.13,-132.1,-74.7,-224.0,-0.91,2.34,0.15,0.0,1.0331021246711285,3.4584534115699754,0.016427041213616933,0.2,0,1,0.0
3.4163558130003366,36,834.9,99.6,1.7,-35.4,-1.69,-2.84,0.55,0.15,0.97,-0.15,-133.1,-100.0,-246.0,-0.89,3.04,0.19,0.0,0.9929249719893241,3.3502537217351165,0.0232751092388237,0.2,0,1,0.0
3.4254479610008275,37,834.91,99.5,1.7,-35.2,-1.84,-2.5,0.54,0.18,0.92,-0.15,-134.3,-128.4,-280.0,-0.85,3.86,0.12,0.0,0.9493682109698007,3.150745943423557,0.06549523285318015,0.2,0,1,0.0
3.436185820000901,38,834.92,99.3,1.8,-34.9,-1.91,-2.1,0.52,0.2,0.88,-0.13,-135.8,-157.7,-278.0,-0.81,4.61,0.08,0.0,0.911756546453054,2.8859140666346943,0.10104475942252822,0.2,0,1,0.0
3.4454563070012227,39,834.93,99.1,1.8,-34.7,-1.64,-1.64,0.58,0.21,0.84,-0.13,-137.5,-184.0,-261.0,-0.75,5.29,0.24,0.0,0.8755569655939013,2.390732105443853,0.1344994534760473,0.2,0,1,0.0
3.4562276159995236,40,834.94,99.0,1.8,-34.6,-1.11,-1.11,0.72,0.21,0.83,-0.13,-139.5,-206.8,-230.0,-0.7,5.88,0.21,0.0,0.8659676668328905,1.7270205557549108,0.1412069771923169,0.2,0,1,0.0
3.4653220350010088,41,834.95,98.9,1.9,-34.5,-0.45,-0.58,0.92,0.21,0.83,-0.12,-141.7,-226.4,-202.0,-0.64,6.38,-0.03,0.0,0.8645229898620395,1.1769876804792818,0.13979862107990448,0.2,0,1,0.0
3.4762498430009146,42,834.96,98.9,2.0,-34.4,0.2,-0.06,1.04,0.21,0.84,-0.14,-144.1,-241.5,-150.0,-0.57,6.69,0.1,0.0,0.8770974860299167,1.0607544484940896,0.1246796424137867,0.2,0,1,0.0
3.485339478000242,43,834.97,99.0,2.1,-34.5,0.58,0.49,1.13,0.21,0.86,-0.16,-146.6,-247.6,-68.0,-0.5,6.74,-0.01,0.0,0.8996110270555825,1.361396341995967,0.1001227793603584,0.2,0,1,0.0
3.496315438000238,44,834.98,99.0,2.2,-34.5,0.63,0.96,1.15,0.19,0.87,-0.16,-149.0,-247.8,-20.0,-0.43,6.72,-0.1,0.0,0.9047651629014017,1.6251153805191803,0.09306927064424841,0.2,0,1,0.0
3.505708386999686,45,834.99,99.1,2.4,-34.6,0.54,1.36,1.07,0.16,0.87,-0.17,-151.5,-247.9,-10.0,-0.37,6.74,-0.08,0.0,0.9007774419910837,1.8127603261324978,0.09511585172347514,0.2,0,1,0.0
3.5162237679996906,46,835.0,99.1,2.5,-34.7,0.43,1.61,0.91,0.14,0.87,-0.16,-153.4,-246.5,22.0,-0.3,6.62,-0.14,0.0,0.8956003573022958,1.898710088454791,0.09828707768401779,0.2,0,1,0.0
3.5256289139997534,47,835.01,99.2,2.7,-34.9,0.08,1.77,0.69,0.11,0.87,-0.16,-156.4,-240.5,52.0,-0.24,6.43,0.06,0.0,0.891403387922662,1.9014205216100935,0.10043436612237855,0.2,0,1,0.0
3.536471506000453,48,835.02,99.1,2.8,-35.1,-0.49,1.77,0.52,0.08,0.89,-0.14,-158.8,-234.0,59.0,-0.17,6.27,-0.13,0.0,0.9044888059008801,1.9087692369692049,0.08560196918127727,0.2,0,1,0.0
3.5456072430006316,49,835.03,99.0,2.9,-35.2,-0.91,1.64,0.43,0.07,0.88,-0.12,-161.1,-225.6,87.0,-0.11,6.0,-0.14,0.0,0.8908984229416954,1.924214125298949,0.09720850509765278,0.2,0,1,0.0
3.556390759000351,50,835.04,98.9,2.9,-35.4,-1.05,1.48,0.33,0.04,0.87,-0.13,-163.2,-212.3,121.0,-0.05,5.59,-0.02,0.0,0.8805679985100526,1.8443969204051498,0.10538815093870968,0.2,0,1,0.0
3.565676620000886,51,835.05,98.8,3.0,-35.5,-1.16,1.14,0.25,0.03,0.88,-0.11,-165.2,-196.7,155.0,0.0,5.12,-0.14,0.0,0.8873556220591606,1.6455090397806995,0.09662851684180962,0.2,0,1,0.0
3.5762480120010878,52,835.06,98.7,3.0,-35.6,-1.14,1.17,0.16,0.01,0.88,-0.12,-167.1,-181.3,137.0,0.04,4.79,-0.06,0.0,0.8882004278314664,1.6413713778423211,0.09386803684811384,0.2,0,1,0.0
3.5856142789998557,53,835.07,98.5,3.0,-35.7,-1.2,0.88,0.13,0.01,0.87,-0.13,-168.8,-169.6,124.0,0.08,4.46,0.09,0.0,0.8797158632194829,1.4937536610833797,0.10030554943089531,0.2,0,1,0.0
3.596419256000445,54,835.08,98.4,3.0,-35.8,-1.29,0.82,0.06,0.04,0.83,-0.17,-170.4,-156.2,134.0,0.13,4.07,0.24,0.0,0.848174510345601,1.5297385397511563,0.1292099642586817,0.2,0,1,0.0
3.6055209950009157,55,835.09,98.3,3.0,-35.9,-1.12,0.87,-0.06,0.08,0.79,-0.22,-171.9,-142.9,134.0,0.16,3.72,0.16,0.0,0.8239538822045807,1.4194717327231283,0.15036198055170802,0.2,0,1,0.0
3.6164837989999796,56,835.1,98.2,3.0,-36.0,-0.63,1.03,-0.14,0.12,0.81,-0.25,-173.2,-129.3,133.0,0.2,3.36,-0.24,0.0,0.8561541917201597,1.2154834429147936,0.11579843761540642,0.2,0,1,0.0
3.6256268060005823,57,835.11,98.2,3.1,-36.1,0.05,1.22,-0.04,0.15,0.87,-0.29,-174.5,-117.6,121.0,0.23,3.05,0.03,0.0,0.9292470069900682,1.2216791722870617,0.04185150989858799,0.2,0,1,0.0
3.636283548999927,58,835.12,98.2,3.1,-36.2,0.31,1.49,0.07,0.17,0.89,-0.29,-175.6,-106.9,105.0,0.26,2.79,0.1,0.0,0.9513674369033239,1.5235156710713547,0.0193364583856257,0.2,0,1,0.0
3.6455773060006322,59,835.13,98.2,3.1,-36.4,0.32,1.67,0.06,0.19,0.91,-0.26,-176.6,-98.3,89.0,0.29,2.57,0.05,0.0,0.9652978814852957,1.7014405661086136,0.00529789352758081,0.2,0,1,0.0
3.6564244860001054,60,835.14,98.3,3.1,-36.6,0.15,1.79,-0.01,0.18,0.94,-0.26,-177.5,-88.7,100.0,0.31,2.28,-0.21,0.0,0.991766101457395,1.7963017563872725,0.020746919915628048,0.2,0,1,0.0
3.6656375430011394,61,835.15,98.2,3.2,-36.7,-0.21,1.94,-0.1,0.17,0.96,-0.28,-178.3,-78.4,93.0,0.33,2.04,0.01,0.0,1.014347080638575,1.953893548789186,0.04246134111487199,0.2,0,1,0.0
3.676171807999708,62,835.16,98.2,3.2,-36.9,-0.54,2.14,-0.2,0.15,0.95,-0.28,-179.0,-71.4,73.0,0.35,1.87,-0.01,0.0,1.0016985574512922,2.216122740283128,0.029216561569037403,0.2,0,1,0.0
3.685607355000684,63,835.17,98.1,3.2,-37.2,-0.44,2.2,-0.2,0.14,0.98,-0.24,-179.7,-64.7,78.0,0.37,1.64,-0.18,0.0,1.0186265262597474,2.2524653160481742,0.045221639769942756,0.2,0,1,0.0
3.69655043199964,64,835.18,98.1,3.2,-37.4,-0.22,2.11,-0.17,0.08,0.98,-0.19,-180.3,-55.8,85.0,0.38,1.41,-0.01,0.0,1.0014489502715553,2.128238708415952,0.0274831825061157,0.2,0,1,0.0
3.705492275999859,65,835.19,98.1,3.2,-37.6,-0.02,1.82,-0.2,0.02,1.0,-0.16,-180.8,-47.6,78.0,0.39,1.19,-0.12,0.0,1.012916580968048,1.8310652637194558,0.03817179693855621,0.2,0,1,0.0
3.71640451300118,66,835.2,98.1,3.2,-37.7,-0.19,1.38,-0.3,0.0,1.01,-0.16,-181.2,-39.4,73.0,0.4,1.01,0.13,0.0,1.0225947388873073,1.4249561396758847,0.046892955760659216,0.2,0,1,0.0
3.725578310999481,67,835.21,98.1,3.1,-37.9,-0.55,1.03,-0.41,0.0,1.0,-0.21,-181.6,-31.9,80.0,0.41,0.75,-0.08,0.0,1.0218121158021176,1.2375378782081783,0.045188126021960096,0.2,0,1,0.0
3.7364840610007377,68,835.22,98.0,3.1,-38.0,-0.69,0.88,-0.54,0.0,0.96,-0.25,-181.8,-23.4,89.0,0.42,0.51,0.15,0.0,0.9920181449953422,1.241813190459821,0.015086272110880983,0.2,0,1,0.0
3.7455930460000673,69,835.23,98.0,3.0,-38.1,-0.43,0.99,-0.69,0.04,0.91,-0.32,-182.0,-14.6,85.0,0.42,0.28,0.09,0.0,0.965453261426984,1.2810542533398028,0.011249039228327762,0.2,0,1,0.0
3.7565565050008445,70,835.24,97.9,3.0,-38.2,0.26,1.39,-0.73,0.07,0.93,-0.33,-182.1,-5.1,95.0,0.42,0.01,0.1,0.0,0.9892926766129425,1.591414465184981,0.012338568438478137,0.2,0,1,0.0
3.765547332001006,71,835.25,98.0,2.9,-38.4,0.96,1.82,-0.67,0.12,0.96,-0.37,-182.1,3.0,65.0,0.42,-0.11,-0.07,0.0,1.0358088626768938,2.1640009242142204,0.05767765941238079,0.2,0,1,0.0
3.776414605001264,72,835.26,98.1,2.9,-38.6,1.78,2.38,-0.55,0.16,1.04,-0.31,-182.0,2.7,4.0,0.42,-0.01,0.0,0.0,1.0969503179269333,3.0224658807007234,0.11644273236917191,0.2,0,1,0.0
3.7855926009997347,73,835.27,98.3,2.9,-38.8,2.57,2.73,-0.37,0.17,1.15,-0.28,-182.0,-1.1,-18.0,0.42,0.06,-0.05,0.0,1.1957424471850113,3.7675854336696863,0.2109301643947049,0.2,1,2,2.5
3.7963021859995933,74,835.28,98.6,2.9,-39.1,2.96,2.94,-0.15,0.13,1.22,-0.25,-182.0,-0.3,11.0,0.42,-0.03,-0.02,0.0,1.2521182052825524,4.174649685901801,0.26195980404240105,0.2,0,2,2.5
3.805666149000899,75,835.29,98.9,3.0,-39.4,2.49,2.76,0.07,0.1,1.26,-0.14,-182.0,16.5,353.0,0.42,-1.6,2.54,2.91,1.2716917865583626,3.71787573756843,0.27590271761184704,0.2,0,2,2.5
3.816258722999919,76,835.3,99.0,3.1,-39.7,1.12,2.24,0.34,0.06,1.27,-0.07,-181.1,130.9,954.0,0.37,-5.1,2.48,2.91,1.2733420593069247,2.5273701747072987,0.2720019305532009,0.2,0,2,2.5
3.825680599000407,77,835.31,99.0,3.1,-39.9,-0.33,1.77,0.74,0.03,1.25,0.01,-178.9,249.4,1069.0,0.3,-8.11,2.5,2.91,1.2503999360204718,1.9466381276446838,0.24407861112141305,0.2,0,2,2.5
3.8362138270003925,78,835.32,98.9,3.3,-40.0,-0.45,1.53,1.03,-0.02,1.15,0.08,-175.7,350.2,990.0,0.2,-10.64,2.77,2.91,1.152952731034538,1.8984994074268235,0.14369877801276965,0.2,0,2,2.5
3.845637426000394,79,835.33,98.9,3.4,-40.1,-0.5,1.42,1.33,-0.09,1.15,0.13,-171.6,440.9,907.0,0.08,-13.0,2.55,2.91,1.1608186766243898,2.0088056152848637,0.14853342913056888,0.2,0,2,2.5
3.856238641001255,80,835.34,98.8,3.6,-40.2,-0.56,1.26,1.62,-0.14,1.15,0.19,-166.6,514.0,764.0,-0.05,-14.85,2.47,2.91,1.1739676315810414,2.127345764091959,0.15844873640547608,0.2,0,2,2.5
3.8655982540003606,81,835.35,98.7,3.8,-40.3,-0.81,0.8,1.89,-0.14,1.15,0.23,-161.0,592.6,766.0,-0.22,-16.95,2.83,2.91,1.1811011811017715,2.2063997824510406,0.16227064020768212,0.2,0,2,2.5
3.876329558999714,82,835.36,98.6,4.0,-40.3,-1.19,0.2,2.14,-0.06,1.15,0.21,-154.6,653.7,661.0,-0.4,-18.59,3.14,2.91,1.170555423719868,2.4567661671392336,0.14869038516926314,0.2,0,2,2.5
3.885674954000933,83,835.37,98.5,4.2,-40.3,-1.4,-0.02,2.3,0.05,1.11,0.15,-147.6,718.2,683.0,-0.59,-20.47,2.55,2.91,1.1212047092302102,2.692656680678025,0.09735287726601305,0.2,0,2,2.5
3.8962574649995076,84,835.38,98.4,4.4,-40.3,-1.51,0.23,2.4,0.2,1.04,0.08,-140.0,782.8,582.0,-0.81,-21.86,2.53,2.91,1.0620734437881403,2.844819853699,0.03745717958746431,0.2,0,2,2.5
3.9056887730002927,85,835.39,98.2,4.7,-40.3,-0.92,0.74,2.42,0.33,0.95,0.03,-131.8,829.6,421.0,-1.04,-22.76,3.28,2.91,1.0061312041677268,2.692656680678025,0.018115358832290207,0.2,0,2,2.5
3.916219665999961,86,835.4,98.2,4.9,-40.4,0.34,1.36,2.22,0.42,0.9,0.0,-123.3,860.9,298.0,-1.27,-23.46,2.28,2.91,0.993176721434811,2.625566605515846,0.03044844473390207,0.2,0,2,2.5
3.925509750000856,87,835.41,98.3,5.1,-40.5,1.21,1.96,1.8,0.44,0.93,-0.02,-114.7,853.8,-2.0,-1.5,-22.97,3.1,2.91,1.0290286682109493,2.923302926485724,0.005295432001391598,0.2,0,2,2.5
3.9362939069997083,88,835.42,98.4,5.3,-40.7,1.28,2.42,1.29,0.38,1.01,-0.07,-106.2,850.8,-11.0,-1.73,-23.0,2.84,2.91,1.081387996974259,3.026367459513137,0.056501665549407276,0.2,0,2,2.5
3.9456456340012664,89,835.43,98.5,5.5,-40.9,0.55,2.8,0.78,0.29,1.07,-0.09,-97.7,844.4,-33.0,-1.96,-22.84,2.91,2.91,1.1122499719037984,2.9581920154040033,0.08561636766936775,0.2,0,2,2.5
3.956348269000955,90,835.44,98.4,5.6,-41.2,-0.25,2.99,0.46,0.18,1.1,-0.08,-89.3,835.4,-19.0,-2.19,-22.78,2.56,2.91,1.1174972035759194,3.0354900757538315,0.08904632735465912,0.2,0,2,2.5
3.9656048270007886,91,835.45,98.3,5.7,-41.5,-0.69,3.27,0.33,0.09,1.08,-0.07,-81.1,816.4,-215.0,-2.41,-21.82,3.0,2.91,1.0860018416190647,3.358258477246801,0.05639994608984833,0.2,0,2,0.0
3.976441615999647,92,835.46,98.2,5.7,-41.9,-0.55,3.18,0.28,0.0,1.02,-0.01,-73.1,789.5,-188.0,-2.62,-21.33,2.86,2.91,1.0200490184299968,3.239336351785656,0.00936181955723514,0.2,0,2,0.0
3.9856299000002764,93,835.47,98.1,5.8,-42.2,-0.11,3.03,0.17,-0.04,0.99,0.0,-65.5,745.4,-644.0,-2.82,-18.72,0.62,0.0,0.9908077512817509,3.0367581398590175,0.037831024971371474,0.2,0,2,0.0
3.9963029410009767,94,835.48,98.1,5.8,-42.4,0.11,2.46,-0.01,-0.02,0.99,0.06,-59.6,612.8,-1292.0,-2.98,-14.02,0.37,0.0,0.9920181449953422,2.4624784263014368,0.03588821863262459,0.2,0,2,0.0
4.0056209080012195,95,835.49,98.1,5.9,-42.7,-0.04,1.86,-0.36,0.02,0.99,0.01,-54.2,433.1,-1422.0,-3.09,-10.1,0.47,0.0,0.9902524930541705,1.8949406323154296,0.03690079316232042,0.2,0,2,0.0
4.016450932000225,96,835.5,98.0,5.8,-42.8,-1.16,1.61,-0.4,0.06,0.97,-0.01,-50.8,300.8,-1337.0,-3.17,-6.6,0.28,0.0,0.9719053451854249,2.024277648940481,0.05414298221044467,0.2,0,2,0.0
4.0254535200001555,97,835.51,97.8,5.8,-43.0,-1.28,1.51,-0.56,0.08,0.85,-0.02,-48.6,182.8,-1183.0,-3.21,-3.68,0.43,0.0,0.8539906322671226,2.0572068442429408,0.1686165412261721,0.2,0,2,0.0
4.036246683999707,98,835.52,97.7,5.8,-43.2,-0.66,1.48,-0.79,0.08,0.78,0.02,-47.5,84.3,-995.0,-3.23,-1.28,0.19,0.0,0.7843468620451031,1.802803372528463,0.23349510521922778,0.2,0,2,0.0
4.045620251999935,99,835.53,97.7,5.7,-43.3,0.28,1.37,-0.95,0.07,0.75,0.05,-47.2,12.7,-737.0,-3.23,0.28,0.1,0.0,0.7549172140042907,1.690502883759741,0.25766625819483935,0.2,0,2,0.0
4.0564027310010715,100,835.54,97.7,5.6,-43.5,1.37,1.11,-1.08,0.03,0.77,0.04,-47.3,-20.2,-358.0,-3.23,0.63,-0.1,0.0,0.7716216689544171,2.0677040407176266,0.23614256717981874,0.2,0,2,0.0
4.065599855000983,101,835.55,97.9,5.5,-43.6,2.27,0.78,-1.09,0.0,0.81,0.02,-47.5,-25.1,-142.0,-3.22,0.7,0.1,0.0,0.810246875958186,2.6361714663503966,0.19356701297252887,0.2,0,2,0.0
4.076425234999988,102,835.56,98.2,5.4,-43.6,3.0,0.24,-1.01,-0.04,0.86,0.01,-47.8,-26.9,-69.0,-3.21,0.78,-0.04,0.0,0.8609878047916822,3.17453933665973,0.13996956245625192,0.2,0,2,0.0
4.085520104001262,103,835.57,98.5,5.3,-43.6,3.25,-0.22,-0.94,-0.07,0.92,-0.03,-48.1,-29.9,-26.0,-3.21,0.78,0.04,0.0,0.9231467922275417,3.390353963821477,0.0762543635199846,0.2,0,2,0.0
4.096427112001038,104,835.58,98.8,5.2,-43.6,2.77,-0.61,-0.77,-0.1,0.98,-0.1,-48.4,-29.6,-16.0,-3.2,0.83,0.02,0.0,0.990151503558925,2.9390304523771102,0.009064659144829235,0.2,0,2,0.0
4.105617397999595,105,835.59,99.0,5.1,-43.5,1.53,-0.89,-0.55,-0.1,1.0,-0.16,-48.7,-31.3,-20.0,-3.19,0.89,0.0,0.0,1.0176443386566842,1.8535101834087668,0.01805961243387144,0.2,0,2,0.0
4.116315183000552,106,835.6,99.1,5.1,-43.5,0.23,-1.05,-0.35,-0.07,0.97,-0.19,-49.0,-34.8,-25.0,-3.18,0.96,0.02,0.0,0.9909086738948246,1.1304423912787418,0.008502531281428416,0.2,0,2,0.0
4.1254652429997805,107,835.61,99.1,5.0,-43.3,-0.8,-1.21,-0.21,-0.03,0.94,-0.18,-49.4,-39.3,-48.0,-3.17,1.15,0.03,0.0,0.9575489543621255,1.4656739064334876,0.04102500579784496,0.2,0,2,0.0
4.136289718000626,108,835.62,99.0,5.0,-43.2,-1.51,-1.25,-0.09,0.0,0.9,-0.18,-49.9,-45.9,-65.0,-3.16,1.35,-0.08,0.0,0.9178235124467012,1.962320055444575,0.07913543875900386,0.2,0,2,0.0
4.145565355000144,109,835.63,98.8,4.9,-43.1,-1.88,-1.04,-0.07,0.03,0.88,-0.19,-50.4,-58.8,-130.0,-3.14,1.83,0.0,0.0,0.9007774419910837,2.1496278747727477,0.094257879030329,0.2,0,2,0.0
4.156365201000881,110,835.64,98.7,4.9,-43.0,-1.96,-0.8,0.0,0.07,0.88,-0.19,-51.1,-78.1,-182.0,-3.12,2.39,-0.15,0.0,0.9029950165975447,2.1169789795838785,0.09019949833539065,0.2,0,2,0.0
4.1655673580007715,111,835.65,98.5,4.9,-42.9,-1.87,-0.41,0.14,0.11,0.87,-0.19,-52.1,-100.0,-203.0,-3.09,2.97,0.0,0.0,0.8972736483370054,1.9195311927655672,0.09400244926401136,0.2,0,2,0.0
4.176377129000684,112,835.66,98.4,5.0,-42.9,-1.5,-0.02,0.3,0.13,0.84,-0.19,-53.2,-124.1,-248.0,-3.05,3.74,0.24,0.0,0.870976463516667,1.5298365925810506,0.11789364140266279,0.2,0,2,0.0
4.185436715000833,113,835.67,98.3,5.0,-42.9,-0.95,0.2,0.42,0.12,0.82,-0.16,-54.7,-153.4,-275.0,-3.01,4.51,0.15,0.0,0.8440379138403676,1.0577806956075537,0.1419355472573829,0.2,0,2,0.0
4.196066126000005,114,835.68,98.3,5.1,-42.9,-0.31,0.28,0.5,0.09,0.82,-0.15,-56.4,-183.8,-311.0,-2.96,5.43,-0.05,0.0,0.8384509526501832,0.6515366451704769,0.14457205827861597,0.2,0,2,0.0
4.206362808999984,115,835.69,98.3,5.2,-43.0,0.2,0.24,0.56,0.06,0.85,-0.15,-58.5,-219.4,-350.0,-2.9,6.43,0.14,0.0,0.8652167358529306,0.6412487816752559,0.11545014957435118,0.2,0,2,0.0
4.216345315000581,116,835.7,98.4,5.2,-43.0,0.49,0.14,0.65,0.04,0.89,-0.17,-60.9,-257.2,-359.0,-2.83,7.42,0.23,0.0,0.9069729874698585,0.8259539938761723,0.07222001999827476,0.2,0,2,0.0
4.225516811000489,117,835.71,98.5,5.3,-43.0,0.58,0.04,0.67,0.03,0.91,-0.19,-63.7,-290.4,-325.0,-2.75,8.24,0.21,0.0,0.9301075206662938,0.8870738413458037,0.04810377706580271,0.2,0,2,0.0
4.236161020000509,118,835.72,98.5,5.3,-42.9,0.63,-0.02,0.63,0.04,0.94,-0.18,-66.9,-319.4,-307.0,-2.66,9.06,0.09,0.0,0.9579144011862437,0.8911789943664516,0.019890958614935728,0.2,0,2,0.0
4.244991151999784,119,835.73,98.6,5.3,-42.9,0.5,-0.07,0.55,0.06,0.96,-0.19,-70.2,-348.0,-277.0,-2.56,9.75,0.0,0.0,0.9804590761474953,0.7465922581972038,0.0026006420193894764,0.2,0,2,0.0
4.255853902999661,120,835.74,98.7,5.4,-42.9,0.41,-0.1,0.45,0.07,0.96,-0.2,-73.9,-366.5,-183.0,-2.46,10.09,0.03,0.0,0.9831073186585481,0.6169278726074873,0.005143906839833456,0.2,0,2,0.0
4.266374701001041,121,835.75,98.8,5.4,-42.9,0.6,-0.18,0.36,0.08,0.95,-0.21,-77.6,-379.4,-152.0,-2.36,10.46,0.11,0.0,0.9762171889492625,0.7224956747275377,0.001711298412063078,0.2,0,2,0.0
4.276395983999464,122,835.76,98.9,5.4,-42.9,0.97,-0.33,0.3,0.09,0.95,-0.23,-81.5,-389.3,-99.0,-2.25,10.65,-0.08,0.0,0.981580358401695,1.06761416251378,0.0035788336195620163,0.2,0,2,0.0
4.285403070000029,123,835.77,99.1,5.4,-42.8,1.45,-0.52,0.21,0.1,0.96,-0.24,-85.4,-397.3,-101.0,-2.15,10.94,0.14,0.0,0.9945853407325085,1.5546703830716013,0.016252139631367957,0.2,0,2,0.0
4.296167090000381,124,835.78,99.3,5.5,-42.7,1.61,-0.67,0.1,0.1,1.01,-0.26,-89.5,-403.2,-29.0,-2.04,10.88,-0.13,0.0,1.0477117924314874,1.7467111953611565,0.06799101950373987,0.2,0,2,0.0
4.305415445000108,125,835.79,99.5,5.4,-42.7,1.37,-0.8,-0.03,0.09,1.01,-0.28,-93.4,-394.0,52.0,-1.93,10.62,-0.23,0.0,1.0519505691808908,1.5867577004697349,0.07078520032808044,0.2,0,2,0.0
4.3159883320004155,126,835.8,99.7,5.4,-42.6,1.2,-0.99,-0.22,0.08,1.04,-0.29,-97.3,-390.6,31.0,-1.82,10.58,-0.15,0.0,1.082635672791175,1.5711460785044782,0.09944089785959731,0.2,0,2,0.0
4.3254776610010595,127,835.81,99.9,5.3,-42.5,0.68,-1.16,-0.32,0.07,1.05,-0.3,-101.2,-382.4,84.0,-1.72,10.25,0.0,0.0,1.0942577392917996,1.3821722034536796,0.10884170507301749,0.2,0,2,0.0
4.335867574000076,128,835.82,99.9,5.3,-42.3,0.36,-1.39,-0.42,0.05,1.01,-0.29,-104.9,-371.5,86.0,-1.62,10.0,0.17,0.0,1.0519980988575977,1.4960280746028798,0.06525042334603925,0.2,0,2,0.0
4.344872577999922,129,835.83,100.0,5.2,-42.2,0.18,-1.62,-0.55,0.03,0.99,-0.31,-108.6,-362.7,105.0,-1.52,9.68,-0.01,0.0,1.0378342834961658,1.720261608011991,0.050064875824915256,0.2,0,2,0.0
4.356342041000971,130,835.84,100.0,5.1,-42.0,0.32,-1.8,-0.62,0.01,0.97,-0.31,-112.1,-345.4,154.0,-1.43,9.17,0.03,0.0,1.0183810681665286,1.9304921652262668,0.029999427285372526,0.2,0,2,0.0
4.365646382000705,131,835.85,100.1,5.0,-41.9,0.85,-2.0,-0.6,0.0,0.96,-0.31,-115.5,-329.3,157.0,-1.34,8.75,-0.17,0.0,1.0088111815399352,2.254440063519099,0.020020949845603542,0.2,0,2,0.0
4.376295211999604,132,835.86,100.2,4.9,-41.7,1.52,-2.3,-0.52,0.0,0.98,-0.27,-118.6,-311.6,172.0,-1.25,8.26,-0.07,0.0,1.0165136496870073,2.8054946087989547,0.027168949632822126,0.2,0,2,0.0
4.385597262000374,133,835.87,100.4,4.8,-41.4,2.04,-2.49,-0.42,0.0,1.01,-0.33,-121.6,-293.9,168.0,-1.17,7.8,-0.01,0.0,1.0625441167311596,3.246243983436858,0.07173542834343494,0.2,0,2,0.0
4.39644922700063,134,835.88,100.7,4.8,-41.2,2.35,-2.53,-0.32,0.0,1.05,-0.32,-124.5,-277.2,176.0,-1.1,7.29,-0.05,0.0,1.097679370308106,3.4678235249216476,0.10473326828197382,0.2,0,2,0.0
4.405594300000303,135,835.89,101.0,4.7,-40.9,2.3,-2.69,-0.13,0.03,1.13,-0.29,-127.1,-255.3,219.0,-1.03,6.62,-0.16,0.0,1.1670047129296435,3.5416098034650854,0.17057743868544106,0.2,0,2,0.0
4.416296831999716,136,835.9,101.2,4.6,-40.7,1.79,-2.77,0.13,0.08,1.16,-0.23,-129.5,-229.6,240.0,-0.97,5.94,-0.16,0.0,1.1852847759083045,3.3005908561952966,0.18508035163082015,0.2,0,2,0.0
4.425441379000404,137,835.91,101.4,4.6,-40.4,1.42,-2.99,0.2,0.13,1.14,-0.12,-131.6,-207.0,218.0,-0.91,5.38,-0.02,0.0,1.1536463929644991,3.3160971035239606,0.1503731293132744,0.2,0,2,0.0
4.436219125000207,138,835.92,101.5,4.5,-40.1,1.2,-3.36,-0.05,0.17,1.12,-0.03,-133.5,-185.8,222.0,-0.87,4.75,0.0,0.0,1.133225485064645,3.568206832570107,0.12735317698515192,0.2,0,2,0.0
4.445579336001174,139,835.93,101.6,4.4,-39.7,0.39,-3.72,-0.35,0.19,1.11,0.05,-135.2,-159.8,263.0,-0.82,3.98,-0.09,0.0,1.127253298952813,3.756727299126196,0.11895337105585346,0.2,0,2,0.0
4.456484133999766,140,835.94,101.6,4.3,-39.3,-0.8,-4.08,-0.7,0.22,1.04,0.13,-136.5,-130.8,312.0,-0.79,3.05,-0.08,0.0,1.0709341716464182,4.21620682604637,0.0613815588744695,0.2,0,2,0.0
4.465639051000835,141,835.95,101.5,4.1,-38.9,-1.19,-4.14,-1.23,0.26,0.94,0.12,-137.6,-92.0,346.0,-0.77,2.05,-0.17,0.0,0.9826494797230597,4.47979910263842,0.026365070387911138,0.2,0,2,0.0
4.476290309999968,142,835.96,101.5,3.9,-38.6,-0.86,-3.68,-1.88,0.27,0.9,0.05,-138.3,-53.2,373.0,-0.75,0.98,-0.23,0.0,0.9409569596958194,4.220947760870774,0.06669643860684848,0.2,0,2,0.0
4.485649668000406,143,835.97,101.4,3.6,-38.3,-0.77,-2.66,-2.2,0.24,0.95,-0.02,-138.5,-13.7,386.0,-0.75,-0.09,-0.01,0.0,0.9800510190801293,3.536735783176346,0.0270503316380879,0.2,0,2,0.0
4.496296381999855,144,835.98,101.3,3.4,-38.2,-0.57,-1.62,-2.06,0.18,0.95,0.0,-138.4,18.8,306.0,-0.76,-0.77,0.0,0.0,0.966902270139025,2.6819582397941995,0.03939509896760829,0.2,0,2,0.0
4.505420584000603,145,835.99,101.3,3.2,-38.1,0.42,-0.92,-1.8,0.11,0.93,0.02,-138.1,35.1,193.0,-0.77,-1.12,0.06,0.0,0.9366963221877195,2.064654934849889,0.06820902598053558,0.2,0,2,0.0
4.51618967200011,146,836.0,101.4,3.0,-38.0,1.51,-0.69,-1.51,0.04,0.96,0.03,-137.8,41.9,175.0,-0.78,-1.31,-0.02,0.0,0.9613012014972206,2.2441702252725837,0.042732063737613624,0.2,0,2,0.0
4.52551378499993,147,836.01,101.6,2.8,-38.0,2.28,-0.93,-1.24,-0.02,1.02,0.06,-137.2,48.2,57.0,-0.79,-1.26,0.13,0.0,1.0219589032832974,2.756972977742074,0.017567125287493823,0.2,0,2,0.0
4.536163146000035,148,836.02,101.9,2.7,-37.9,2.46,-1.48,-1.01,-0.06,1.11,0.05,-136.7,42.2,-35.0,-0.8,-1.02,-0.04,0.0,1.1127443551867608,3.0433698427894034,0.10618552564713801,0.2,0,2,0.0
4.545601443000123,149,836.03,102.1,2.6,-37.7,2.02,-2.16,-0.76,-0.06,1.21,0.0,-136.4,30.8,-101.0,-0.81,-0.64,0.02,0.0,1.2114866899805379,3.053457057173066,0.2008293032320967,0.2,0,3,0.0
4.556423060999805,150,836.04,102.3,2.5,-37.5,1.2,-2.8,-0.42,-0.03,1.29,-0.07,-136.2,14.1,-150.0,-0.81,-0.16,0.03,0.0,1.2922461065911555,3.0751260136781386,0.2759569454458599,0.2,0,3,0.0
4.565624521001155,151,836.05,102.4,2.4,-37.2,0.25,-3.22,0.0,-0.01,1.33,-0.13,-136.2,-3.7,-140.0,-0.81,0.2,-0.05,0.0,1.3363756956784272,3.2296903876378,0.3136848038424689,0.2,0,3,0.0
4.576399478000894,152,836.06,102.4,2.3,-36.9,-0.81,-3.46,0.43,0.0,1.31,-0.14,-136.3,-9.0,-70.0,-0.81,0.28,0.06,0.0,1.3174596768022921,3.5794692343977483,0.2888734092670071,0.2,0,3,0.0
4.5856426379996265,153,836.07,102.2,2.3,-36.5,-1.53,-3.6,0.8,0.01,1.24,-0.13,-136.4,-15.6,-82.0,-0.81,0.54,-0.06,0.0,1.24683599563054,3.9926056654771207,0.2138847335333498,0.2,0,3,0.0
4.596288467000704,154,836.08,102.0,2.3,-36.1,-2.16,-3.64,0.98,0.03,1.12,-0.13,-136.6,-24.9,-99.0,-0.8,0.83,-0.01,0.0,1.127918436767482,4.344605850937459,0.093067831176886,0.2,0,3,0.0
4.605439033999573,155,836.09,101.7,2.3,-35.8,-2.57,-3.66,1.07,0.05,1.03,-0.12,-137.0,-42.0,-163.0,-0.79,1.38,0.09,0.0,1.0381714694596456,4.598412769641282,0.003254446591668625,0.2,0,3,0.0
4.6162200270009635,156,836.1,101.4,2.4,-35.4,-2.71,-3.58,1.08,0.07,0.94,-0.12,-137.5,-62.6,-196.0,-0.77,1.97,0.11,0.0,0.9502105029939418,4.618105672242678,0.08301238947655443,0.2,0,3,0.0
4.625516906000485,157,836.11,101.1,2.4,-35.0,-2.57,-3.4,0.98,0.1,0.88,-0.12,-138.3,-85.9,-227.0,-0.74,2.63,0.09,0.0,0.8937561188601731,4.373248220716496,0.13667743813811672,0.2,0,3,0.0
4.636377025000911,158,836.12,100.9,2.5,-34.7,-2.49,-3.1,0.93,0.13,0.85,-0.14,-139.4,-110.8,-246.0,-0.71,3.34,-0.12,0.0,0.8712060605849801,4.083503397819084,0.1560429464850437,0.2,0,3,0.0
4.645644001000619,159,836.13,100.7,2.6,-34.4,-2.17,-2.76,0.96,0.16,0.84,-0.13,-140.7,-138.2,-265.0,-0.67,4.09,0.08,0.0,0.8649277426467484,3.639793950212017,0.1590748391348099,0.2,0,3,0.0
4.656477898000958,160,836.14,100.5,2.6,-34.1,-1.66,-2.4,1.0,0.2,0.86,-0.15,-142.2,-165.0,-260.0,-0.63,4.79,0.24,0.0,0.8956003573022958,3.0847366176061124,0.12583417998967728,0.2,0,3,0.0
4.665566527999545,161,836.15,100.4,2.7,-33.9,-1.35,-1.83,1.13,0.24,0.9,-0.18,-144.0,-187.0,-215.0,-0.58,5.29,0.31,0.0,0.9486832980505138,2.5393503106109643,0.07129621445663004,0.2,0,3,0.0
4.676458998001181,162,836.16,100.2,2.8,-33.7,-1.33,-1.16,1.28,0.27,0.91,-0.2,-146.0,-202.7,-159.0,-0.52,5.63,0.01,0.0,0.970051545022222,2.1801146758828995,0.048929408135223396,0.2,0,3,0.0
4.685563925000679,163,836.17,100.1,2.9,-33.6,-1.38,-0.52,1.32,0.28,0.89,-0.2,-148.1,-211.5,-99.0,-0.46,5.81,0.12,0.0,0.9542012366372201,1.9791917542269624,0.0634841221898208,0.2,0,3,0.0
4.697600622999744,164,836.18,100.0,3.0,-33.6,-1.4,0.08,1.3,0.27,0.87,-0.18,-150.3,-217.2,-69.0,-0.4,5.96,0.0,0.0,0.9285472524325297,1.9121715404220405,0.08735534426662095,0.2,0,3,0.0
4.705592956999681,165,836.19,99.8,3.1,-33.6,-1.16,0.62,1.17,0.23,0.84,-0.17,-152.5,-220.5,-41.0,-0.34,6.03,0.1,0.0,0.8873556220591606,1.7603692794411063,0.12597603514719025,0.2,0,3,0.0
4.7164381590009725,166,836.2,99.7,3.3,-33.6,-0.91,0.98,0.96,0.19,0.83,-0.16,-154.7,-222.4,-25.0,-0.28,6.08,0.05,0.0,0.866371744691619,1.6462381358722071,0.1440207142644372,0.2,0,3,0.0
4.725505591999536,167,836.21,99.6,3.4,-33.7,-0.82,1.19,0.74,0.16,0.84,-0.15,-156.9,-224.1,-18.0,-0.22,6.11,-0.07,0.0,0.8681589716175258,1.623607095328177,0.13938881759175992,0.2,0,3,0.0
4.7364283469996735,168,836.22,99.5,3.5,-33.9,-1.01,1.29,0.54,0.13,0.86,-0.15,-159.2,-224.2,-4.0,-0.16,6.09,-0.09,0.0,0.8826097665446491,1.7250507238919093,0.12243926221134394,0.2,0,3,0.0
4.745583939000426,169,836.23,99.4,3.6,-34.0,-1.38,1.21,0.36,0.1,0.87,-0.14,-161.4,-222.4,20.0,-0.1,5.99,0.06,0.0,0.8868483523128404,1.8703208280934047,0.11583666291428962,0.2,0,3,0.0
4.756341541000438,170,836.24,99.2,3.7,-34.1,-1.7,1.13,0.25,0.08,0.88,-0.15,-163.6,-217.0,53.0,-0.04,5.79,0.01,0.0,0.8962700485902672,2.056550509955931,0.10428666730412572,0.2,0,3,0.0
4.7656737260003865,171,836.25,99.1,3.7,-34.2,-1.72,1.05,0.2,0.06,0.87,-0.15,-165.7,-208.5,71.0,0.0,5.58,-0.07,0.0,0.8848728722251575,2.0250679000961918,0.11337016679585066,0.2,0,3,0.0
4.776444315000845,172,836.26,98.9,3.8,-34.3,-1.54,0.96,0.18,0.05,0.86,-0.14,-167.7,-200.9,71.0,0.06,5.37,-0.18,0.0,0.8727542609463445,1.8236227680087786,0.12297900251317051,0.2,0,3,0.0
4.78562961300122,173,836.27,98.8,3.8,-34.4,-1.32,0.73,0.08,0.04,0.83,-0.15,-169.7,-193.4,80.0,0.11,5.14,0.11,0.0,0.844393273303382,1.5105297084135751,0.14831319035301027,0.2,0,3,0.0
4.796307528000398,174,836.28,98.7,3.8,-34.4,-1.15,0.63,-0.11,0.06,0.81,-0.2,-171.6,-183.9,103.0,0.16,4.83,-0.01,0.0,0.8364807230295269,1.3158647346897019,0.15310122581432806,0.2,0,3,0.0
4.805618117999984,175,836.29,98.6,3.8,-34.5,-1.12,0.72,-0.31,0.09,0.8,-0.24,-173.3,-168.7,139.0,0.21,4.4,-0.08,0.0,0.8400595217006948,1.3670771741200276,0.14653197860029699,0.2,0,3,0.0
4.816397313999914,176,836.3,98.5,3.7,-34.6,-0.99,0.93,-0.43,0.13,0.8,-0.29,-174.9,-153.4,150.0,0.25,3.96,-0.15,0.0,0.8608135686662938,1.4247455913249916,0.12326237300200404,0.2,0,3,0.0
4.825466869000593,177,836.31,98.4,3.7,-34.7,-0.5,1.27,-0.5,0.17,0.8,-0.31,-176.3,-137.6,149.0,0.28,3.57,-0.03,0.0,0.8746427842267951,1.4535817830449032,0.10724449429267269,0.2,0,3,0.0
4.836287944001015,178,836.32,98.4,3.7,-34.9,0.15,1.64,-0.52,0.2,0.82,-0.32,-177.6,-123.5,145.0,0.32,3.18,-0.14,0.0,0.9026627277117406,1.7269916039170543,0.07764005979157262,0.2,0,3,0.0
4.8455761870009155,179,836.33,98.4,3.7,-35.0,0.52,1.99,-0.6,0.19,0.85,-0.34,-178.7,-109.8,137.0,0.35,2.81,0.1,0.0,0.934986630920464,2.142545215392198,0.044409833451192315,0.2,0,3,0.0
4.856332826000653,180,836.34,98.5,3.6,-35.3,0.64,2.47,-0.68,0.17,0.88,-0.35,-179.7,-96.7,137.0,0.37,2.47,-0.22,0.0,0.9621850133939938,2.640624926035502,0.016867221958109302,0.2,0,3,0.0
4.865641415999562,181,836.35,98.5,3.6,-35.6,0.65,2.81,-0.7,0.13,0.95,-0.29,-180.6,-82.9,129.0,0.39,2.11,0.01,0.0,1.00174847142384,2.9679285705690424,0.022242311350302302,0.2,0,3,0.0
4.875956642001256,182,836.36,98.6,3.6,-35.8,0.71,2.88,-0.6,0.09,1.02,-0.21,-181.4,-70.6,123.0,0.41,1.78,-0.09,0.0,1.0452750834110607,3.026301372963373,0.06445354487077248,0.2,0,3,0.0
4.8855721239997365,183,836.37,98.6,3.6,-36.1,0.65,2.66,-0.51,0.04,1.05,-0.15,-182.0,-59.7,113.0,0.43,1.48,-0.11,0.0,1.0614141510268271,2.7853545555278956,0.07898076023680811,0.2,0,3,0.0
4.896409044000393,184,836.38,98.7,3.5,-36.4,0.57,2.17,-0.51,-0.01,1.05,-0.14,-182.5,-48.1,119.0,0.44,1.15,0.01,0.0,1.0593394168065304,2.3008476698816893,0.07536790549618122,0.2,0,3,0.0
4.905674682000608,185,836.39,98.7,3.4,-36.6,0.21,1.6,-0.61,-0.04,1.02,-0.17,-182.9,-36.3,111.0,0.45,0.86,-0.06,0.0,1.034842983258813,1.725166658615915,0.049854042509494545,0.2,0,3,0.0
4.916211380999812,186,836.4,98.7,3.4,-36.7,-0.22,1.16,-0.81,-0.03,0.99,-0.22,-183.2,-24.5,123.0,0.46,0.51,0.11,0.0,1.0145935146648632,1.431817027416562,0.029012482437233866,0.2,0,3,0.0
4.925309448999542,187,836.41,98.6,3.3,-36.8,-0.36,1.04,-0.93,0.01,0.99,-0.3,-183.4,-13.3,117.0,0.46,0.2,-0.04,0.0,1.0345047124107265,1.440867794074113,0.04794520657943513,0.2,0,3,0.0
4.936230343000716,188,836.42,98.6,3.2,-37.0,-0.11,1.29,-1.04,0.05,0.93,-0.39,-183.4,-0.7,113.0,0.46,-0.08,-0.03,0.0,1.0097029266076236,1.6606625183943908,0.022680552360805573,0.2,0,3,0.0
4.945422263999717,189,836.43,98.6,3.1,-37.1,0.84,1.98,-1.21,0.11,0.98,-0.44,-183.4,4.2,46.0,0.46,-0.1,0.11,0.0,1.0798611021793496,2.4678127967899024,0.09098195337388093,0.2,0,3,0.0
4.956079351999506,190,836.44,98.8,3.1,-37.4,1.76,2.92,-1.11,0.15,1.12,-0.38,-183.3,1.5,-12.0,0.46,0.02,0.02,0.0,1.1921828718783039,3.585540405573475,0.1992376486113785,0.2,0,3,0.0
4.965503856999931,191,836.45,99.0,3.0,-37.7,2.42,3.54,-0.73,0.16,1.22,-0.33,-183.3,-1.3,-6.0,0.46,0.02,-0.12,0.0,1.2739309243440164,4.3498160880662535,0.27536598705554927,0.2,0,3,0.0
4.976376018999872,192,836.46,99.2,3.1,-38.1,2.82,3.72,-0.29,0.15,1.28,-0.24,-183.3,0.5,7.0,0.46,-0.02,0.05,0.0,1.310915710486376,4.677061043005533,0.3061037577339507,0.2,0,3,0.0
4.985316788999626,193,836.47,99.5,3.1,-38.5,2.38,3.3,0.02,0.13,1.26,-0.15,-183.3,-0.2,-8.0,0.46,0.03,-0.06,0.0,1.2755391017134676,4.068759024567564,0.2653126059818214,0.2,0,3,0.0
4.996338783999818,194,836.48,99.6,3.2,-38.8,1.32,2.84,0.21,0.09,1.23,-0.08,-183.3,0.1,8.0,0.46,-0.02,-0.22,0.0,1.2358802530989803,3.1388055052838175,0.22114068221998728,0.2,0,3,0.0
5.005420043000413,195,836.49,99.6,3.3,-39.0,0.03,2.44,0.47,0.02,1.21,0.0,-183.3,0.3,-8.0,0.46,0.03,0.08,0.0,1.2101652779682617,2.4850352110181455,0.19151719294748326,0.2,0,3,0.0
5.01628434200029,196,836.5,99.5,3.4,-39.2,-0.54,2.04,0.75,-0.04,1.13,0.1,-183.3,-1.0,-3.0,0.46,0.02,-0.16,0.0,1.1351211389098521,2.239575852700685,0.11414359281129216,0.2,0,3,0.0
5.025410072999875,197,836.51,99.5,3.5,-39.4,-0.31,1.7,0.97,-0.09,1.1,0.17,-183.4,0.3,14.0,0.46,-0.06,0.01,0.0,1.1166915420114905,1.981665965797465,0.09379971599467196,0.2,0,3,0.0
5.036531145000481,198,836.52,99.5,3.7,-39.5,0.02,1.34,1.2,-0.12,1.12,0.25,-183.3,4.7,30.0,0.46,-0.16,-0.07,0.0,1.153819743287486,1.7988885457415087,0.1283093589252542,0.2,0,3,0.0
5.045416135000778,199,836.53,99.5,3.8,-39.6,0.09,0.83,1.45,-0.1,1.11,0.3,-183.2,8.4,45.0,0.45,-0.31,0.07,0.0,1.154166365824269,1.6731706428215862,0.1260828618327965,0.2,0,3,0.0
5.056133353000405,200,836.54,99.5,4.0,-39.6,0.0,0.22,1.62,-0.03,1.07,0.28,-183.1,20.3,116.0,0.45,-0.76,0.01,0.0,1.1064357188738982,1.6348700254148647,0.0767851705847773,0.2,0,3,0.0
5.065510362001078,201,836.55,99.5,4.1,-39.6,0.07,-0.39,1.68,0.06,1.02,0.23,-182.8,36.1,144.0,0.44,-1.19,-0.25,0.0,1.047329938462565,1.726093856080833,0.017325802369975163,0.2,0,3,0.0
5.076215982000576,202,836.56,99.5,4.3,-39.5,0.34,-0.84,1.59,0.15,0.98,0.15,-182.3,57.2,204.0,0.42,-1.85,-0.09,0.0,1.00269636480841,1.8301092863542332,0.026761615858496235,0.2,0,3,0.0
5.08534691100067,203,836.57,99.6,4.4,-39.4,0.64,-1.1,1.39,0.23,0.97,0.09,-181.5,79.9,211.0,0.4,-2.42,-0.09,0.0,1.000949549178179,1.884595447304275,0.027938262858952623,0.2,0,3,0.0
5.096403321000253,204,836.58,99.7,4.5,-39.3,0.91,-1.14,1.02,0.27,0.95,0.03,-180.6,100.9,208.0,0.37,-2.99,-0.35,0.0,0.9880789442144792,1.7799157283422156,0.039992690466199465,0.2,0,3,0.0
5.10540443300124,205,836.59,99.8,4.6,-39.1,1.16,-0.87,0.52,0.27,0.99,-0.04,-179.4,123.3,224.0,0.34,-3.64,-0.26,0.0,1.0269371937952194,1.5404220200970902,0.0011117520677499382,0.2,0,3,0.0
5.116284069001267,206,836.6,99.9,4.6,-39.1,1.02,-0.33,0.03,0.23,1.05,-0.12,-178.0,146.2,225.0,0.29,-4.24,-0.25,0.0,1.0815729286552986,1.0724737759031686,0.05245350313648278,0.2,0,3,0.0
5.125456548999864,207,836.61,100.0,4.6,-39.1,0.64,0.3,-0.23,0.2,1.1,-0.15,-176.4,170.6,240.0,0.25,-4.94,-0.06,0.0,1.1280514172678477,0.7433034373659253,0.0969533519140513,0.2,0,3,0.0
5.1362152860001515,208,836.62,100.0,4.6,-39.1,0.27,0.89,-0.32,0.16,1.15,-0.15,-174.5,194.1,236.0,0.19,-5.57,-0.22,0.0,1.1707262703125783,0.9835649444749441,0.1368356408596061,0.2,0,3,0.0
5.14540801899966,209,836.63,100.0,4.6,-39.3,-0.07,1.34,-0.29,0.11,1.15,-0.15,-172.4,218.4,244.0,0.13,-6.24,0.05,0.0,1.164946350696031,1.372807342637706,0.12843460681819763,0.2,0,3,0.0
5.156127109999943,210,836.64,99.9,4.6,-39.4,-0.34,1.68,-0.23,0.08,1.11,-0.14,-170.0,242.8,228.0,0.07,-6.85,-0.01,0.0,1.121650569473399,1.7294218687179828,0.08343604908365432,0.2,0,3,0.0
5.165437601001031,211,836.65,99.8,4.6,-39.6,-0.56,1.81,-0.2,0.06,1.05,-0.1,-167.5,262.9,213.0,0.0,-7.41,-0.06,0.0,1.0564563407921788,1.9051771571168914,0.01787698399438553,0.2,0,3,0.0
5.176059642000837,212,836.66,99.7,4.6,-39.8,-0.69,1.77,-0.19,0.05,1.0,-0.08,-164.7,287.3,249.0,-0.07,-8.16,-0.16,0.0,1.0044401425669924,1.909214498164101,0.03345642994618481,0.2,0,3,0.0
5.1863366460002,213,836.67,99.6,4.6,-40.0,-0.72,1.65,-0.19,0.03,0.97,-0.04,-161.6,316.4,264.0,-0.16,-8.9,-0.02,0.0,0.9712878049270464,1.8102486017119306,0.06527659223440829,0.2,0,3,0.0
5.196347852001054,214,836.68,99.5,4.6,-40.1,-0.65,1.39,-0.18,0.01,0.93,-0.01,-158.3,337.7,219.0,-0.25,-9.42,0.07,0.0,0.9301075206662938,1.5449919093639293,0.1043277389652576,0.2,0,3,0.0
5.205434973000592,215,836.69,99.4,4.6,-40.3,-0.5,1.04,-0.23,0.0,0.9,0.01,-154.8,358.8,222.0,-0.35,-10.04,0.0,0.0,0.9000555538409838,1.176647780773839,0.13169211167475625,0.2,0,3,0.0
5.216303260000132,216,836.7,99.4,4.6,-40.3,-0.4,0.7,-0.34,0.0,0.89,0.01,-151.1,382.0,223.0,-0.46,-10.65,0.0,0.0,0.8900561780022652,0.8749857141690943,0.13885765776320536,0.2,0,3,0.0
5.225596248001239,217,836.71,99.3,4.6,-40.4,-0.49,0.33,-0.48,-0.01,0.9,0.0,-147.0,406.8,266.0,-0.57,-11.45,-0.14,0.0,0.9000555538409838,0.7611832893594025,0.12628111628599714,0.2,0,3,0.0
5.236351174000447,218,836.72,99.2,4.5,-40.4,-0.71,0.02,-0.56,-0.01,0.92,-0.01,-142.8,437.5,259.0,-0.69,-12.13,-0.05,0.0,0.9201086892318755,0.9044888059008801,0.1041034212772034,0.2,0,3,0.0
5.245439926000472,219,836.73,99.2,4.5,-40.4,-0.9,-0.16,-0.57,0.0,0.92,-0.03,-138.3,455.9,222.0,-0.81,-12.69,0.02,0.0,0.9204890004774636,1.0772650555921695,0.10164864783098293,0.2,0,3,0.0
5.256387208999513,220,836.74,99.1,4.4,-40.4,-1.14,-0.26,-0.61,0.01,0.9,-0.04,-133.5,478.2,187.0,-0.94,-13.12,0.18,0.0,0.9009439494219382,1.3188252348207476,0.11876982490877808,0.2,0,3,0.0
5.26948975400046,221,836.75,98.9,4.3,-40.4,-1.38,-0.27,-0.61,0.03,0.9,-0.05,-128.7,486.9,144.0,-1.08,-13.46,0.0,0.0,0.9018869108707588,1.5327752607606895,0.11547032619075837,0.2,0,3,0.0
5.281608991999747,222,836.76,98.7,4.2,-40.4,-1.49,-0.25,-0.54,0.04,0.9,-0.06,-123.7,504.5,126.0,-1.22,-13.76,-0.09,0.0,0.902884267223657,1.6044313634431357,0.11218351044110286,0.2,0,3,0.0
5.28960737899979,223,836.77,98.5,4.2,-40.4,-1.47,-0.18,-0.39,0.06,0.9,-0.07,-118.5,507.3,65.0,-1.35,-13.86,0.08,0.0,0.9047098982546837,1.531469882172026,0.10815072182187468,0.2,0,3,0.0
5.297555531000398,224,836.78,98.3,4.2,-40.4,-1.32,-0.06,-0.24,0.07,0.89,-0.08,-113.4,513.7,62.0,-1.49,-14.04,0.21,0.0,0.8963258336118624,1.3429817571359637,0.11420409073540216,0.2,0,3,0.0
5.305347984000036,225,836.79,98.2,4.1,-40.4,-1.09,0.05,-0.12,0.08,0.89,-0.09,-108.2,525.8,114.0,-1.64,-14.44,0.15,0.0,0.8981091247727082,1.0977249200050074,0.11017238358306525,0.2,0,3,0.0
5.316338882001219,226,836.8,98.1,4.2,-40.4,-0.97,0.18,0.0,0.08,0.9,-0.11,-102.9,530.9,51.0,-1.78,-14.47,0.12,0.0,0.9102197536858888,0.9865596788841514,0.09610051957648691,0.2,0,3,0.0
5.325452940000105,227,836.81,98.0,4.2,-40.4,-0.86,0.32,0.08,0.07,0.89,-0.12,-97.6,536.7,15.0,-1.94,-14.41,-0.05,0.0,0.9007774419910837,0.9210863151735563,0.10343197464586629,0.2,0,3,0.0
5.336251214001095,228,836.82,97.9,4.2,-40.4,-0.81,0.5,0.14,0.05,0.89,-0.12,-92.3,515.2,-168.0,-2.07,-13.7,0.3,0.0,0.8994442728707543,0.9621330469326995,0.10266984089087172,0.2,0,3,0.0
5.345592945001044,229,836.83,97.8,4.2,-40.5,-1.03,0.56,0.24,0.03,0.91,-0.11,-87.4,474.7,-465.0,-2.2,-11.79,0.11,0.0,0.9171150418568,1.196703806294607,0.08329909046672956,0.2,0,3,0.0
5.3565534749996,230,836.84,97.7,4.2,-40.6,-1.29,0.62,0.39,-0.01,0.93,-0.11,-83.2,379.9,-835.0,-2.29,-9.04,0.5,0.0,0.9365361712181757,1.4834419435893,0.06260040188324689,0.2,0,3,0.0
5.365584511000634,231,836.85,97.5,4.2,-40.6,-1.77,0.49,0.58,-0.05,0.97,-0.09,-80.2,260.3,-1079.0,-2.36,-5.74,0.33,0.0,0.9754486147409304,1.9259802698885573,0.02321419919328238,0.2,0,3,0.0
5.376277911000216,232,836.86,97.3,4.3,-40.6,-2.18,0.03,0.7,-0.06,1.0,-0.06,-78.4,139.9,-1167.0,-2.4,-2.19,0.16,0.0,1.0035935432235503,2.2898253208487325,0.004832114703550827,0.2,0,3,0.0
5.385588488999929,233,836.87,97.1,4.4,-40.6,-2.36,-0.57,0.69,-0.04,1.02,-0.09,-77.8,27.7,-1078.0,-2.4,0.4,0.32,0.0,1.0247438704378768,2.5240047543536837,0.02546279307951982,0.2,0,3,0.0
5.396360098000514,234,836.88,96.8,4.4,-40.5,-3.4,-0.93,0.63,-0.01,1.06,-0.16,-78.1,-49.9,-769.0,-2.39,1.96,0.25,0.0,1.0720541031123383,3.5807541105191794,0.07131756523890154,0.2,0,3,0.0
5.4056444950001605,235,836.89,96.4,4.4,-40.4,-4.67,-0.61,0.73,0.02,1.03,-0.21,-79.0,-101.3,-593.0,-2.35,3.37,0.55,0.0,1.0513800454640558,4.765910196384317,0.04963063743880669,0.2,0,3,0.0
5.416536970000379,236,836.9,96.0,4.5,-40.4,-4.39,-0.02,0.92,0.04,0.85,-0.14,-80.3,-148.0,-494.0,-2.32,4.52,0.18,0.0,0.8623804264940154,4.485409680285626,0.13658160190060908,0.2,0,3,0.0
5.425543930999993,237,836.91,95.6,4.6,-40.4,-2.19,0.07,0.93,0.05,0.73,-0.02,-82.1,-193.4,-467.0,-2.26,5.74,0.26,0.0,0.7319836063738039,2.3803151051909075,0.2616388535804042,0.2,0,4,0.0
5.4363016030001745,238,836.92,95.5,4.7,-40.4,-0.4,-0.11,0.91,0.09,0.76,-0.03,-84.4,-236.8,-450.0,-2.19,7.0,-0.02,0.0,0.7658981655546643,1.0000999950004998,0.22316980851155288,0.2,0,4,0.0
5.445429912000691,239,836.93,95.5,4.8,-40.3,0.49,-0.3,0.85,0.13,0.82,-0.09,-87.0,-276.5,-389.0,-2.12,7.91,-0.04,0.0,0.8351047838445185,1.0259629622944486,0.15088392641726467,0.2,0,4,0.0
5.456266698000036,240,836.94,95.6,4.9,-40.3,0.85,-0.3,0.67,0.16,0.87,-0.16,-90.1,-308.0,-299.0,-2.03,8.6,-0.04,0.0,0.898943824718764,1.1231206524679351,0.08530398783215876,0.2,0,4,0.0
5.4694730330011225,241,836.95,95.7,5.0,-40.3,0.93,-0.16,0.48,0.17,0.91,-0.21,-93.2,-322.5,-183.0,-1.94,8.92,-0.04,0.0,0.9492628719169417,1.0587256490706174,0.03428524182130144,0.2,0,4,0.0
5.477624831999492,242,836.96,95.8,5.0,-40.2,0.82,-0.12,0.34,0.16,0.93,-0.21,-96.5,-335.3,-141.0,-1.86,9.23,0.03,0.0,0.9667471230885563,0.8957678270623476,0.016464970836693182,0.2,0,4,0.0
5.485410115999912,243,836.97,95.8,5.0,-40.2,0.76,-0.09,0.17,0.14,0.91,-0.22,-100.1,-341.2,-51.0,-1.75,9.22,0.05,0.0,0.9466255859631093,0.7839642849007855,0.035854777802897364,0.2,0,4,0.0
5.496179642001152,244,836.98,95.9,5.0,-40.2,0.9,-0.06,-0.02,0.11,0.9,-0.23,-103.0,-338.0,0.0,-1.66,9.15,-0.06,0.0,0.9354143466934853,0.9022194854911969,0.04612469673107089,0.2,0,4,0.0
5.5055830250003055,245,836.99,96.0,5.0,-40.2,1.16,-0.05,-0.21,0.08,0.91,-0.24,-106.7,-335.3,27.0,-1.58,9.04,0.0,0.0,0.9445104552094699,1.179915251193915,0.03628801645078461,0.2,0,4,0.0
5.516546335000385,246,837.0,96.1,5.0,-40.2,1.34,-0.06,-0.36,0.05,0.92,-0.25,-109.3,-326.4,138.0,-1.48,8.55,-0.1,0.0,0.9546727187890099,1.3888124423405777,0.02560323781381968,0.2,0,4,0.0
5.525428979000935,247,837.01,96.3,4.9,-40.2,1.39,-0.07,-0.48,0.03,0.92,-0.27,-113.2,-304.6,165.0,-1.4,8.07,-0.02,0.0,0.9592705562040357,1.47220922426128,0.020585292390818077,0.2,0,4,0.0
5.536198568001055,248,837.02,96.4,4.9,-40.2,1.52,-0.12,-0.63,0.0,0.91,-0.3,-116.1,-286.3,188.0,-1.33,7.52,-0.14,0.0,0.9581753492967767,1.6497575579460153,0.02124688931211549,0.2,0,4,0.0
5.545327597999858,249,837.03,96.6,4.8,-40.2,1.65,-0.17,-0.68,0.0,0.92,-0.32,-118.9,-264.4,212.0,-1.25,6.9,-0.22,0.0,0.9740636529508737,1.7927074496414634,0.005251413944858174,0.2,0,4,0.0
5.556314776000363,250,837.04,96.8,4.7,-40.2,1.87,-0.25,-0.62,-0.01,0.92,-0.33,-121.3,-240.7,230.0,-1.19,6.24,-0.27,0.0,0.9774456506629922,1.985900299612244,0.001832027908084899,0.2,0,4,0.0
5.565318547000061,251,837.05,97.0,4.7,-40.2,2.4,-0.44,-0.6,-0.02,0.91,-0.31,-123.6,-217.3,230.0,-1.13,5.63,-0.07,0.0,0.9615612304996495,2.5126878039263056,0.017362119109999075,0.2,0,4,0.0
5.576117172000522,252,837.06,97.3,4.6,-40.1,2.94,-0.79,-0.55,-0.02,0.97,-0.31,-125.6,-192.9,250.0,-1.08,4.91,-0.09,0.0,1.0185283501208986,3.093573984891908,0.03881290050102504,0.2,0,4,0.0
5.585431718000109,253,837.07,97.6,4.6,-40.0,2.82,-1.21,-0.32,-0.01,1.04,-0.31,-127.3,-165.3,266.0,-1.04,4.16,-0.19,0.0,1.0852649446103013,3.0852714629348257,0.10343850509061925,0.2,0,4,0.0
5.596117164999669,254,837.08,97.8,4.5,-39.9,2.01,-1.56,0.13,0.0,1.1,-0.27,-128.8,-138.7,264.0,-1.0,3.46,-0.01,0.0,1.132651755836718,2.547665598150589,0.14780880999069512,0.2,0,4,0.0
5.605417310000121,255,837.09,98.0,4.5,-39.7,1.4,-2.0,0.58,0.0,1.09,-0.17,-130.0,-114.4,248.0,-0.97,2.8,-0.31,0.0,1.103177229641729,2.5092628399591783,0.11596759811979207,0.2,0,4,0.0
5.616476691000571,256,837.1,98.2,4.5,-39.4,1.55,-2.62,0.69,0.01,1.06,-0.05,-131.0,-90.8,236.0,-0.95,2.18,-0.07,0.0,1.0612257064357233,3.121377900863656,0.07253575341551066,0.2,0,4,0.0
5.625415559999965,257,837.11,98.4,4.5,-39.1,2.13,-3.26,0.33,0.08,1.09,0.05,-131.7,-69.2,222.0,-0.93,1.6,-0.15,0.0,1.0940749517286281,3.908119752515268,0.10327729873424718,0.2,0,4,0.0
5.6361801130005915,258,837.12,98.6,4.5,-38.8,2.09,-3.76,-0.38,0.18,1.15,0.11,-132.3,-46.2,238.0,-0.92,0.93,-0.05,0.0,1.1691877522451215,4.318576154243432,0.17482229726572573,0.2,0,4,0.0
5.645365558000776,259,837.13,98.8,4.3,-38.4,0.98,-4.11,-1.32,0.28,1.2,0.15,-132.6,-17.9,278.0,-0.91,0.11,-0.01,0.0,1.241329931968129,4.426612700474258,0.24202518744895862,0.2,0,4,0.0
5.6562165200011805,260,837.14,98.8,4.1,-38.0,-0.41,-4.13,-2.46,0.39,1.19,0.12,-132.5,9.7,251.0,-0.92,-0.51,-0.02,0.0,1.2580143083447024,4.824582883524751,0.2535353725490215,0.2,0,4,0.0
5.66541833500014,261,837.15,98.8,3.7,-37.7,-1.67,-3.31,-3.42,0.46,1.2,0.01,-132.3,26.5,186.0,-0.92,-0.91,-0.02,0.0,1.2851848116127111,5.0439468672855785,0.27509175830068955,0.2,0,4,0.0
5.676079906001178,262,837.16,98.5,3.3,-37.5,-3.08,-1.85,-3.58,0.42,1.16,-0.09,-132.0,39.3,139.0,-0.93,-1.21,0.07,0.0,1.2369721096289923,5.072011435318339,0.2223414751906312,0.2,0,4,0.0
5.685413797000365,263,837.17,98.2,3.0,-37.5,-3.49,-0.16,-2.9,0.27,1.05,-0.04,-131.5,49.4,99.0,-0.95,-1.43,-0.03,0.0,1.0848963084092416,4.540451519397603,0.06886036049146282,0.2,0,4,0.0
5.696202641000127,264,837.18,97.9,2.7,-37.5,-2.26,0.66,-2.06,0.13,0.9,0.1,-131.0,54.9,60.0,-0.96,-1.52,-0.02,0.0,0.9148223871331528,3.1283861654213982,0.09918928956893336,0.2,0,4,0.0
5.705416856000738,265,837.19,97.8,2.6,-37.6,0.8,0.89,-1.45,0.03,0.8,0.15,-130.4,52.6,-16.0,-0.98,-1.34,-0.01,0.0,0.8144937077718895,1.8800531907369005,0.19552760955159276,0.2,0,4,0.0
5.71614250499988,266,837.2,98.1,2.5,-37.7,4.05,0.46,-1.2,-0.08,0.86,0.16,-129.9,42.4,-95.0,-0.99,-0.95,0.13,0.0,0.8784076502399099,4.2490116497839825,0.12898139374190087,0.2,0,4,0.0
5.7254416619998665,267,837.21,98.6,2.4,-37.7,5.64,-0.22,-1.15,-0.13,1.08,0.12,-129.6,23.6,-164.0,-0.99,-0.38,0.03,0.0,1.0943948099292138,5.76025173061039,0.08526565062845504,0.2,0,4,0.0
5.736301930999616,268,837.22,99.1,2.2,-37.7,5.45,-0.93,-0.99,-0.14,1.32,0.05,-129.6,1.3,-197.0,-0.99,0.19,0.07,0.0,1.3283448347473634,5.6167161224331075,0.3128313619376726,0.2,0,4,0.0
5.7455835939999815,269,837.23,99.6,2.1,-37.6,3.46,-1.7,-0.54,-0.09,1.52,-0.11,-129.6,-8.3,-84.0,-0.99,0.22,0.0,0.0,1.5266302761310613,3.892711137497875,0.5008944672549431,0.2,0,4,0.0
5.7565616499996395,270,837.24,99.8,2.1,-37.4,0.2,-2.14,0.04,-0.03,1.53,-0.21,-129.7,-10.9,-71.0,-0.99,0.41,0.02,0.0,1.5446358794227202,2.1496976531596252,0.50852206913567,0.2,0,4,0.0
5.765463044999706,271,837.25,99.6,2.0,-37.2,-2.8,-2.32,0.54,0.0,1.36,-0.15,-129.9,-21.8,-109.0,-0.98,0.77,0.13,0.0,1.3682470537150813,3.6761392791895138,0.3254905785594704,0.2,0,4,0.0
5.775916395999957,272,837.26,99.2,2.1,-36.9,-3.77,-2.64,0.75,0.03,1.15,-0.05,-130.2,-37.3,-156.0,-0.97,1.25,0.08,0.0,1.1514773119779649,4.663153439465615,0.10654642008590698,0.2,0,4,0.0
5.786044612999831,273,837.27,98.8,2.1,-36.6,-3.46,-2.78,0.78,0.06,1.01,-0.06,-130.8,-59.1,-206.0,-0.95,1.89,0.18,0.0,1.0135580891098448,4.506484217214124,0.030745346726568812,0.2,0,4,0.0
5.7963298020004,274,837.28,98.5,2.1,-36.3,-2.71,-2.78,0.81,0.09,0.94,-0.04,-131.5,-82.7,-223.0,-0.93,2.53,0.09,0.0,0.9451454914456292,3.9659299035661233,0.09717478550296876,0.2,0,4,0.0
5.805621141000302,275,837.29,98.3,2.2,-36.1,-2.05,-2.67,0.8,0.12,0.91,-0.06,-132.5,-106.0,-228.0,-0.9,3.16,0.2,0.0,0.9198369420718001,3.459971098145185,0.12003366817926187,0.2,0,4,0.0
5.816482411999459,276,837.3,98.1,2.2,-35.8,-1.69,-2.42,0.76,0.15,0.88,-0.07,-133.7,-128.9,-234.0,-0.86,3.79,0.27,0.0,0.8954328562209453,3.047966535249362,0.14154899894951445,0.2,0,4,0.0
5.825570167000478,277,837.31,97.9,2.3,-35.6,-1.68,-2.03,0.78,0.18,0.89,-0.09,-135.2,-154.5,-244.0,-0.82,4.48,0.07,0.0,0.9124691775616314,2.7480356620684527,0.12202242405665187,0.2,0,4,0.0
5.836500179000723,278,837.32,97.8,2.3,-35.4,-1.61,-1.61,0.9,0.19,0.87,-0.08,-136.9,-178.1,-238.0,-0.77,5.13,0.16,0.0,0.8940917178902844,2.448305536488451,0.13759188605343875,0.2,0,4,0.0
5.84553334300108,279,837.33,97.6,2.4,-35.2,-1.31,-1.21,1.02,0.2,0.85,-0.07,-138.8,-199.5,-210.0,-0.72,5.65,0.07,0.0,0.8760136985230311,2.054409890941922,0.1525565073122781,0.2,0,4,0.0
5.856342091999977,280,837.34,97.5,2.5,-35.1,-0.75,-0.81,1.14,0.2,0.84,-0.08,-141.0,-217.3,-189.0,-0.66,6.13,0.01,0.0,0.8671793355471519,1.5868837386525834,0.15816305288239418,0.2,0,4,0.0
5.865619084001082,281,837.35,97.5,2.6,-35.0,-0.21,-0.41,1.22,0.2,0.85,-0.08,-143.2,-232.7,-146.0,-0.59,6.44,0.02,0.0,0.8768694315575153,1.3040705502387515,0.14550349773459026,0.2,0,4,0.0
5.876394021999658,282,837.36,97.5,2.7,-35.0,0.11,-0.13,1.3,0.2,0.86,-0.11,-145.6,-239.5,-77.0,-0.53,6.55,0.03,0.0,0.8897752525216691,1.3111064030047295,0.12994572323502762,0.2,0,4,0.0
5.885620168999594,283,837.37,97.5,2.9,-35.0,0.33,0.21,1.23,0.18,0.87,-0.11,-148.0,-241.1,-28.0,-0.46,6.54,0.12,0.0,0.8952094726934027,1.2906974858579372,0.12202127300202814,0.2,0,4,0.0
5.896482960999492,284,837.38,97.5,3.0,-35.0,0.18,0.44,1.08,0.16,0.89,-0.13,-150.4,-241.1,-15.0,-0.4,6.57,0.09,0.0,0.9135644476444998,1.18,0.10159297208991236,0.2,0,4,0.0
5.905560385999706,285,837.39,97.5,3.1,-35.0,-0.32,0.61,0.91,0.14,0.89,-0.13,-152.9,-240.7,8.0,-0.33,6.5,-0.65,0.0,0.910274683818022,1.1413150310059006,0.1027850811980624,0.2,0,4,0.0
5.916470854001091,286,837.4,97.5,3.3,-35.1,-0.67,0.65,0.71,0.13,0.88,-0.12,-155.2,-237.3,24.0,-0.27,6.4,-0.02,0.0,0.8976079322287654,1.172817121293853,0.11314279613157263,0.2,0,4,0.0
5.925518748999821,287,837.41,97.4,3.4,-35.1,-0.84,0.63,0.49,0.11,0.86,-0.11,-157.6,-233.7,32.0,-0.2,6.31,0.0,0.0,0.8739565206576354,1.1587061750072793,0.13405832354864855,0.2,0,4,0.0
5.936385598000925,288,837.42,97.3,3.5,-35.2,-0.96,0.57,0.3,0.1,0.86,-0.13,-159.9,-229.9,43.0,-0.14,6.17,0.06,0.0,0.8754998572244315,1.1560709320798617,0.12986468724221534,0.2,0,4,0.0
5.945426849000796,289,837.43,97.2,3.5,-35.3,-1.04,0.54,0.21,0.07,0.88,-0.14,-162.2,-222.8,74.0,-0.08,5.92,0.0,0.0,0.8938120607823549,1.1905040949110592,0.10932143401060601,0.2,0,4,0.0
5.956578982000792,290,837.44,97.1,3.6,-35.3,-1.04,0.49,0.21,0.05,0.89,-0.12,-164.3,-211.8,102.0,-0.02,5.61,0.12,0.0,0.8994442728707543,1.1686744627996284,0.10161543748376234,0.2,0,4,0.0
5.965321133000543,291,837.45,97.1,3.6,-35.3,-0.95,0.35,0.23,0.03,0.87,-0.13,-166.3,-199.1,118.0,0.02,5.25,-0.16,0.0,0.8801704380402696,1.0382196299434912,0.11847148686796216,0.2,0,4,0.0
5.976400761999685,292,837.46,97.0,3.6,-35.4,-0.87,0.23,0.19,0.03,0.84,-0.16,-168.2,-186.2,119.0,0.07,4.93,-0.02,0.0,0.855628424025289,0.9197282207261013,0.14015323086528386,0.2,0,4,0.0
5.985417182000674,293,837.47,96.9,3.6,-35.4,-0.86,0.16,0.15,0.04,0.81,-0.18,-170.0,-175.2,113.0,0.12,4.63,0.09,0.0,0.8307225770376053,0.8875246475450695,0.1617578962959082,0.2,0,4,0.0
5.996106115000657,294,837.48,96.9,3.6,-35.4,-0.77,0.06,-0.01,0.07,0.76,-0.19,-171.7,-162.1,130.0,0.16,4.23,-0.11,0.0,0.7865112840894274,0.7723988606931007,0.2018498054592044,0.2,1,5,2.5
6.005530496000574,295,837.49,96.9,3.6,-35.4,-0.17,0.11,-0.16,0.1,0.79,-0.24,-173.2,-147.0,146.0,0.2,3.81,-0.09,0.0,0.83168503653727,0.2580697580112788,0.15354253195113454,0.2,0,5,2.5
6.016473399000461,296,837.5,96.9,3.6,-35.4,0.17,0.42,-0.23,0.14,0.8,-0.29,-174.5,-117.6,485.0,0.23,1.85,2.29,2.91,0.8623804264940155,0.5081338406365,0.12039019915450133,0.2,0,5,2.5
6.029493166000975,297,837.51,96.9,3.6,-35.5,0.29,0.82,-0.29,0.17,0.81,-0.3,-174.8,13.7,1068.0,0.22,-1.92,2.41,2.91,0.8803408430829506,0.9168424073961674,0.1003811869142549,0.2,0,5,2.5
6.037572303999696,298,837.52,96.9,3.5,-35.6,0.02,1.16,-0.29,0.21,0.85,-0.31,-173.9,127.8,1019.0,0.18,-4.55,2.48,2.91,0.9288164511893617,1.195867885679685,0.05086746723168689,0.2,0,5,2.5
6.045427353999912,299,837.53,96.9,3.5,-35.7,0.75,1.63,-0.38,0.19,0.83,-0.32,-172.0,204.1,768.0,0.12,-6.24,2.93,2.91,0.9096153033013462,1.8340665200586372,0.0686672428173084,0.2,0,5,2.5
6.056228011000712,300,837.54,97.0,3.5,-35.9,0.84,2.05,-0.32,0.16,0.96,-0.27,-169.7,247.2,470.0,0.05,-7.01,3.03,2.91,1.01,2.2384146175362596,0.031083104803718453,0.2,0,5,2.5
6.0653720179998345,301,837.55,97.0,3.5,-36.2,0.1,2.09,-0.13,0.1,1.1,-0.15,-167.1,263.5,223.0,-0.01,-7.23,2.96,2.91,1.1146748404803977,2.0964255293236627,0.1330427863784338,0.2,0,5,2.5
6.0761881950002135,302,837.56,97.0,3.6,-36.3,-0.92,1.66,0.03,0.03,1.16,-0.1,-164.4,265.0,65.0,-0.08,-7.14,3.23,2.91,1.1646887996370532,1.8981306593593603,0.17939561062438758,0.2,0,5,2.5
6.085526905000734,303,837.57,96.8,3.6,-36.5,-2.21,0.93,0.06,-0.01,1.15,-0.09,-161.8,254.4,-82.0,-0.15,-6.66,2.97,2.91,1.1535597080342221,2.398457837861654,0.16490118864112535,0.2,0,5,2.5
6.096316582001236,304,837.58,96.5,3.5,-36.5,-3.49,0.15,-0.08,-0.05,1.05,-0.13,-159.5,226.3,-243.0,-0.21,-5.72,3.06,2.91,1.0591978096654089,3.494137948049562,0.0691285044668658,0.2,0,5,2.5
6.105485240999769,305,837.59,96.1,3.5,-36.5,-4.21,-0.43,-0.33,-0.05,0.93,-0.2,-157.4,189.4,-341.0,-0.26,-4.66,3.08,2.91,0.9525754563287887,4.244749698156535,0.03674397189235934,0.2,0,5,2.5
6.116403289001028,306,837.6,95.7,3.4,-36.4,-3.5,-0.64,-0.54,0.0,0.8,-0.33,-155.9,145.5,-404.0,-0.3,-3.44,3.17,2.91,0.8653900854527975,3.598777570231314,0.12145075591298349,0.2,0,5,2.5
6.125453390000985,307,837.61,95.5,3.4,-36.4,-1.35,-0.1,-0.58,0.09,0.76,-0.39,-154.7,102.0,-404.0,-0.32,-2.33,3.11,2.91,0.8589528508596965,1.4727185746095552,0.12533023069596272,0.2,0,5,2.5
6.137397717000567,308,837.62,95.5,3.3,-36.4,1.25,0.77,-0.76,0.18,0.79,-0.41,-154.0,60.9,-440.0,-0.34,-1.06,2.9,2.91,0.9080748867797193,1.6531787562148264,0.07468403088042119,0.2,0,5,2.5
6.145455678000872,309,837.63,95.7,3.2,-36.6,3.25,2.25,-0.97,0.27,1.01,-0.41,-153.6,18.9,-393.0,-0.34,-0.09,3.05,2.91,1.1229870880824944,4.070122848268833,0.13742360701390688,0.2,0,5,2.5
6.15621131700027,310,837.64,96.1,3.2,-36.9,4.1,3.72,-0.78,0.29,1.22,-0.4,-153.6,-2.3,-180.0,-0.34,0.01,2.93,2.91,1.3162446581088183,5.590778121156303,0.3240675534994262,0.2,0,5,2.5
6.165504317999876,311,837.65,96.5,3.2,-37.4,4.31,4.98,-0.21,0.24,1.34,-0.34,-153.6,1.2,-59.0,-0.34,0.01,3.09,2.91,1.4031393373432306,6.589430931423442,0.40274298807916176,0.2,0,5,2.5
6.17610597500061,312,837.66,96.9,3.2,-37.9,4.58,5.38,0.32,0.14,1.34,-0.2,-153.6,-0.3,-16.0,-0.34,0.0,2.81,2.91,1.3620572675185139,7.072708109345387,0.3544276998893561,0.2,0,5,2.5
6.189576308999676,313,837.67,97.3,3.4,-38.4,4.35,5.07,0.62,0.06,1.36,-0.07,-153.6,0.0,-6.0,-0.34,0.0,3.06,2.91,1.3631214179228497,6.70908339492065,0.34838201328781815,0.2,0,5,0.0
6.197557845000119,314,837.68,97.6,3.5,-38.9,3.15,4.65,0.88,0.0,1.44,0.0,-153.6,1.5,12.0,-0.34,-0.07,2.88,2.91,1.44,5.6850153913599915,0.41675538345766894,0.2,0,5,0.0
6.20532410800115,315,837.69,97.8,3.7,-39.3,1.13,4.26,1.33,-0.03,1.45,0.09,-153.6,7.6,24.0,-0.34,-0.07,0.44,0.0,1.4531001341958512,4.603629003297289,0.4212584073004497,0.2,0,5,0.0
6.2163343299998814,316,837.7,97.8,3.9,-39.7,-0.52,3.93,1.82,-0.03,1.31,0.17,-153.8,-39.6,-393.0,-0.33,1.72,0.04,0.0,1.321325092473461,4.362075194216625,0.2836936982664984,0.2,0,5,0.0
6.225565233000452,317,837.71,97.7,4.1,-40.0,-0.58,3.51,2.18,-0.01,1.11,0.26,-154.5,-76.9,-279.0,-0.31,2.25,0.0,0.0,1.1400877159236478,4.172397392387259,0.10040719528235154,0.2,0,5,0.0
6.236400144000072,318,837.72,97.6,4.4,-40.3,-0.19,3.2,2.29,0.0,1.01,0.27,-155.3,-81.4,-75.0,-0.29,2.12,-0.12,0.0,1.0454664030948102,3.939568504290794,0.005670164804443711,0.2,0,5,0.0
6.245668620000288,319,837.73,97.6,4.7,-40.6,0.99,2.79,2.29,0.02,0.86,0.3,-155.9,-69.9,81.0,-0.27,1.59,-0.2,0.0,0.9110433579144298,3.7427663565870635,0.12617782276841794,0.2,0,5,0.0
6.256083225000111,320,837.74,97.8,4.9,-40.8,2.64,2.32,2.04,0.05,0.81,0.26,-156.5,-43.2,209.0,-0.26,0.83,0.0,0.0,0.8521736912155878,4.063692901782811,0.1813465396779147,0.2,0,5,0.0
6.265298725000321,321,837.75,98.1,5.1,-41.0,3.92,1.97,1.69,0.08,0.84,0.22,-156.8,-14.0,283.0,-0.25,-0.04,-0.15,0.0,0.8720091742636655,4.7014253157952,0.15828083549724026,0.2,0,5,0.0
6.27589989199987,322,837.76,98.6,5.3,-41.2,4.76,1.54,1.39,0.12,0.92,0.17,-156.7,15.9,253.0,-0.26,-0.66,-0.04,0.0,0.9432391001225512,5.1924271781123705,0.08530989144558754,0.2,0,5,0.0
6.285975877000965,323,837.77,99.1,5.5,-41.3,5.08,0.98,1.08,0.15,0.99,0.08,-156.4,34.6,220.0,-0.27,-1.22,-0.22,0.0,1.0044899203078146,5.285186846271379,0.02357788983511755,0.2,0,5,0.0
6.296127158000672,324,837.78,99.6,5.6,-41.3,5.12,0.62,0.69,0.15,1.06,-0.01,-155.9,57.4,228.0,-0.29,-1.85,-0.22,0.0,1.07060730429042,5.20335468712253,0.04168870426453819,0.2,0,5,0.0
6.309568886999841,325,837.79,100.0,5.6,-41.4,4.0,0.33,0.39,0.13,1.17,-0.1,-155.2,80.7,231.0,-0.31,-2.48,-0.2,0.0,1.1814397995666135,4.032493025412443,0.14947077554991695,0.2,0,5,0.0
6.317551096999523,326,837.8,100.3,5.7,-41.4,2.02,0.04,0.28,0.13,1.22,-0.17,-154.2,104.1,227.0,-0.34,-3.08,-0.24,0.0,1.2386282735348808,2.039705861147631,0.20252606452782063,0.2,0,5,0.0
6.329282939999757,327,837.81,100.3,5.7,-41.4,-0.2,0.02,0.28,0.13,1.2,-0.18,-153.0,126.4,225.0,-0.37,-3.7,-0.15,0.0,1.2203687967167958,0.34467375879228174,0.18058125595554086,0.2,0,5,0.0
6.337602957000854,328,837.82,100.2,5.7,-41.4,-1.73,-0.01,0.23,0.12,1.09,-0.16,-151.6,149.5,225.0,-0.42,-4.33,-0.19,0.0,1.1081967334368028,1.7452506983238827,0.06704100882203701,0.2,0,5,0.0
6.349551792000057,329,837.83,100.0,5.7,-41.4,-2.18,0.18,0.06,0.11,0.98,-0.17,-149.9,172.5,235.0,-0.46,-4.99,-0.12,0.0,1.00069975517135,2.1882413029645518,0.03964685005454749,0.2,0,5,0.0
6.357339467000202,330,837.84,99.8,5.7,-41.4,-1.93,0.48,-0.18,0.1,0.89,-0.15,-148.0,197.4,248.0,-0.52,-5.69,-0.14,0.0,0.9080748867797193,1.996922632452244,0.12962628407725463,0.2,0,5,0.0
6.365461130000767,331,837.85,99.6,5.7,-41.5,-1.4,0.72,-0.44,0.1,0.85,-0.11,-145.9,223.3,252.0,-0.58,-6.37,0.15,0.0,0.862902080192185,1.6346253393362038,0.17130310885149314,0.2,0,5,0.0
6.3761302800012345,332,837.86,99.4,5.7,-41.6,-0.84,0.89,-0.73,0.12,0.82,-0.08,-143.4,248.2,241.0,-0.65,-7.02,0.0,0.0,0.8325863318599458,1.4249912280431762,0.19758648004005774,0.2,0,5,0.0
6.389526762000969,333,837.87,99.3,5.7,-41.7,-0.6,1.05,-0.94,0.12,0.82,-0.08,-140.8,269.9,220.0,-0.72,-7.59,-0.08,0.0,0.8325863318599458,1.531698403733581,0.1936347504392566,0.2,0,5,0.0
6.397464277000836,334,837.88,99.2,5.6,-41.8,-0.38,1.26,-1.16,0.09,0.82,-0.06,-138.0,292.5,237.0,-0.8,-8.27,0.09,0.0,0.8271033792700886,1.7543089807670713,0.19513534896853146,0.2,0,5,0.0
6.405431986000622,335,837.89,99.1,5.5,-42.0,-0.15,1.35,-1.37,0.05,0.83,-0.03,-134.8,319.3,257.0,-0.89,-9.0,0.01,0.0,0.8320456718233681,1.929222641376573,0.18638919528694686,0.2,0,5,0.0
6.416380593000213,336,837.9,99.1,5.4,-42.1,0.04,1.25,-1.53,0.01,0.88,0.0,-131.5,340.0,201.0,-0.98,-9.44,0.0,0.0,0.880056816347672,1.9761072845369505,0.1356104897473901,0.2,0,5,0.0
6.425440965000234,337,837.91,99.1,5.2,-42.3,0.21,0.94,-1.52,0.0,0.95,0.0,-128.0,360.5,232.0,-1.08,-10.14,-0.26,0.0,0.95,1.7994721448246984,0.06435395997316085,0.2,0,5,0.0
6.436288942999454,338,837.92,99.1,5.1,-42.4,0.19,0.57,-1.37,-0.03,1.0,-0.02,-124.2,386.3,226.0,-1.19,-10.72,0.0,0.0,1.000649788887201,1.4959612294441325,0.013430087664240586,0.2,0,5,0.0
6.44541173899961,339,837.93,99.1,5.0,-42.4,-0.08,0.23,-1.16,-0.05,1.01,-0.05,-120.2,400.6,154.0,-1.3,-11.03,-0.19,0.0,1.0124722218411721,1.1852847759083045,0.0015755016160641233,0.2,0,5,0.0
6.45624066200071,340,837.94,99.1,4.9,-42.5,-0.57,-0.04,-0.95,-0.06,1.01,-0.08,-116.1,413.3,143.0,-1.41,-11.4,-0.01,0.0,1.0149384217774002,1.1086027241532468,0.0008728843537606501,0.2,0,5,0.0
6.465315274999739,341,837.95,99.0,4.8,-42.5,-1.13,-0.24,-0.72,-0.04,0.98,-0.1,-111.9,425.5,134.0,-1.53,-11.75,0.08,0.0,0.985900603509299,1.3612126946219683,0.027601635236053745,0.2,0,5,0.0
6.4763667690003786,342,837.96,98.9,4.7,-42.4,-1.44,-0.34,-0.52,0.0,0.93,-0.12,-107.5,442.4,147.0,-1.65,-12.18,0.18,0.0,0.937709976485267,1.5683111936092275,0.07427641701488397,0.2,0,5,0.0
6.485416204001012,343,837.97,98.7,4.6,-42.4,-1.28,-0.27,-0.44,0.03,0.88,-0.13,-103.1,448.0,68.0,-1.77,-12.22,-0.01,0.0,0.8900561780022652,1.3801811475310044,0.11949161118792795,0.2,0,5,0.0
6.496564793000289,344,837.98,98.6,4.6,-42.4,-0.96,-0.11,-0.46,0.06,0.86,-0.15,-99.0,454.6,92.0,-1.89,-12.51,-0.18,0.0,0.8750428560933459,1.0701868995647443,0.13181483443491038,0.2,0,5,0.0
6.505435981000119,345,837.99,98.6,4.5,-42.4,-0.62,0.16,-0.49,0.09,0.89,-0.15,-94.0,448.5,-121.0,-2.02,-11.79,0.01,0.0,0.907028114227999,0.8062877898120497,0.09783298477425206,0.2,0,5,0.0
6.516113083000164,346,838.0,98.5,4.5,-42.4,-0.58,0.49,-0.36,0.06,0.95,-0.17,-90.8,419.4,-403.0,-2.13,-10.5,0.18,0.0,0.9669539802906858,0.8402975663418286,0.03714897633733394,0.2,0,5,0.0
6.5254315590009355,347,838.01,98.4,4.5,-42.5,-1.12,0.69,-0.05,0.03,0.99,-0.15,-86.1,336.5,-743.0,-2.21,-7.93,0.51,0.0,1.00174847142384,1.3164345787011218,0.0023073955000960655,0.2,0,5,0.0
6.536317510999652,348,838.02,98.3,4.5,-42.6,-1.52,0.71,0.22,0.02,1.0,-0.14,-83.5,233.8,-945.0,-2.27,-5.05,0.26,0.0,1.0099504938362078,1.6920106382644289,0.00577673437402626,0.2,0,5,0.0
6.545426762000716,349,838.03,98.1,4.5,-42.6,-1.95,0.44,0.39,0.02,1.04,-0.13,-81.9,128.2,-1009.0,-2.3,-2.22,0.57,0.0,1.0482843125793688,2.036713038206414,0.043228342054843605,0.2,0,5,0.0
6.556215910999526,350,838.04,97.9,4.5,-42.7,-2.53,0.0,0.44,0.02,1.06,-0.15,-81.3,28.9,-953.0,-2.31,0.25,0.1,0.0,1.0707474025184465,2.5679758565843254,0.06437760335404286,0.2,0,5,0.0
6.565313514000081,351,838.05,97.6,4.5,-42.6,-3.7,-0.1,0.38,0.02,1.06,-0.19,-81.5,-36.9,-661.0,-2.3,1.54,0.06,0.0,1.0770793842609745,3.720806364217305,0.06929539339463942,0.2,0,5,0.0
6.576351337000233,352,838.06,97.2,4.5,-42.6,-4.94,0.21,0.37,0.02,1.03,-0.2,-82.2,-80.4,-500.0,-2.27,2.67,0.26,0.0,1.0494284158531253,4.958285994171777,0.04081153648705449,0.2,0,5,0.0
6.5854358289998345,353,838.07,96.7,4.5,-42.7,-4.9,0.72,0.46,0.01,0.91,-0.12,-83.2,-119.0,-423.0,-2.24,3.7,0.19,0.0,0.9179324593890337,4.973932046178356,0.08887073157749636,0.2,0,5,0.0
6.596241777000614,354,838.08,96.2,4.5,-42.8,-3.42,0.96,0.57,0.01,0.8,-0.03,-84.7,-156.8,-386.0,-2.19,4.69,0.23,0.0,0.8006247560499239,3.5976242160625946,0.20205486621827407,0.2,0,6,0.0
6.6054881630007,355,838.09,96.0,4.6,-42.8,-1.56,0.87,0.67,0.03,0.78,0.0,-86.5,-192.8,-367.0,-2.14,5.67,0.18,0.0,0.7805767098754612,1.9077211536280663,0.217660854144882,0.2,0,6,0.0
6.616207590999693,356,838.1,95.8,4.7,-42.9,-0.27,0.58,0.73,0.06,0.8,0.0,-88.7,-224.3,-316.0,-2.08,6.43,0.02,0.0,0.8022468448052633,0.9706698717895801,0.19207090483077838,0.2,0,6,0.0
6.625434907000454,357,838.11,95.8,4.8,-43.0,0.42,0.28,0.55,0.1,0.82,-0.03,-91.1,-247.4,-229.0,-2.01,6.91,0.06,0.0,0.8266196223173026,0.7465252842335617,0.16434416477236435,0.2,0,6,0.0
6.636213453999517,358,838.12,95.9,4.8,-43.0,0.67,0.12,0.28,0.12,0.86,-0.1,-93.7,-263.4,-184.0,-1.94,7.35,0.1,0.0,0.8740709353364863,0.736002717386288,0.11455499471811703,0.2,0,6,0.0
6.645393578000949,359,838.13,96.0,4.9,-43.0,0.92,0.0,0.09,0.1,0.89,-0.13,-96.4,-280.1,-170.0,-1.86,7.79,0.32,0.0,0.9049861877399014,0.9243916918709298,0.08196694746840794,0.2,0,6,0.0
6.656363747000796,360,838.14,96.1,4.9,-43.0,1.28,-0.3,0.04,0.07,0.92,-0.16,-99.3,-291.4,-107.0,-1.78,7.98,-0.09,0.0,0.9364293886887575,1.3152946437965907,0.049513271589160746,0.2,0,6,0.0
6.665317340999536,361,838.15,96.3,4.9,-42.9,1.58,-0.58,0.09,0.06,0.95,-0.2,-102.2,-293.6,-35.0,-1.7,7.96,0.06,0.0,0.9726767191621274,1.6854969593564981,0.013000622293474984,0.2,0,6,0.0
6.6764119359995675,362,838.16,96.5,4.9,-42.8,1.68,-0.7,0.16,0.04,0.98,-0.24,-105.2,-292.6,-6.0,-1.62,7.93,-0.1,0.0,1.009752444909147,1.8270194306574845,0.02359360138447375,0.2,0,6,0.0
6.685315740000078,363,838.17,96.7,4.9,-42.8,1.48,-0.75,0.17,0.02,0.99,-0.25,-108.1,-289.7,34.0,-1.54,7.77,-0.23,0.0,1.0212737145349429,1.6678728968359668,0.03441257359006411,0.2,0,6,0.0
6.696338789000947,364,838.18,96.8,4.9,-42.7,1.05,-0.79,0.15,0.01,0.98,-0.27,-110.9,-278.4,101.0,-1.47,7.39,0.14,0.0,1.0165628362280414,1.322535443759448,0.029107661377499428,0.2,0,6,0.0
6.705391853000037,365,838.19,96.9,4.9,-42.6,0.76,-0.88,0.07,0.01,0.94,-0.27,-113.6,-263.1,133.0,-1.4,6.97,-0.09,0.0,0.9780593029055037,1.1648605066702191,0.009207954506137539,0.2,0,6,0.0
6.716214017000311,366,838.2,97.0,4.9,-42.5,0.63,-1.07,-0.05,0.01,0.88,-0.26,-116.1,-247.1,161.0,-1.33,6.48,-0.34,0.0,0.9176600677810929,1.2426986762687084,0.06821504583793736,0.2,0,6,0.0
6.725420138000118,367,838.21,97.0,4.9,-42.4,0.83,-1.37,-0.22,0.01,0.83,-0.27,-118.4,-226.3,199.0,-1.27,5.88,-0.1,0.0,0.8728688332160794,1.6168487869927726,0.1107461547948918,0.2,0,6,0.0
6.7375868529998115,368,838.22,97.2,4.8,-42.2,1.19,-1.62,-0.35,0.0,0.83,-0.3,-120.5,-203.4,220.0,-1.22,5.24,-0.08,0.0,0.8825531145489205,2.040343108401134,0.09904063599280977,0.2,0,6,0.0
6.7454197669994755,369,838.23,97.3,4.8,-42.1,1.52,-1.79,-0.33,0.0,0.83,-0.3,-122.4,-182.4,212.0,-1.17,4.69,0.04,0.0,0.8825531145489205,2.3713709115193264,0.0970598232729536,0.2,0,6,0.0
6.756355737999911,370,838.24,97.5,4.7,-41.9,1.92,-2.05,-0.2,-0.02,0.84,-0.29,-124.1,-159.6,227.0,-1.12,4.04,0.05,0.0,0.8888756943465154,2.8158302505655413,0.08892249860585155,0.2,0,6,0.0
6.765434856999491,371,838.25,97.7,4.7,-41.7,2.32,-2.4,0.06,-0.03,0.89,-0.25,-125.5,-136.2,223.0,-1.09,3.44,-0.21,0.0,0.9249324299644812,3.3385625649371913,0.05180844772812798,0.2,0,6,0.0
6.776262174000294,372,838.26,98.0,4.7,-41.4,2.67,-2.87,0.47,-0.04,0.93,-0.27,-126.7,-118.2,180.0,-1.06,3.02,-0.08,0.0,0.9692264957170744,3.9479994934143545,0.00736409433602403,0.2,0,6,0.0
6.785600089000582,373,838.27,98.3,4.7,-41.1,2.65,-3.31,0.89,-0.05,0.99,-0.23,-127.8,-104.0,148.0,-1.03,2.67,0.02,0.0,1.0175952043912155,4.332516589697033,0.0401845220513547,0.2,0,6,0.0
6.796322295000209,374,838.28,98.6,4.7,-40.7,2.29,-3.82,1.08,-0.04,1.01,-0.1,-128.8,-92.1,125.0,-1.0,2.37,0.01,0.0,1.0157263410978372,4.582892099973553,0.03754934558281686,0.2,0,6,0.0
6.805533332000778,375,838.29,98.8,4.8,-40.3,2.0,-4.42,0.89,0.03,1.02,0.01,-129.6,-83.9,96.0,-0.98,2.16,0.05,0.0,1.0204900783447137,4.932392928386789,0.04146682117309952,0.2,0,6,0.0
6.8165377599998465,376,838.3,99.1,4.8,-39.8,1.9,-4.88,0.23,0.16,1.03,0.07,-130.4,-74.5,100.0,-0.96,1.89,0.08,0.0,1.04470091413763,5.241879433943517,0.06436410382669544,0.2,0,6,0.0
6.825575873001071,377,838.31,99.3,4.6,-39.3,1.86,-5.07,-0.82,0.32,1.1,0.07,-131.1,-61.4,137.0,-0.95,1.44,0.08,0.0,1.1477369036499612,5.46231635846918,0.1640520914722461,0.2,0,6,0.0
6.836338123001042,378,838.32,99.5,4.4,-38.8,1.25,-4.76,-1.91,0.5,1.2,0.04,-131.6,-41.3,191.0,-0.94,0.83,-0.34,0.0,1.3006152390311287,5.27903400254251,0.3105918183163454,0.2,0,6,0.0
6.845593911000833,379,838.33,99.6,4.1,-38.4,-0.1,-3.72,-2.79,0.65,1.29,-0.02,-131.8,-14.5,269.0,-0.93,-0.03,-0.14,0.0,1.444645285182491,4.6510751445230385,0.4455294271783534,0.2,0,6,0.0
6.856539792999683,380,838.34,99.5,3.7,-38.2,-1.66,-1.71,-3.46,0.71,1.29,-0.07,-131.7,14.7,242.0,-0.94,-0.61,-0.16,0.0,1.474143819306651,4.201345022727841,0.46552740207646326,0.2,0,6,0.0
6.865641836000577,381,838.35,99.3,3.4,-38.2,-2.61,0.36,-3.65,0.62,1.2,-0.07,-131.5,29.7,166.0,-0.95,-0.95,0.01,0.0,1.3525161736556055,4.5015775012766355,0.33702176129690953,0.2,0,6,0.0
6.87647810999988,382,838.36,99.0,3.1,-38.5,-2.54,2.32,-3.42,0.38,1.05,-0.01,-131.1,42.5,138.0,-0.96,-1.29,-0.17,0.0,1.1166915420114905,4.850814364619615,0.09917318705973854,0.2,0,6,0.0
6.885577552000541,383,838.37,98.8,2.8,-38.8,-1.37,3.42,-2.83,0.11,0.98,0.09,-130.6,52.8,100.0,-0.97,-1.51,0.07,0.0,0.9902524930541705,4.645664645666969,0.026720544659629697,0.2,0,6,0.0
6.8963925349999045,384,838.38,98.7,2.6,-39.2,0.95,3.5,-2.1,-0.09,0.99,0.2,-130.1,57.5,58.0,-0.99,-1.56,0.0,0.0,1.0140019723846694,4.190763653560053,0.0029116440225482876,0.2,0,6,0.0
6.905428240001129,385,838.39,99.0,2.5,-39.5,3.93,2.59,-1.46,-0.27,1.03,0.28,-129.5,54.8,-26.0,-1.0,-1.37,0.01,0.0,1.1009995458672996,4.9279407463970175,0.08240421087088023,0.2,0,6,0.0
6.916290746999948,386,838.4,99.5,2.4,-39.7,6.2,1.17,-0.98,-0.37,1.19,0.21,-129.0,41.1,-124.0,-1.01,-0.87,-0.06,0.0,1.2637642185154634,6.385084181120872,0.24026550584866313,0.2,0,6,0.0
6.925587677000294,387,838.41,100.1,2.3,-39.8,6.41,-0.16,-0.48,-0.4,1.41,0.06,-128.7,22.3,-165.0,-1.02,-0.36,-0.01,0.0,1.4668674105044395,6.429937791300939,0.43450132388088636,0.2,0,6,0.0
6.936448514999938,388,838.42,100.7,2.3,-39.7,4.6,-1.47,0.17,-0.35,1.57,-0.05,-128.6,1.5,-188.0,-1.02,0.16,0.02,0.0,1.6093166251549134,4.8321630767183334,0.565411527760733,0.2,0,6,0.0
6.9456171760011784,389,838.43,101.0,2.3,-39.5,1.34,-2.65,0.89,-0.23,1.57,-0.09,-128.7,-9.6,-106.0,-1.02,0.31,-0.05,0.0,1.5893080255255747,3.100032257896682,0.5344948695687666,0.2,0,6,0.0
6.956374016999689,390,838.44,101.0,2.4,-39.1,-1.66,-3.74,1.28,-0.08,1.41,-0.08,-128.8,-12.6,-63.0,-1.01,0.42,0.2,0.0,1.4145317246354001,4.287376820387963,0.35252419730502016,0.2,0,6,0.0
6.965519794999636,391,838.45,100.7,2.4,-38.7,-3.11,-4.54,1.27,0.04,1.22,-0.11,-129.0,-24.4,-122.0,-1.01,0.86,-0.07,0.0,1.2256018929489298,5.647707499508097,0.16032247830617896,0.2,0,6,0.0
6.976352215000588,392,838.46,100.4,2.5,-38.2,-3.76,-4.71,1.11,0.14,1.06,-0.2,-129.4,-41.7,-160.0,-0.99,1.36,0.15,0.0,1.087749971270972,6.1281155341589315,0.022021145495656702,0.2,0,6,0.0
6.985593601000801,393,838.47,100.0,2.5,-37.7,-3.98,-4.42,0.89,0.21,0.94,-0.23,-129.9,-61.9,-198.0,-0.98,1.97,-0.02,0.0,0.9902524930541705,6.014058529811628,0.07396680606672179,0.2,0,6,0.0
6.996332803000769,394,838.48,99.6,2.5,-37.3,-3.73,-3.94,0.61,0.25,0.84,-0.24,-130.7,-87.4,-257.0,-0.95,2.76,0.3,0.0,0.9086803618434812,5.459725267813391,0.15242815853186287,0.2,0,6,0.0
7.005617135000648,395,838.49,99.3,2.5,-36.9,-3.22,-3.32,0.36,0.27,0.8,-0.21,-131.8,-118.2,-288.0,-0.92,3.58,0.19,0.0,0.8700574693662483,4.639008514758299,0.18723002998891392,0.2,0,6,0.0
7.016468967000037,396,838.5,99.0,2.5,-36.6,-3.03,-2.68,0.21,0.26,0.79,-0.15,-133.2,-149.0,-310.0,-0.88,4.46,0.04,0.0,0.8451035439518639,4.050604893099301,0.20794027629523226,0.2,0,6,0.0
7.02552647199991,397,838.51,98.7,2.4,-36.4,-2.77,-2.08,0.12,0.25,0.78,-0.14,-134.7,-177.5,-305.0,-0.83,5.24,0.06,0.0,0.8309632964216891,3.4660784757417136,0.21763891334889895,0.2,0,6,0.0
7.036404915001185,398,838.52,98.5,2.4,-36.2,-2.25,-1.43,0.12,0.25,0.78,-0.15,-136.9,-206.8,-265.0,-0.77,5.91,0.06,0.0,0.8327064308626421,2.66867008077057,0.211577863329787,0.2,0,6,0.0
7.04559741400044,399,838.53,98.3,2.4,-36.1,-1.69,-0.63,0.24,0.26,0.8,-0.18,-139.1,-228.2,-216.0,-0.71,6.41,0.08,0.0,0.8602325267042628,1.8195054273071019,0.18037073213840293,0.2,0,6,0.0
7.056362887000432,400,838.54,98.1,2.5,-36.1,-1.31,0.29,0.43,0.24,0.8,-0.19,-141.5,-244.7,-170.0,-0.64,6.81,0.04,0.0,0.8565628990331067,1.4089357685856372,0.1803595526133679,0.2,0,6,0.0
7.065413714999522,401,838.55,98.0,2.5,-36.2,-0.73,1.05,0.62,0.22,0.81,-0.15,-144.1,-255.5,-118.0,-0.57,7.04,-0.09,0.0,0.8526429498916883,1.4211966788590522,0.18059391171969041,0.2,0,6,0.0
7.076264811999863,402,838.56,98.0,2.6,-36.3,-0.17,1.73,0.77,0.19,0.82,-0.15,-146.6,-258.4,-29.0,-0.5,6.97,0.0,0.0,0.8549853799919621,1.9012364397938517,0.17468645198702826,0.2,0,6,0.0
7.085579773000063,403,838.57,98.0,2.7,-36.5,0.3,2.08,0.77,0.15,0.83,-0.08,-149.2,-254.9,9.0,-0.43,6.9,0.12,0.0,0.8472307831990052,2.2381465546295223,0.17879222780438553,0.2,0,6,0.0
7.096360907000417,404,838.58,98.0,2.8,-36.7,0.36,2.05,0.69,0.11,0.87,-0.05,-151.7,-252.3,26.0,-0.36,6.79,-0.07,0.0,0.8783507272155013,2.192760816869911,0.1447188381121316,0.2,0,6,0.0
7.1055516289998195,405,838.59,98.0,2.9,-36.9,0.01,1.85,0.52,0.07,0.89,-0.04,-154.2,-246.0,61.0,-0.29,6.57,-0.07,0.0,0.8936442245099557,1.92171798139061,0.12683683400132362,0.2,0,6,0.0
7.116433152001264,406,838.6,97.9,3.0,-37.0,-0.6,1.56,0.33,0.05,0.89,-0.05,-156.6,-236.2,89.0,-0.23,6.28,0.1,0.0,0.8928045698807774,1.7036725037400822,0.12512295885789193,0.2,0,6,0.0
7.1253771589999815,407,838.61,97.8,3.0,-37.2,-1.15,1.21,0.12,0.02,0.88,-0.05,-158.9,-225.8,97.0,-0.17,6.01,0.0,0.0,0.8816461875378353,1.6736188335460378,0.13355571437681724,0.2,0,6,0.0
7.136145100001158,408,838.62,97.6,3.0,-37.3,-1.38,0.93,-0.03,0.02,0.87,-0.09,-161.1,-214.1,114.0,-0.11,5.68,-0.16,0.0,0.8748714191239761,1.6643917808016235,0.13752387313486292,0.2,0,6,0.0
7.145071810000445,409,838.63,97.4,3.0,-37.4,-1.37,0.69,-0.09,0.01,0.88,-0.09,-163.1,-199.7,143.0,-0.06,5.22,0.02,0.0,0.8846468221838588,1.5365871273702643,0.12519350067348056,0.2,0,6,0.0
7.1563809489998675,410,838.64,97.3,3.0,-37.4,-1.31,0.47,-0.03,0.01,0.89,-0.1,-165.0,-181.6,174.0,-0.01,4.69,-0.03,0.0,0.8956561840349231,1.3920847675339316,0.11190045604596799,0.2,0,6,0.0
7.165321012000277,411,838.65,97.2,3.0,-37.5,-1.22,0.24,0.07,0.02,0.9,-0.1,-166.7,-161.4,201.0,0.02,4.11,0.0,0.0,0.9057593499379402,1.2453513560437472,0.09976134434009198,0.2,0,6,0.0
7.176246463999632,412,838.66,97.0,3.0,-37.5,-1.16,0.08,0.09,0.04,0.89,-0.13,-168.2,-140.9,196.0,0.06,3.6,0.03,0.0,0.9003332716277901,1.1662332528272377,0.10308367419723719,0.2,0,6,0.0
7.185355854000591,413,838.67,97.0,3.0,-37.5,-1.14,0.0,0.04,0.06,0.89,-0.16,-169.4,-120.4,211.0,0.09,2.99,-0.25,0.0,0.9062560344626678,1.1407015385279358,0.0952176931351123,0.2,0,6,0.0
7.196264632000748,414,838.68,96.9,3.0,-37.5,-1.2,0.02,-0.06,0.09,0.86,-0.18,-170.5,-100.4,192.0,0.12,2.5,-0.18,0.0,0.8832326986700616,1.2016655108639842,0.11587620834916412,0.2,0,6,0.0
7.205303470000217,415,838.69,96.7,3.0,-37.5,-1.25,0.14,-0.2,0.13,0.81,-0.23,-171.4,-82.1,178.0,0.14,2.04,-0.06,0.0,0.8519976525789259,1.2736168968728392,0.14416902935149378,0.2,0,6,0.0
7.21640436800044,416,838.7,96.6,3.0,-37.5,-0.72,0.42,-0.17,0.16,0.84,-0.3,-172.1,-65.1,177.0,0.16,1.54,-0.1,0.0,0.9062008607367352,0.8507055894961547,0.0881665047698108,0.2,0,6,0.0
7.2253976659994805,417,838.71,96.6,3.0,-37.6,-0.12,0.77,-0.01,0.19,0.82,-0.31,-172.6,-50.2,143.0,0.17,1.24,0.07,0.0,0.8969949832635631,0.7793587107359485,0.09542493459812329,0.2,0,6,0.0
7.23645913800101,418,838.72,96.6,3.0,-37.7,0.6,1.05,0.02,0.22,0.81,-0.29,-173.1,-42.1,89.0,0.18,1.07,-0.02,0.0,0.888031530971733,1.2095040305844376,0.10230061915215427,0.2,0,6,0.0
7.245423194000978,419,838.73,96.7,3.0,-37.8,1.04,1.37,-0.11,0.24,0.86,-0.3,-173.4,-36.7,59.0,0.19,0.96,0.1,0.0,0.9419129471453292,1.7235428628264515,0.04745081891898695,0.2,0,6,0.0
7.2562254590011435,420,838.74,96.8,3.0,-38.0,0.89,1.79,-0.33,0.24,0.9,-0.32,-173.8,-35.5,25.0,0.2,0.94,-0.12,0.0,0.9848857801796105,2.0261046369820095,0.004388426167011628,0.2,0,6,0.0
7.265488742001253,421,838.75,96.9,3.0,-38.2,0.77,2.32,-0.51,0.22,0.96,-0.33,-174.1,-35.3,4.0,0.21,0.96,0.0,0.0,1.0387011119662866,2.49707829272532,0.04843836750727115,0.2,0,6,0.0
7.276331778000895,422,838.76,96.9,3.0,-38.4,0.76,2.82,-0.54,0.18,1.04,-0.31,-174.5,-35.1,0.0,0.22,0.96,0.05,0.0,1.10004545360635,2.9701178427799797,0.10758705496438792,0.2,0,6,0.0
7.285576055999627,423,838.77,97.0,2.9,-38.7,0.85,2.99,-0.46,0.13,1.07,-0.25,-174.9,-36.2,-9.0,0.23,1.02,0.13,0.0,1.106480908104609,3.142323980750553,0.11174205927339398,0.2,0,6,0.0
7.2964909479997,424,838.78,97.1,2.9,-39.0,0.78,2.94,-0.51,0.07,1.05,-0.24,-175.2,-40.2,-33.0,0.24,1.15,-0.03,0.0,1.0793516572461452,3.0841692560558345,0.08292055224663164,0.2,0,6,0.0
7.305592122000235,425,838.79,97.2,2.9,-39.3,0.15,2.75,-0.65,0.04,1.04,-0.25,-175.7,-42.6,-19.0,0.25,1.16,-0.02,0.0,1.0703737664946764,2.8297526393662045,0.07246380826525955,0.2,0,6,0.0
7.31639658200038,426,838.8,97.2,2.9,-39.6,-0.66,2.57,-0.73,0.01,1.02,-0.26,-176.1,-42.9,-7.0,0.27,1.17,0.05,0.0,1.0526632889960588,2.751981104586294,0.05365826415130903,0.2,0,6,0.0
7.325541342001088,427,838.81,97.1,2.8,-39.9,-0.65,2.48,-0.75,0.01,0.99,-0.26,-176.5,-42.5,0.0,0.28,1.15,0.0,0.0,1.0236210236215355,2.671216951129204,0.024123678801250104,0.2,0,6,0.0
7.33639578400107,428,838.82,97.1,2.8,-40.1,0.17,2.39,-0.62,0.0,1.01,-0.21,-176.9,-41.4,18.0,0.29,1.08,0.02,0.0,1.0316006979447039,2.4749545450371406,0.031461286061930105,0.2,0,6,0.0
7.3455795440004295,429,838.83,97.1,2.8,-40.3,1.31,2.28,-0.5,0.01,1.06,-0.25,-177.3,-36.3,44.0,0.3,0.91,-0.22,0.0,1.089128091640281,2.676658364453708,0.0872089061623571,0.2,0,6,0.0
7.356407303999731,430,838.84,97.4,2.7,-40.6,2.32,2.33,-0.3,0.01,1.21,-0.23,-177.7,-31.8,37.0,0.31,0.82,0.15,0.0,1.2317061337835418,3.3017116772970954,0.22519120933950543,0.2,1,7,2.5
7.365568524999617,431,838.85,97.7,2.7,-40.8,2.65,2.2,0.0,0.0,1.32,-0.21,-177.9,-25.9,56.0,0.31,0.63,-0.22,0.0,1.336600164596728,3.444198019858905,0.3234835353496379,0.2,0,7,2.5
7.37644614599958,432,838.86,97.9,2.7,-41.0,2.08,1.92,0.17,-0.01,1.36,-0.16,-178.1,-9.0,334.0,0.31,-0.79,2.34,2.91,1.3694159338929865,2.8357891317938293,0.3491733185529784,0.2,0,7,2.5
7.385454031000336,433,838.87,98.0,2.7,-41.2,0.69,1.4,0.24,-0.01,1.34,-0.11,-177.5,94.4,846.0,0.28,-3.87,2.47,2.91,1.3445445325462448,1.579145338466349,0.31781587886211193,0.2,0,7,2.5
7.3963086910007405,434,838.88,97.9,2.8,-41.3,-1.09,0.78,0.32,0.03,1.31,-0.05,-176.1,190.8,957.0,0.23,-6.62,2.45,2.91,1.3112970677920393,1.3780058055030102,0.2788770458257481,0.2,0,7,2.5
7.405580251999709,435,838.89,97.7,2.8,-41.3,-1.64,0.58,0.36,0.04,1.21,0.0,-173.2,293.1,918.0,0.14,-9.05,2.56,2.91,1.2106609764917675,1.7764008556629327,0.17467613543496685,0.2,0,7,2.5
7.41643996700077,436,838.9,97.4,2.9,-41.4,-2.0,0.69,0.72,0.05,1.17,0.0,-169.7,373.6,782.0,0.04,-10.94,2.63,2.91,1.171067888723792,2.2348378017207424,0.1323813867136514,0.2,0,7,2.5
7.425541456001156,437,838.91,97.2,3.0,-41.5,-1.75,0.86,1.29,0.03,1.09,0.06,-165.5,435.3,680.0,-0.07,-12.64,2.94,2.91,1.0920622692868756,2.3379905902291394,0.05230825193120037,0.2,0,7,2.5
7.436443169000995,438,838.92,97.1,3.1,-41.5,-0.99,0.87,1.83,0.01,1.01,0.11,-160.7,493.1,545.0,-0.21,-13.88,2.82,2.91,1.0160216533125659,2.255194004958332,0.023257716762247194,0.2,0,7,2.5
7.445533600000999,439,838.93,97.0,3.3,-41.6,-0.63,0.63,2.24,0.0,0.95,0.18,-155.6,526.4,390.0,-0.35,-14.68,2.77,2.91,0.966902270139025,2.410684550081159,0.07092955793707245,0.2,0,7,2.5
7.456443107999803,440,838.94,96.9,3.6,-41.6,-0.73,0.31,2.33,0.01,0.9,0.17,-150.1,561.9,370.0,-0.51,-15.7,2.97,2.91,0.9159694318043589,2.46128015471624,0.11942514834630369,0.2,0,7,2.5
7.465569893000065,441,838.95,96.9,3.8,-41.6,-1.13,0.2,2.21,0.1,0.88,0.12,-144.1,609.2,472.0,-0.68,-17.19,2.89,2.91,0.8937561188601731,2.490180716333656,0.13880569206467952,0.2,0,7,2.5
7.476343872000143,442,838.96,96.7,4.0,-41.6,-1.27,0.58,2.06,0.22,0.89,0.05,-137.7,653.8,483.0,-0.85,-18.5,2.8,2.91,0.9181503144910423,2.4885537968868583,0.11212326650513416,0.2,0,7,2.5
7.4856565879999835,443,838.97,96.6,4.2,-41.7,-0.83,1.45,1.99,0.32,0.91,0.02,-130.8,703.9,435.0,-1.05,-19.59,2.77,2.91,0.9648315915225828,2.598364870452185,0.06413314968412187,0.2,0,7,2.5
7.496436643999914,444,838.98,96.6,4.5,-41.8,0.21,2.29,1.9,0.36,0.92,0.04,-123.4,755.9,458.0,-1.26,-20.91,2.76,2.91,0.988736567544662,2.98298508209478,0.039423610188801916,0.2,0,7,2.5
7.505595517999609,445,838.99,96.6,4.7,-42.1,1.34,2.91,1.75,0.34,0.98,0.05,-115.7,780.0,285.0,-1.47,-21.44,3.46,2.91,1.0385085459446155,3.6505068141286907,0.010141400846928494,0.2,0,7,2.5
7.516335922000508,446,839.0,96.8,4.9,-42.4,1.57,3.09,1.6,0.27,1.07,0.06,-110.5,794.2,362.0,-1.69,-22.16,2.45,2.91,1.1051696702316798,3.8174598884598643,0.07526647463131297,0.2,0,7,2.5
7.525585248000425,447,839.01,96.9,5.1,-42.7,0.81,2.95,1.34,0.16,1.12,0.06,-99.6,822.4,305.0,-1.91,-22.78,2.81,2.91,1.1329607230614838,3.339790412585796,0.10099637691189467,0.2,0,7,2.5
7.53640707500017,448,839.02,96.9,5.2,-42.9,-0.26,2.49,0.98,0.08,1.13,0.07,-91.2,843.5,272.0,-2.14,-23.44,3.1,2.91,1.1349889867307081,2.6885125999332793,0.10096414776949669,0.2,0,7,2.5
7.545553242000096,449,839.03,96.8,5.3,-43.1,-1.3,2.05,0.67,0.04,1.09,0.02,-82.6,861.8,107.0,-2.38,-23.36,3.24,2.91,1.0909170454255448,2.518213652571997,0.055754362335046714,0.2,0,7,0.0
7.5563949560000765,450,839.04,96.6,5.4,-43.3,-1.55,2.03,0.41,0.02,1.0,0.0,-74.0,862.0,100.0,-2.61,-23.68,3.18,2.91,1.000199980003999,2.5867933817759776,0.0342634490247693,0.2,0,7,0.0
7.565580892000071,451,839.05,96.4,5.4,-43.5,-0.94,2.06,0.2,0.01,0.95,0.02,-65.4,845.4,-412.0,-2.84,-21.59,0.69,0.0,0.9502631214563679,2.273147597495596,0.08251630142095223,0.2,0,7,0.0
7.57638411500011,452,839.06,96.4,5.5,-43.7,-0.2,1.78,0.01,0.04,0.94,0.03,-57.9,707.4,-1190.0,-3.02,-17.17,0.55,0.0,0.9413288479590965,1.7912286286233816,0.08962156341985905,0.2,0,7,0.0
7.585564610000802,453,839.07,96.3,5.5,-43.9,0.13,1.61,-0.24,0.08,0.97,-0.02,-51.8,561.4,-1287.0,-3.17,-13.61,0.38,0.0,0.973498844375277,1.6329727493133497,0.0563025356636051,0.2,0,7,0.0
7.596429344999706,454,839.08,96.3,5.5,-44.1,-0.8,1.52,-0.23,0.13,1.01,-0.06,-47.2,422.8,-1357.0,-3.28,-9.84,0.47,0.0,1.0200980345045274,1.7330031736843416,0.009509278623667683,0.2,0,7,0.0
7.605533370000558,455,839.09,96.1,5.5,-44.2,-1.13,1.53,-0.3,0.15,0.94,-0.08,-43.8,295.6,-1244.0,-3.36,-6.65,0.44,0.0,0.9552486587271399,1.9255648521927273,0.07287148131303411,0.2,0,7,0.0
7.616344555000978,456,839.1,96.0,5.5,-44.4,-0.84,1.75,-0.45,0.16,0.89,-0.08,-41.6,188.3,-1084.0,-3.4,-3.96,0.37,0.0,0.9077995373429092,1.992636444512646,0.11791419064331954,0.2,0,7,0.0
7.6255629639999825,457,839.11,95.9,5.5,-44.6,-0.36,1.96,-0.62,0.13,0.85,-0.05,-40.4,99.2,-918.0,-3.43,-1.72,0.35,0.0,0.8613361713059541,2.087007426915391,0.1610900055466692,0.2,0,7,0.0
7.636338756999976,458,839.12,95.8,5.5,-44.8,0.3,1.97,-0.78,0.07,0.85,0.0,-39.9,25.9,-741.0,-3.43,0.0,0.21,0.0,0.8528774824088158,2.1399299053940997,0.16615772055493128,0.2,0,7,0.0
7.645539692999591,459,839.13,95.9,5.4,-45.0,1.12,1.68,-0.89,0.01,0.87,0.03,-40.0,-14.5,-418.0,-3.43,0.58,-0.08,0.0,0.8705745229444749,2.206558406206371,0.14549146641888677,0.2,0,7,0.0
7.6564437979996,460,839.14,96.0,5.3,-45.1,1.54,1.17,-0.84,-0.03,0.91,0.03,-40.2,-24.7,-173.0,-3.42,0.67,-0.01,0.0,0.9109884741312593,2.1085777196963833,0.10297596492746042,0.2,0,7,0.0
7.665610670001115,461,839.15,96.2,5.3,-45.2,1.77,0.62,-0.76,-0.09,0.93,0.02,-40.4,-21.9,-35.0,-3.41,0.54,-0.04,0.0,0.9345587193964862,2.023585926023405,0.07781760526898895,0.2,0,7,0.0
7.676336626000193,462,839.16,96.3,5.2,-45.3,1.63,0.03,-0.7,-0.13,0.94,0.0,-40.6,-17.7,15.0,-3.41,0.43,-0.12,0.0,0.9489467845985885,1.7742040468897595,0.06216094926554894,0.2,0,7,0.0
7.685585258001083,463,839.17,96.5,5.1,-45.2,1.05,-0.55,-0.6,-0.16,0.94,-0.03,-40.8,-12.7,44.0,-3.41,0.26,0.06,0.0,0.9539916142189091,1.3285330255586423,0.055973797252323765,0.2,0,7,0.0
7.6964982120007335,464,839.18,96.5,5.1,-45.2,0.22,-1.14,-0.45,-0.16,0.94,-0.06,-40.9,-12.3,-9.0,-3.4,0.4,0.03,0.0,0.9554056729996949,1.2451907484397722,0.053468543702107185,0.2,0,7,0.0
7.705518767001195,465,839.19,96.5,5.0,-45.0,-0.48,-1.68,-0.27,-0.13,0.91,-0.08,-41.0,-16.0,-28.0,-3.4,0.49,0.03,0.0,0.9227133899537819,1.7679649317789083,0.08443761021305984,0.2,0,7,0.0
7.716427430001204,466,839.2,96.5,5.0,-44.8,-0.94,-2.14,-0.1,-0.09,0.91,-0.1,-41.3,-24.0,-79.0,-3.39,0.8,0.0,0.0,0.9198912979260104,2.339487123281511,0.0855145081960148,0.2,0,7,0.0
7.7255267620003,467,839.21,96.4,5.0,-44.6,-1.21,-2.42,0.01,-0.02,0.89,-0.12,-41.6,-36.8,-114.0,-3.38,1.17,0.01,0.0,0.8982761268117949,2.705660732612276,0.10498708572402582,0.2,0,7,0.0
7.736432784000499,468,839.22,96.3,4.9,-44.4,-1.3,-2.47,0.06,0.03,0.89,-0.16,-42.1,-54.4,-168.0,-3.37,1.73,0.38,0.0,0.9047651629014017,2.7918631771632363,0.09652808864173057,0.2,0,7,0.0
7.745559512000909,469,839.23,96.2,4.9,-44.1,-1.44,-2.3,0.09,0.08,0.91,-0.18,-42.8,-79.2,-240.0,-3.34,2.51,0.11,0.0,0.931074647920348,2.7150874755705385,0.06881423155032862,0.2,0,7,0.0
7.7564034950009955,470,839.24,96.1,4.9,-43.9,-1.69,-1.99,0.14,0.11,0.93,-0.19,-43.8,-108.9,-282.0,-3.31,3.34,0.11,0.0,0.9555626614722867,2.614536287757353,0.04343969363842204,0.2,0,7,0.0
7.765462884999579,471,839.25,96.0,4.9,-43.7,-2.07,-1.6,0.24,0.12,0.93,-0.19,-45.1,-141.3,-322.0,-3.27,4.27,0.06,0.0,0.9567653839891994,2.62726093108393,0.04139223169907913,0.2,0,7,0.0
7.776339034000557,472,839.26,95.8,4.9,-43.6,-2.24,-1.26,0.41,0.13,0.91,-0.17,-46.8,-179.3,-360.0,-3.22,5.31,0.38,0.0,0.934826187052973,2.602556435507211,0.0620648000625994,0.2,0,7,0.0
7.7855923650004115,473,839.27,95.6,5.0,-43.4,-1.98,-0.98,0.56,0.13,0.87,-0.15,-48.8,-218.4,-391.0,-3.16,6.44,0.0,0.0,0.8923564310296643,2.2791226382097123,0.10244386496419,0.2,0,7,0.0
7.796317784001076,474,839.28,95.5,5.1,-43.3,-1.57,-0.78,0.63,0.12,0.85,-0.13,-51.3,-260.0,-404.0,-3.09,7.56,0.08,0.0,0.8682165628459295,1.86284728305892,0.12405205848496637,0.2,0,7,0.0
7.805628598000112,475,839.29,95.4,5.1,-43.3,-1.13,-0.62,0.61,0.09,0.84,-0.11,-54.2,-298.4,-376.0,-3.01,8.53,0.02,0.0,0.8519389649499546,1.4259733517846678,0.13752306325332253,0.2,0,7,0.0
7.816470047000621,476,839.3,95.3,5.2,-43.2,-0.77,-0.63,0.54,0.08,0.85,-0.09,-57.4,-333.3,-373.0,-2.91,9.55,0.1,0.0,0.85848704125339,1.1319893992436503,0.1283554872108893,0.2,0,7,0.0
7.825570484999844,477,839.31,95.3,5.2,-43.1,-0.26,-0.67,0.44,0.07,0.85,-0.09,-61.0,-373.3,-380.0,-2.81,10.58,0.09,0.0,0.8576129663198895,0.8426743143112884,0.12664497090150206,0.2,0,7,0.0
7.836405526000817,478,839.32,95.3,5.3,-43.0,0.25,-0.8,0.3,0.06,0.86,-0.11,-64.9,-402.7,-299.0,-2.7,11.26,0.05,0.0,0.8690799733051038,0.8902246907382428,0.11287440463796206,0.2,0,7,0.0
7.845589264999944,479,839.33,95.4,5.3,-43.0,0.57,-0.8,0.2,0.07,0.9,-0.14,-69.2,-431.1,-298.0,-2.58,12.07,0.11,0.0,0.9135097153287425,1.0024470060806208,0.06707576936203685,0.2,0,7,0.0
7.856412025001191,480,839.34,95.5,5.3,-42.9,0.69,-0.77,0.17,0.06,0.93,-0.15,-73.6,-451.4,-185.0,-2.46,12.38,-0.18,0.0,0.9439279633531364,1.047807234180028,0.03592437091089007,0.2,0,7,0.0
7.865571754000484,481,839.35,95.6,5.3,-42.8,0.94,-0.76,0.21,0.05,0.97,-0.14,-78.2,-463.1,-148.0,-2.33,12.74,-0.15,0.0,0.9813256340277675,1.226906679417795,0.0014438337684661295,0.2,0,7,0.0
7.87647662100062,482,839.36,95.8,5.3,-42.7,1.27,-0.86,0.29,0.05,1.0,-0.13,-82.9,-472.4,-98.0,-2.2,12.93,0.07,0.0,1.0096534058774822,1.5609612423119288,0.02917617350581725,0.2,0,7,0.0
7.885609307000777,483,839.37,96.0,5.3,-42.6,1.55,-0.95,0.37,0.03,1.01,-0.15,-87.7,-481.1,-85.0,-2.07,13.13,0.01,0.0,1.021518477561713,1.8552358340653083,0.04022042028624706,0.2,0,7,0.0
7.896441951999805,484,839.38,96.1,5.2,-42.5,1.58,-1.21,0.42,0.02,1.0,-0.15,-92.5,-475.1,56.0,-1.94,12.74,0.01,0.0,1.0113851887386922,2.0339370688396436,0.02948538883396179,0.2,0,7,0.0
7.9055941450005776,485,839.39,96.3,5.2,-42.3,1.51,-1.59,0.4,0.02,0.99,-0.16,-97.2,-468.7,35.0,-1.82,12.7,-0.1,0.0,1.0030453628824572,2.2289459392277777,0.020722651718172225,0.2,0,7,0.0
7.916500105000523,486,839.4,96.5,5.2,-42.2,1.3,-2.05,0.35,0.02,0.97,-0.2,-101.8,-457.5,126.0,-1.69,12.19,-0.16,0.0,0.9906058752097122,2.4525496936861444,0.008117500764518781,0.2,0,7,0.0
7.9255764320005255,487,839.41,96.7,5.2,-41.9,1.47,-2.4,0.25,0.05,0.95,-0.25,-106.3,-442.4,126.0,-1.57,11.87,-0.03,0.0,0.9836157786453,2.825491107754544,0.0011048561161044468,0.2,0,7,0.0
7.936482369001169,488,839.42,96.9,5.2,-41.7,1.92,-2.65,0.09,0.07,0.93,-0.3,-110.6,-422.3,213.0,-1.46,11.13,-0.09,0.0,0.9796938297243686,3.2736829412757738,0.002760750948730517,0.2,0,7,0.0
7.9455589480003255,489,839.43,97.1,5.2,-41.4,2.46,-2.7,-0.05,0.08,0.93,-0.35,-114.6,-396.2,233.0,-1.35,10.47,-0.12,0.0,0.9968951800465282,3.6529577057502323,0.014151787385960568,0.2,0,7,0.0
7.956380081999669,490,839.44,97.4,5.1,-41.1,2.75,-2.58,-0.16,0.09,0.98,-0.37,-118.4,-370.7,257.0,-1.25,9.74,-0.33,0.0,1.0513800454640558,3.774188654532256,0.06726391974741841,0.2,0,7,0.0
7.965521747000821,491,839.45,97.7,5.1,-40.9,2.65,-2.34,-0.18,0.08,1.0,-0.38,-121.9,-344.2,251.0,-1.16,9.06,-0.04,0.0,1.0727534665523109,3.5398446293587518,0.08686459401895996,0.2,0,7,0.0
7.976306583999758,492,839.46,98.0,5.0,-40.7,2.61,-2.15,-0.22,0.07,1.0,-0.39,-125.2,-318.4,273.0,-1.08,8.27,-0.14,0.0,1.0756393447619885,3.3886575513025803,0.08795546278406485,0.2,0,7,0.0
7.985616662001121,493,839.47,98.3,5.0,-40.5,2.65,-2.02,-0.17,0.07,1.03,-0.36,-128.1,-283.7,339.0,-1.0,7.24,-0.07,0.0,1.0933434958877286,3.336435223408361,0.10354642163160888,0.2,0,7,0.0
7.996323896999456,494,839.48,98.6,5.0,-40.3,2.49,-2.04,0.13,0.08,1.09,-0.25,-130.7,-246.9,341.0,-0.93,6.31,-0.22,0.0,1.121160113453917,3.22158346159152,0.12873577841384143,0.2,0,7,0.0
8.00561304599978,495,839.49,98.8,5.0,-40.1,2.43,-2.27,0.48,0.08,1.08,-0.13,-133.0,-213.7,341.0,-0.88,5.39,-0.2,0.0,1.0907336980216573,3.3597916602075193,0.09634317572195006,0.2,0,7,0.0
8.016484939000293,496,839.5,99.1,5.0,-39.8,2.77,-2.79,0.39,0.1,1.04,-0.04,-134.9,-178.5,350.0,-0.83,4.41,-0.11,0.0,1.0455620498086187,3.9508353547066477,0.050148096958733124,0.2,0,7,0.0
8.025548314000844,497,839.51,99.4,4.9,-39.5,3.04,-3.19,-0.11,0.16,1.07,0.0,-136.4,-141.4,364.0,-0.79,3.39,0.04,0.0,1.0818964830333815,4.407924681752173,0.08475287957982602,0.2,0,7,0.0
8.037640468999598,498,839.52,99.7,4.8,-39.2,2.71,-3.4,-0.69,0.23,1.15,0.0,-137.5,-104.1,372.0,-0.77,2.37,-0.34,0.0,1.1727744881263404,4.402294856094944,0.1721182669793293,0.2,0,7,0.0
8.045599416000186,499,839.53,99.9,4.7,-38.8,1.29,-3.4,-1.08,0.3,1.19,0.06,-138.3,-65.6,383.0,-0.75,1.3,-0.11,0.0,1.2286984984120393,3.7934812507774436,0.22348143171972756,0.2,0,8,0.0
8.056333808999625,500,839.54,100.0,4.5,-38.5,0.1,-3.22,-1.57,0.36,1.14,0.1,-138.7,-25.0,404.0,-0.74,0.16,-0.18,0.0,1.1996666203575057,3.583755013948359,0.19056056259189003,0.2,0,8,0.0
8.065656681999826,501,839.55,100.0,4.2,-38.3,-0.26,-2.62,-2.23,0.38,1.1,0.05,-138.7,13.0,353.0,-0.75,-0.7,0.08,0.0,1.1648605066702193,3.450347808554958,0.15263935992651168,0.2,0,8,0.0
8.076440356000603,502,839.56,100.0,4.0,-38.1,-0.97,-1.66,-2.67,0.32,1.11,0.03,-138.4,39.8,285.0,-0.76,-1.37,-0.26,0.0,1.1555950847939775,3.290197562457306,0.14050645928926442,0.2,0,8,0.0
8.08550601600109,503,839.57,99.8,3.7,-38.1,-1.68,-0.83,-2.68,0.22,1.05,0.04,-137.8,63.2,250.0,-0.78,-2.0,0.01,0.0,1.0735455276791945,3.2701223218711557,0.05728776413099168,0.2,0,8,0.0
8.096397964000062,504,839.58,99.7,3.4,-38.0,-1.11,-0.3,-2.43,0.09,0.99,0.08,-137.0,84.4,205.0,-0.8,-2.48,-0.13,0.0,0.9972963451251589,2.6883080180663823,0.01858219005458306,0.2,0,8,0.0
8.105566178001027,505,839.59,99.7,3.2,-38.1,0.61,-0.34,-2.08,-0.01,0.98,0.12,-136.1,99.2,157.0,-0.83,-2.84,-0.3,0.0,0.9873702446397703,2.1941057403871858,0.02793812472917212,0.2,0,8,0.0
8.116350444001,506,839.6,99.8,3.0,-38.0,2.57,-0.92,-1.73,-0.1,1.06,0.12,-135.0,108.9,101.0,-0.86,-3.02,-0.05,0.0,1.07144761887831,3.2317487526105735,0.055016464519180186,0.2,0,8,0.0
8.125339301001077,507,839.61,100.2,2.8,-37.9,3.21,-1.56,-1.51,-0.13,1.21,0.1,-133.9,109.2,4.0,-0.89,-2.86,0.27,0.0,1.2210651088291729,3.8752806349992257,0.20054127538064215,0.2,0,8,0.0
8.136152807001054,508,839.62,100.5,2.6,-37.8,2.57,-2.33,-1.21,-0.12,1.36,0.04,-132.9,96.3,-111.0,-0.92,-2.38,0.17,0.0,1.36586968631711,3.673948829257152,0.33843893581120765,0.2,0,8,0.0
8.145059290000063,509,839.63,100.6,2.5,-37.5,0.93,-3.0,-0.78,-0.1,1.43,-0.05,-132.1,71.9,-235.0,-0.93,-1.53,0.18,0.0,1.4343639705458302,3.2362478273457365,0.39879455563912924,0.2,0,8,0.0
8.156242633000147,510,839.64,100.6,2.4,-37.2,-1.0,-3.46,-0.35,-0.06,1.4,-0.1,-131.6,33.7,-359.0,-0.94,-0.35,0.11,0.0,1.4048487463068755,3.618577068406862,0.36189374477217107,0.2,0,8,0.0
8.165496472000086,511,839.65,100.5,2.3,-36.8,-2.69,-3.74,-0.01,0.0,1.29,-0.09,-131.6,-8.0,-349.0,-0.94,0.54,-0.06,0.0,1.2931357237351384,4.606929563168944,0.24517710775642532,0.2,0,8,0.0
8.176231442001153,512,839.66,100.1,2.2,-36.5,-3.21,-3.86,0.2,0.05,1.2,-0.11,-131.8,-29.2,-227.0,-0.93,0.97,0.05,0.0,1.2060679914499015,5.024310898023728,0.15494718796176454,0.2,0,8,0.0
8.18635877700035,513,839.67,99.7,2.2,-36.1,-3.63,-3.74,0.42,0.09,1.1,-0.12,-132.2,-48.0,-215.0,-0.92,1.56,0.13,0.0,1.110180165558726,5.228852646613787,0.05787817482917723,0.2,0,8,0.0
8.196490903001177,514,839.68,99.4,2.2,-35.7,-3.86,-3.4,0.63,0.12,1.0,-0.12,-132.9,-69.3,-219.0,-0.9,2.16,0.2,0.0,1.0142977866484773,5.182325732718853,0.03724411999944999,0.2,0,8,0.0
8.205629055000827,515,839.69,99.0,2.3,-35.4,-3.82,-2.89,0.82,0.13,0.91,-0.09,-133.7,-94.9,-256.0,-0.87,2.92,0.26,0.0,0.9236341266973628,4.859722214283446,0.12534962435155317,0.2,0,8,0.0
8.216490284999963,516,839.7,98.6,2.3,-35.1,-3.16,-2.45,1.01,0.15,0.84,-0.06,-134.9,-125.0,-290.0,-0.83,3.76,0.22,0.0,0.8553946457629951,4.124099901796755,0.1897173231802025,0.2,0,8,0.0
8.22561163499995,517,839.71,98.4,2.4,-34.9,-2.29,-2.08,1.16,0.18,0.8,-0.05,-136.3,-154.1,-281.0,-0.79,4.51,-0.05,0.0,0.8215229759416349,3.3039521788306803,0.21911721314153132,0.2,0,8,0.0
8.236492022000675,518,839.72,98.2,2.5,-34.7,-1.62,-1.69,1.23,0.22,0.78,-0.07,-138.1,-180.6,-267.0,-0.74,5.23,-0.01,0.0,0.8134494452638099,2.6445037341626123,0.2226469289429691,0.2,0,8,0.0
8.245585234999453,519,839.73,98.0,2.6,-34.5,-1.35,-1.32,1.26,0.24,0.79,-0.09,-140.0,-205.2,-250.0,-0.68,5.88,0.05,0.0,0.8305419917138447,2.2699118925632336,0.20144329484307566,0.2,0,8,0.0
8.256445891000112,520,839.74,97.9,2.7,-34.4,-1.14,-0.81,1.23,0.26,0.79,-0.12,-142.2,-227.3,-214.0,-0.62,6.38,0.1,0.0,0.8402975663418287,1.8624177834202507,0.18785396581078972,0.2,0,8,0.0
8.26564384700032,521,839.75,97.8,2.8,-34.3,-0.87,-0.22,1.22,0.27,0.8,-0.14,-144.6,-242.1,-151.0,-0.55,6.69,0.04,0.0,0.8558621384311845,1.5144966160411188,0.1688436058470052,0.2,0,8,0.0
8.276302268999643,522,839.76,97.8,3.0,-34.3,-0.51,0.46,1.23,0.26,0.82,-0.15,-147.1,-247.8,-74.0,-0.49,6.77,-0.04,0.0,0.8732124598286489,1.4087583185202492,0.14846341876054991,0.2,0,8,0.0
8.28537774600045,523,839.77,97.7,3.1,-34.4,-0.37,0.97,1.16,0.23,0.81,-0.15,-149.6,-248.7,-24.0,-0.42,6.75,-0.05,0.0,0.8552777326693359,1.5567273364337122,0.16307018300146559,0.2,0,8,0.0
8.296936140999605,524,839.78,97.7,3.2,-34.5,-0.44,1.34,0.97,0.2,0.81,-0.14,-152.1,-247.4,15.0,-0.35,6.66,-0.18,0.0,0.8459905436823748,1.7117534869250304,0.16891022454865812,0.2,0,8,0.0
8.309345263000068,525,839.79,97.6,3.3,-34.6,-0.77,1.62,0.78,0.16,0.83,-0.13,-154.5,-242.0,42.0,-0.29,6.5,-0.1,0.0,0.855219270129012,1.955939671871298,0.1564878681399806,0.2,0,8,0.0
8.317528868999943,526,839.8,97.5,3.4,-34.8,-1.09,1.81,0.67,0.14,0.83,-0.12,-156.9,-232.9,82.0,-0.22,6.21,-0.16,0.0,0.850235261559999,2.216551375447905,0.15824243917481373,0.2,0,8,0.0
8.329561472999558,527,839.81,97.4,3.6,-35.0,-1.13,1.9,0.56,0.11,0.83,-0.12,-159.1,-223.0,92.0,-0.16,5.94,-0.1,0.0,0.84581321815162,2.2804604798154253,0.15941119293152872,0.2,0,8,0.0
8.33741703800115,528,839.82,97.3,3.7,-35.2,-1.21,1.82,0.45,0.08,0.84,-0.08,-161.3,-211.2,118.0,-0.11,5.56,-0.13,0.0,0.8475848040166836,2.231367293835777,0.15448681492513594,0.2,0,8,0.0
8.345401946000493,529,839.83,97.1,3.8,-35.3,-1.11,1.6,0.32,0.06,0.83,-0.09,-163.3,-195.9,150.0,-0.05,5.11,0.05,0.0,0.8370185183136631,1.973448757885545,0.16175203861559329,0.2,0,8,0.0
8.35665000500012,530,839.84,97.0,3.8,-35.5,-1.02,1.47,0.19,0.04,0.85,-0.09,-165.1,-178.2,168.0,-0.01,4.63,0.09,0.0,0.8556868586112562,1.799277632829353,0.14022202435164022,0.2,0,8,0.0
8.365605236000192,531,839.85,96.9,3.8,-35.6,-1.0,1.31,0.07,0.03,0.84,-0.13,-166.8,-162.1,164.0,0.03,4.2,-0.1,0.0,0.8505292469985967,1.649545391918634,0.14247204324501372,0.2,0,8,0.0
8.376399619999574,532,839.86,96.8,3.8,-35.7,-0.83,1.17,-0.05,0.02,0.83,-0.15,-168.3,-144.9,164.0,0.07,3.75,-0.17,0.0,0.843682404699778,1.4353745155881792,0.14633250783295582,0.2,0,8,0.0
8.389554848999978,533,839.87,96.8,3.8,-35.8,-0.63,1.15,-0.2,0.05,0.81,-0.22,-169.6,-129.7,154.0,0.1,3.35,-0.12,0.0,0.8408329203831163,1.3264237633576985,0.14619835230662515,0.2,0,8,0.0
8.401523675000135,534,839.88,96.7,3.8,-36.0,-0.52,1.31,-0.32,0.09,0.76,-0.29,-170.8,-114.1,161.0,0.13,2.89,-0.21,0.0,0.8184130986244049,1.4453027364535087,0.16524581058402976,0.2,0,8,0.0
8.409515413000918,535,839.89,96.7,3.8,-36.1,0.07,1.61,-0.41,0.13,0.78,-0.34,-171.9,-97.7,159.0,0.16,2.47,0.1,0.0,0.8607554821202129,1.6628589837986865,0.12044535854645733,0.2,0,8,0.0
8.417500732999542,536,839.9,96.7,3.8,-36.3,0.93,1.99,-0.38,0.16,0.83,-0.34,-172.7,-82.7,149.0,0.18,2.07,-0.08,0.0,0.9110982383914481,2.2292151085079253,0.06870055022971766,0.2,0,8,0.0
8.425442638001186,537,839.91,96.8,3.7,-36.5,1.22,2.39,-0.35,0.18,0.87,-0.33,-173.5,-69.8,127.0,0.2,1.77,-0.24,0.0,0.9477341399358788,2.7061042108536766,0.03142335571158117,0.2,0,8,0.0
8.436265743999684,538,839.92,96.9,3.7,-36.8,1.03,2.75,-0.38,0.18,0.92,-0.31,-174.1,-61.0,92.0,0.21,1.57,0.01,0.0,0.9873702446397704,2.9610471120872086,0.008048494012464213,0.2,0,8,0.0
8.44543959800103,539,839.93,97.0,3.7,-37.1,0.67,2.89,-0.45,0.17,0.94,-0.29,-174.7,-53.4,82.0,0.23,1.35,0.15,0.0,0.9982985525382675,3.0005832766313953,0.01859726587274202,0.2,0,8,0.0
8.456408301999545,540,839.94,97.0,3.7,-37.4,0.71,2.91,-0.52,0.13,0.98,-0.26,-175.1,-47.3,64.0,0.24,1.21,-0.3,0.0,1.0222035022440492,3.0401644692351764,0.04165217126695331,0.2,0,8,0.0
8.465402620000532,541,839.95,97.1,3.7,-37.7,0.75,2.8,-0.58,0.09,1.03,-0.21,-175.6,-42.6,49.0,0.25,1.11,-0.08,0.0,1.055035544424926,2.9561630536896977,0.0729945291788735,0.2,0,8,0.0
8.476285142000052,542,839.96,97.2,3.7,-37.9,0.5,2.54,-0.72,0.03,1.04,-0.18,-176.0,-39.8,30.0,0.26,1.06,-0.03,0.0,1.0558882516630252,2.6870057685088806,0.07237029168863329,0.2,0,8,0.0
8.485312443001021,543,839.97,97.2,3.6,-38.2,-0.01,2.2,-0.88,-0.01,1.03,-0.19,-176.4,-40.3,5.0,0.27,1.09,0.31,0.0,1.0474254150057654,2.3694936167881946,0.0626293059307459,0.2,0,8,0.0
8.496343310000157,544,839.98,97.2,3.5,-38.4,-0.65,1.82,-1.04,-0.05,0.98,-0.2,-176.8,-43.1,-22.0,0.29,1.2,0.01,0.0,1.0014489502715553,2.1946525920974373,0.016319784372605173,0.2,0,8,0.0
8.505403896000644,545,839.99,97.1,3.4,-38.6,-0.52,1.41,-1.19,-0.08,0.95,-0.22,-177.3,-44.4,-11.0,0.3,1.21,-0.2,0.0,0.978417088975862,1.9169246203228754,0.006577835384626418,0.2,0,8,0.0
8.516183482999622,546,840.0,97.1,3.3,-38.7,0.05,1.01,-1.29,-0.06,0.93,-0.28,-177.6,-44.7,-8.0,0.31,1.22,-0.1,0.0,0.9730878685915266,1.6391156152022957,0.011668914653582552,0.2,0,8,0.0
8.524987699000121,547,840.01,97.1,3.2,-38.8,0.72,1.04,-1.22,-0.03,1.0,-0.27,-178.1,-44.5,0.0,0.32,1.2,0.09,0.0,1.036243214694311,1.7573844200970943,0.05045670282021786,0.2,0,8,0.0
8.53621606300112,548,840.02,97.2,3.1,-38.9,1.32,1.14,-1.21,0.0,1.06,-0.3,-178.6,-43.6,4.0,0.33,1.17,-0.14,0.0,1.101635148313633,2.1227576404290716,0.11353166371074908,0.2,0,8,0.0
8.545437012000548,549,840.03,97.4,3.0,-39.1,1.97,1.65,-1.11,0.05,1.23,-0.32,-179.0,-43.0,7.0,0.35,1.14,-0.02,0.0,1.2719276708995682,2.799196313229924,0.2781477025707505,0.2,1,9,2.5
8.556309605999559,550,840.04,97.6,2.9,-39.3,2.21,2.19,-0.77,0.08,1.36,-0.3,-179.4,-40.1,30.0,0.36,1.02,-0.01,0.0,1.3949910393977447,3.205167702320738,0.3931868496475486,0.2,0,9,2.5
8.56547326100008,551,840.05,97.9,2.9,-39.5,1.92,2.49,-0.42,0.12,1.42,-0.22,-179.7,-16.3,440.0,0.36,-0.88,2.49,2.91,1.4419431334140747,3.1722074333183197,0.4313361647906009,0.2,0,9,2.5
8.576209164999455,552,840.06,98.0,3.0,-39.8,0.73,2.52,-0.1,0.15,1.41,-0.14,-179.1,102.3,940.0,0.33,-4.14,2.52,2.91,1.424850869389495,2.625509474368737,0.40595902275070084,0.2,0,9,2.5
8.585435418000998,553,840.07,97.9,3.0,-40.0,-0.66,2.43,0.14,0.16,1.32,-0.02,-177.3,203.8,933.0,0.27,-6.66,2.56,2.91,1.3298120167903433,2.521923868795408,0.3047017667485181,0.2,0,9,2.5
8.596409331999894,554,840.08,97.8,3.1,-40.3,-0.99,2.6,0.26,0.12,1.2,0.06,-174.7,291.2,870.0,0.18,-8.91,2.39,2.91,1.2074767078498865,2.7942261898421896,0.1787191286519001,0.2,0,9,2.5
8.605304935999811,555,840.09,97.7,3.1,-40.6,-1.34,2.86,0.64,0.06,1.15,0.13,-171.2,368.0,769.0,0.08,-10.83,2.39,2.91,1.1588787684654507,3.2225455776451013,0.12751876548211505,0.2,0,9,2.5
8.616407515000901,556,840.1,97.5,3.3,-40.8,-1.22,3.06,1.04,0.0,1.05,0.23,-167.1,428.5,640.0,-0.03,-12.35,2.57,2.91,1.0748953437428221,3.4545043059750267,0.04266463394429687,0.2,0,9,2.5
8.62544279299982,557,840.11,97.4,3.4,-41.1,-0.81,3.0,1.37,-0.01,1.0,0.29,-162.4,496.3,692.0,-0.17,-14.32,2.6,2.91,1.0412492496996097,3.3960270905868817,0.008838169103062787,0.2,0,9,2.5
8.636236911001106,558,840.12,97.4,3.6,-41.4,-0.51,2.75,1.75,0.01,0.98,0.3,-157.0,556.5,600.0,-0.32,-15.82,2.72,2.91,1.0249390225764652,3.299257492224576,0.007322616859680053,0.2,0,9,2.5
8.645434301000932,559,840.13,97.3,3.8,-41.6,-0.06,2.44,2.08,0.07,0.95,0.25,-151.0,615.7,602.0,-0.49,-17.45,2.57,2.91,0.9848350115628506,3.2068052638100744,0.046478095315828805,0.2,0,9,2.5
8.656344033001005,560,840.14,97.3,4.1,-41.8,0.52,2.28,2.25,0.15,0.94,0.21,-144.4,682.6,671.0,-0.68,-19.41,2.83,2.91,0.9747820269167872,3.2451964501398063,0.05540045836265428,0.2,0,9,2.5
8.665476543001205,561,840.15,97.4,4.3,-42.0,0.94,2.25,2.25,0.21,0.97,0.15,-137.2,740.6,608.0,-0.88,-20.9,2.56,2.91,1.0037429949942367,3.3179210358295146,0.025910700479500726,0.2,0,9,2.5
8.676357262000238,562,840.16,97.5,4.6,-42.2,1.21,2.31,2.14,0.26,1.02,0.12,-129.4,789.3,486.0,-1.1,-22.02,2.88,2.91,1.0594338110519221,3.3733959150980186,0.02918451326662108,0.2,0,9,2.5
8.685421359999964,563,840.17,97.6,4.8,-42.4,1.32,2.26,1.95,0.27,1.07,0.09,-121.2,832.7,355.0,-1.32,-22.79,3.35,2.91,1.1072036849649662,3.2638167840735175,0.07541529943607195,0.2,0,9,2.5
8.69632930700027,564,840.18,97.7,5.0,-42.6,1.02,2.17,1.68,0.23,1.12,0.04,-112.7,852.2,294.0,-1.56,-23.58,2.58,2.91,1.144071676076285,2.927746573732091,0.11003762473644296,0.2,0,9,2.5
8.705665851999584,565,840.19,97.7,5.2,-42.8,0.42,2.05,1.35,0.15,1.13,0.02,-104.0,889.1,295.0,-1.8,-24.42,3.39,2.91,1.1400877159236475,2.4902610304945947,0.1039325912921294,0.2,0,9,2.5
8.716430909000337,566,840.2,97.7,5.4,-43.0,-0.18,1.8,0.99,0.08,1.11,0.02,-94.9,916.8,235.0,-2.05,-25.04,2.76,2.91,1.113058848399311,2.062159062730128,0.07536564929243683,0.2,0,9,2.5
8.725268440000946,567,840.21,97.7,5.5,-43.1,-0.43,1.43,0.68,0.04,1.08,0.01,-85.5,943.0,204.0,-2.31,-25.65,2.83,2.91,1.0807867504739315,1.6407924914503966,0.04223168033971625,0.2,0,9,2.5
8.736327661999894,568,840.22,97.6,5.5,-43.3,-0.39,1.24,0.43,0.04,1.03,-0.01,-76.1,939.6,18.0,-2.56,-25.46,2.62,2.91,1.030824912388132,1.3691603266235843,0.0075755545911615485,0.2,0,9,0.0
8.745447833000071,569,840.23,97.6,5.6,-43.4,-0.21,1.21,0.19,0.03,1.01,-0.05,-66.7,937.8,-28.0,-2.82,-25.38,2.96,2.91,1.0116817681464858,1.2426986762687084,0.02618432485615152,0.2,0,9,0.0
8.756235071999981,570,840.24,97.5,5.6,-43.5,-0.2,1.26,0.01,0.04,1.02,-0.07,-57.4,920.1,-355.0,-3.07,-23.86,0.71,0.0,1.0231813133555558,1.2758134659894447,0.014391084054139913,0.2,0,9,0.0
8.765411763000884,571,840.25,97.4,5.5,-43.6,-0.27,1.15,-0.17,0.09,1.0,-0.05,-49.0,799.6,-1119.0,-3.28,-19.65,0.54,0.0,1.0052860289489753,1.1934404048799419,0.031640641091505994,0.2,0,9,0.0
8.776365024999905,572,840.26,97.4,5.5,-43.8,-0.52,1.16,-0.45,0.11,1.01,-0.08,-42.1,636.2,-1404.0,-3.44,-15.45,0.25,0.0,1.0191172650877818,1.3485177047410242,0.017453216853645648,0.2,0,9,0.0
8.785422830000243,573,840.27,97.2,5.5,-43.9,-1.46,1.16,-0.5,0.13,1.01,-0.08,-36.7,492.4,-1371.0,-3.57,-11.81,0.51,0.0,1.0214695296483394,1.9305957629705914,0.014798933247226254,0.2,0,9,0.0
8.796333211001183,574,840.28,97.0,5.5,-44.0,-1.86,1.17,-0.57,0.14,0.92,-0.07,-32.7,366.0,-1286.0,-3.67,-8.44,0.32,0.0,0.9332202312423366,2.2701101294871138,0.10098726702016458,0.2,0,9,0.0
8.80573579600059,575,840.29,96.8,5.5,-44.1,-1.63,1.32,-0.7,0.15,0.83,-0.05,-29.9,248.9,-1168.0,-3.73,-5.47,0.27,0.0,0.8449260322655469,2.2111761576138615,0.1854958366770153,0.2,0,9,0.0
8.816290321999986,576,840.3,96.6,5.4,-44.3,-0.96,1.41,-0.86,0.12,0.79,0.0,-28.1,153.3,-958.0,-3.77,-3.21,0.35,0.0,0.7990619500389191,1.9103141102970473,0.22673272052557025,0.2,0,9,0.0
8.825666755999919,577,840.31,96.6,5.3,-44.4,-0.17,1.3,-1.03,0.07,0.78,0.03,-27.1,79.2,-790.0,-3.79,-1.32,0.21,0.0,0.783709129715866,1.667273222960172,0.23724383003165084,0.2,0,9,0.0
8.836562811000476,578,840.32,96.6,5.2,-44.6,0.57,1.12,-1.15,0.01,0.79,0.04,-26.7,18.8,-616.0,-3.79,0.05,0.21,0.0,0.7910752176626443,1.7034670528073033,0.2252801872431751,0.2,0,9,0.0
8.84569652600112,579,840.33,96.7,5.1,-44.7,1.02,0.74,-1.22,-0.04,0.84,0.05,-26.8,-13.4,-326.0,-3.79,0.46,0.06,0.0,0.8424369412602939,1.7539669324134934,0.17044009437261498,0.2,0,9,0.0
8.856400328000746,580,840.34,96.8,5.0,-44.7,1.12,0.3,-1.15,-0.08,0.87,0.02,-26.9,-19.0,-128.0,-3.78,0.51,0.13,0.0,0.8738993077008357,1.6330646037435261,0.13619817337343165,0.2,0,9,0.0
8.865271269000004,581,840.35,96.9,4.9,-44.8,1.04,-0.15,-0.99,-0.12,0.88,0.01,-27.1,-17.8,-26.0,-3.78,0.43,0.08,0.0,0.8882004278314664,1.4436758638974332,0.11945911217794491,0.2,0,9,0.0
8.876068083000064,582,840.36,97.0,4.8,-44.7,0.99,-0.65,-0.81,-0.13,0.88,-0.03,-27.3,-13.9,1.0,-3.77,0.39,0.11,0.0,0.8900561780022652,1.4348170615099334,0.11525129476700313,0.2,0,9,0.0
8.885870621001231,583,840.37,97.1,4.7,-44.6,0.72,-0.99,-0.6,-0.12,0.9,-0.08,-27.4,-15.8,-13.0,-3.77,0.45,-0.12,0.0,0.9114823092084673,1.3632681321002116,0.09194866028958504,0.2,0,9,0.0
8.896219255000688,584,840.38,97.1,4.7,-44.5,0.31,-1.25,-0.37,-0.1,0.91,-0.11,-27.6,-18.4,-17.0,-3.76,0.51,-0.08,0.0,0.922062904578641,1.3399626860476377,0.07974070362102315,0.2,0,9,0.0
8.905188046999683,585,840.39,97.2,4.6,-44.4,-0.14,-1.41,-0.12,-0.06,0.93,-0.14,-27.8,-24.8,-81.0,-3.76,0.85,0.28,0.0,0.9423905772024677,1.4220056258679148,0.05822477037725249,0.2,0,9,0.0
8.916190347001248,586,840.4,97.1,4.6,-44.3,-0.57,-1.52,0.09,-0.02,0.94,-0.14,-28.2,-40.6,-135.0,-3.74,1.3,-0.09,0.0,0.9505787710652915,1.6258536219475603,0.04903584498414004,0.2,0,9,0.0
8.925395244001265,587,840.41,97.1,4.6,-44.1,-1.1,-1.59,0.31,0.01,0.95,-0.15,-28.7,-58.0,-174.0,-3.73,1.84,0.1,0.0,0.9618211892030659,1.9581113349347632,0.037037558309438334,0.2,0,9,0.0
8.936377988000459,588,840.42,97.0,4.6,-43.9,-1.59,-1.55,0.55,0.06,0.94,-0.17,-29.5,-84.4,-265.0,-3.7,2.71,0.17,0.0,0.9571311299921239,2.287596992479226,0.04089306516997271,0.2,0,9,0.0
8.945409100000688,589,840.43,96.9,4.6,-43.8,-1.82,-1.48,0.74,0.08,0.9,-0.18,-30.6,-121.1,-347.0,-3.67,3.79,0.1,0.0,0.9213034245024817,2.4597560854686384,0.07518635524642259,0.2,0,9,0.0
8.95638735400098,590,840.44,96.7,4.7,-43.6,-1.84,-1.37,0.82,0.11,0.89,-0.17,-32.1,-161.7,-393.0,-3.62,4.91,0.0,0.0,0.9127431182978045,2.436165019041198,0.08207172822207776,0.2,0,9,0.0
8.965409460999581,591,840.45,96.6,4.8,-43.5,-1.85,-1.2,0.87,0.12,0.88,-0.16,-34.0,-208.1,-452.0,-3.57,6.25,0.11,0.0,0.9024411338142782,2.370527367485978,0.09052623845149199,0.2,0,9,0.0
8.976322129999971,592,840.46,96.5,4.9,-43.4,-1.68,-1.0,0.87,0.12,0.86,-0.16,-36.4,-255.9,-457.0,-3.49,7.49,0.22,0.0,0.8829496021857646,2.1399299053940997,0.10781741467840544,0.2,0,9,0.0
8.98566694100009,593,840.47,96.4,5.0,-43.3,-1.41,-0.81,0.89,0.11,0.86,-0.16,-39.3,-302.0,-468.0,-3.41,8.8,0.15,0.0,0.8816461875378353,1.8537259775921575,0.10693841273980798,0.2,0,9,0.0
8.99649878800119,594,840.48,96.3,5.1,-43.2,-0.95,-0.69,0.9,0.09,0.85,-0.14,-42.6,-348.2,-450.0,-3.31,9.97,-0.03,0.0,0.8661408661412991,1.479391766909631,0.11999485945361721,0.2,0,9,0.0
9.005663399000696,595,840.49,96.3,5.2,-43.1,-0.38,-0.67,0.83,0.08,0.85,-0.14,-46.4,-388.7,-415.0,-3.21,11.06,0.11,0.0,0.8651589449343975,1.1323427043081966,0.11855724504730847,0.2,0,9,0.0
9.016217076999965,596,840.5,96.3,5.3,-43.0,-0.05,-0.66,0.74,0.06,0.9,-0.12,-50.6,-429.4,-399.0,-3.09,12.12,0.32,0.0,0.9099450532861861,0.9928242543370907,0.07229571396160939,0.2,0,9,0.0
9.02545439000096,597,840.51,96.3,5.3,-42.9,0.0,-0.73,0.61,0.07,0.91,-0.13,-55.1,-455.9,-258.0,-2.96,12.58,0.1,0.0,0.9219002115196634,0.9513148795220223,0.05913374461356946,0.2,0,9,0.0
9.036148672001218,598,840.52,96.4,5.3,-42.8,0.18,-0.68,0.4,0.09,0.91,-0.16,-59.8,-476.8,-255.0,-2.83,13.29,0.09,0.0,0.9283318372220141,0.8091971329657563,0.051648076532994414,0.2,0,9,0.0
9.045344534000833,599,840.53,96.4,5.4,-42.8,0.33,-0.66,0.25,0.09,0.92,-0.16,-64.7,-493.0,-143.0,-2.7,13.47,0.16,0.0,0.9381364506296512,0.7791020472312983,0.041006593862850105,0.2,0,9,0.0
9.056420095001158,600,840.54,96.5,5.4,-42.7,0.57,-0.72,0.14,0.09,0.93,-0.17,-69.7,-503.8,-130.0,-2.56,13.81,-0.02,0.0,0.9496841580230767,0.9289241088485107,0.028869708740036137,0.2,0,9,0.0
9.065520580999873,601,840.55,96.7,5.4,-42.6,1.03,-0.73,-0.01,0.11,0.95,-0.19,-74.7,-503.3,7.0,-2.42,13.55,-0.14,0.0,0.9750384607798812,1.2624975247500487,0.0034450978635669482,0.2,0,9,0.0
9.07644093700037,602,840.56,96.8,5.4,-42.5,1.26,-0.73,-0.12,0.12,0.99,-0.19,-79.7,-496.9,42.0,-2.29,13.42,-0.04,0.0,1.0151847122568385,1.4611296999240007,0.03596713054112255,0.2,0,9,0.0
9.08543721299975,603,840.57,97.0,5.4,-42.5,1.21,-0.66,-0.16,0.12,1.01,-0.22,-84.6,-489.0,50.0,-2.16,13.26,0.0,0.0,1.0406248123122954,1.3875518008348373,0.06017908598464794,0.2,0,9,0.0
9.096599442000297,604,840.58,97.2,5.4,-42.4,1.16,-0.71,-0.1,0.1,1.01,-0.22,-89.5,-482.6,103.0,-2.03,12.87,-0.03,0.0,1.0385085459446157,1.3637081799270692,0.056901563224628915,0.2,0,9,0.0
9.10540849300014,605,840.59,97.4,5.3,-42.3,1.3,-0.92,0.0,0.07,1.0,-0.24,-94.1,-459.0,178.0,-1.9,12.26,-0.06,0.0,1.0307764064044151,1.5926079241294766,0.04818603521073972,0.2,0,9,0.0
9.11640033399999,606,840.6,97.5,5.3,-42.2,1.46,-1.25,0.08,0.05,0.98,-0.25,-98.6,-443.4,178.0,-1.78,11.77,-0.09,0.0,1.0126203632161461,1.9236683705878204,0.02942939218202123,0.2,0,9,0.0
9.125308668000798,607,840.61,97.7,5.3,-42.1,1.78,-1.67,0.02,0.02,0.95,-0.27,-102.9,-419.5,214.0,-1.67,11.15,-0.24,0.0,0.9878258955909184,2.440840019337605,0.004542226065657573,0.2,0,9,0.0
9.136328020000292,608,840.62,97.9,5.3,-41.9,2.26,-2.06,-0.19,0.01,0.96,-0.3,-106.9,-399.7,208.0,-1.56,10.58,-0.06,0.0,1.005832988124768,3.0638701016851217,0.022098332227517115,0.2,0,9,0.0
9.145738492999953,609,840.63,98.2,5.2,-41.7,2.38,-2.3,-0.43,0.0,1.01,-0.33,-110.8,-373.1,261.0,-1.46,9.79,0.0,0.0,1.0625441167311596,3.3375589882427548,0.07723327161723048,0.2,0,9,0.0
9.156393895000292,610,840.64,98.4,5.1,-41.4,2.06,-2.38,-0.57,0.0,1.04,-0.35,-114.3,-346.8,246.0,-1.37,9.15,-0.08,0.0,1.0973149046650192,3.198890432634416,0.10976397836006835,0.2,0,9,0.0
9.165680240001166,611,840.65,98.6,5.0,-41.2,1.67,-2.36,-0.62,0.0,1.05,-0.35,-117.6,-322.5,250.0,-1.28,8.46,-0.19,0.0,1.1067971810589328,2.956839528956551,0.11686132965890228,0.2,0,9,0.0
9.177559400999598,612,840.66,98.8,4.9,-41.0,1.67,-2.29,-0.62,0.01,1.05,-0.38,-120.6,-297.5,243.0,-1.2,7.79,-0.08,0.0,1.1166915420114905,2.901275581533061,0.12422057679923082,0.2,0,9,0.0
9.189557521000097,613,840.67,99.0,4.8,-40.8,1.87,-2.05,-0.52,0.05,1.11,-0.35,-123.5,-275.3,227.0,-1.13,7.2,-0.12,0.0,1.1649463506960311,2.82308342065905,0.16902587777409606,0.2,0,9,0.0
9.197555909000585,614,840.68,99.3,4.8,-40.6,1.66,-1.84,-0.13,0.1,1.21,-0.28,-126.1,-252.4,236.0,-1.06,6.56,0.03,0.0,1.2459935794377113,2.481551933770478,0.24507164438546059,0.2,0,10,0.0
9.205435231000592,615,840.69,99.4,4.8,-40.4,0.83,-1.64,0.43,0.16,1.25,-0.13,-128.4,-226.9,249.0,-1.0,5.84,-0.13,0.0,1.2668859459319928,1.887697009586019,0.26064473066214733,0.2,0,10,0.0
9.21641660900059,616,840.7,99.5,4.8,-40.2,0.54,-1.85,0.57,0.21,1.16,0.02,-130.5,-202.3,240.0,-0.94,5.21,0.09,0.0,1.1790250209389113,2.009726349531199,0.16932812955568455,0.2,0,10,0.0
9.22540176199982,617,840.71,99.5,4.8,-40.0,0.65,-2.17,0.02,0.27,1.07,0.13,-132.4,-178.8,244.0,-0.9,4.53,-0.01,0.0,1.1111705539655017,2.2653476554383434,0.09944418933062948,0.2,0,10,0.0
9.23628970000027,618,840.72,99.6,4.7,-39.8,0.31,-2.56,-0.94,0.3,1.03,0.18,-134.0,-150.8,287.0,-0.86,3.67,0.06,0.0,1.0877959367454908,2.744685774364709,0.0745481806684063,0.2,0,10,0.0
9.24531263300014,619,840.73,99.6,4.5,-39.6,-0.63,-2.67,-1.96,0.33,1.03,0.16,-135.2,-116.0,341.0,-0.83,2.68,-0.32,0.0,1.0933434958877288,3.371557503587919,0.07849382501443136,0.2,0,10,0.0
9.256597476000024,620,840.74,99.5,4.3,-39.3,-1.46,-2.28,-2.76,0.33,1.04,0.1,-136.1,-76.6,383.0,-0.81,1.57,-0.22,0.0,1.095673308974897,3.8662126170194,0.0792071653395674,0.2,0,10,0.0
9.265311033999751,621,840.75,99.4,3.9,-39.2,-1.82,-1.47,-3.18,0.3,1.04,0.04,-136.6,-34.3,412.0,-0.8,0.4,-0.24,0.0,1.0831435731240804,3.947872844963475,0.06534388089897591,0.2,0,10,0.0
9.276333690000683,622,840.76,99.2,3.6,-39.2,-1.67,-0.45,-3.1,0.19,1.03,0.03,-136.7,6.2,372.0,-0.8,-0.52,-0.06,0.0,1.047807234180028,3.5498450670416593,0.02940739111582502,0.2,0,10,0.0
9.285452912999972,623,840.77,99.0,3.3,-39.2,-1.11,0.22,-2.72,0.05,0.99,0.09,-136.4,28.9,239.0,-0.81,-0.96,-0.02,0.0,0.995339138183564,2.945997284452245,0.022599490783026144,0.2,0,10,0.0
9.296456014000796,624,840.78,99.0,3.1,-39.3,-0.02,0.39,-2.21,-0.05,0.97,0.16,-136.1,40.8,143.0,-0.82,-1.19,0.0,0.0,0.984377976185977,2.2442370641266933,0.0328894397250008,0.2,0,10,0.0
9.305521174001115,625,840.79,99.1,2.9,-39.3,1.26,0.0,-1.72,-0.14,1.0,0.19,-135.6,47.2,81.0,-0.84,-1.32,0.07,0.0,1.0274726273726225,2.132135080148535,0.010001107232411766,0.2,0,10,0.0
9.316407925000021,626,840.8,99.3,2.7,-39.3,2.61,-0.8,-1.32,-0.19,1.09,0.19,-135.1,48.0,15.0,-0.85,-1.25,0.07,0.0,1.1226308386998818,3.032243393924703,0.10305613218847776,0.2,0,10,0.0
9.325635416000296,627,840.81,99.6,2.6,-39.2,2.99,-1.78,-0.92,-0.18,1.25,0.1,-134.7,42.7,-57.0,-0.86,-0.98,-0.05,0.0,1.2668464784653268,3.5992915969673813,0.24232633651484425,0.2,0,10,0.0
9.336305806000382,628,840.82,99.8,2.5,-39.0,1.94,-2.55,-0.39,-0.13,1.35,0.0,-134.3,28.9,-108.0,-0.87,-0.62,0.05,0.0,1.356244815658294,3.2277236560771434,0.3250901802336552,0.2,0,10,0.0
9.345642780001072,629,840.83,99.9,2.4,-38.7,0.35,-3.03,0.2,-0.06,1.37,-0.1,-134.1,11.9,-175.0,-0.87,-0.03,0.19,0.0,1.3749545447032059,3.0566975643658303,0.3369239110929958,0.2,0,10,0.0
9.356475877000776,630,840.84,99.9,2.4,-38.4,-1.07,-3.38,0.68,0.01,1.27,-0.09,-134.2,-6.5,-141.0,-0.87,0.26,-0.03,0.0,1.2732242536175629,3.6099445979128264,0.23048974760720564,0.2,0,10,0.0
9.365439245000744,631,840.85,99.7,2.4,-38.0,-1.75,-3.67,0.94,0.07,1.15,-0.1,-134.3,-11.5,-75.0,-0.86,0.38,0.01,0.0,1.1564601160437828,4.173128322973066,0.1114510978327572,0.2,0,10,0.0
9.376460925001084,632,840.86,99.5,2.5,-37.6,-1.97,-3.74,1.04,0.1,1.02,-0.11,-134.4,-19.0,-91.0,-0.86,0.66,0.0,0.0,1.0307764064044151,4.353171257830319,0.013947959570478341,0.2,0,10,0.0
9.38555516300039,633,840.87,99.3,2.6,-37.3,-1.83,-3.7,0.99,0.12,0.95,-0.13,-134.7,-34.3,-146.0,-0.85,1.12,-0.01,0.0,0.9663332758422427,4.244879268012225,0.07682326832999786,0.2,0,10,0.0
9.396180744000958,634,840.88,99.1,2.7,-36.9,-1.91,-3.47,0.96,0.12,0.9,-0.13,-135.2,-53.7,-187.0,-0.83,1.73,0.03,0.0,0.9172240729505523,4.075610383733951,0.12341382179725446,0.2,0,10,0.0
9.405558173999452,635,840.89,98.9,2.8,-36.5,-2.21,-3.28,0.83,0.13,0.85,-0.13,-135.9,-75.2,-210.0,-0.81,2.34,0.14,0.0,0.8696551040498756,4.041212689280286,0.16756313488397268,0.2,0,10,0.0
9.416464261001238,636,840.9,98.7,2.8,-36.2,-2.18,-3.1,0.7,0.14,0.83,-0.11,-136.8,-98.2,-225.0,-0.78,2.96,0.27,0.0,0.8488816171881683,3.853881160596419,0.18456988931076634,0.2,0,10,0.0
9.425566916999742,637,840.91,98.5,2.9,-35.9,-2.07,-2.89,0.63,0.17,0.82,-0.13,-138.0,-122.7,-233.0,-0.75,3.61,0.14,0.0,0.847466813509532,3.610249298871201,0.18226499912961458,0.2,0,10,0.0
9.436355572999673,638,840.92,98.3,2.9,-35.6,-1.89,-2.45,0.69,0.2,0.82,-0.14,-139.3,-145.0,-225.0,-0.71,4.21,0.03,0.0,0.8555699854482974,3.1702838989592084,0.17067859064703228,0.2,0,10,0.0
9.44558113200037,639,840.93,98.2,2.9,-35.4,-1.71,-1.95,0.82,0.23,0.84,-0.15,-140.9,-166.0,-212.0,-0.66,4.76,0.17,0.0,0.883742043811428,2.7201102918815625,0.13965640163822368,0.2,0,10,0.0
9.45638080900062,640,840.94,98.0,3.0,-35.2,-1.45,-1.3,1.0,0.25,0.84,-0.15,-142.7,-184.1,-180.0,-0.62,5.18,-0.07,0.0,0.8891569040388765,2.189177927898964,0.1315567105825597,0.2,0,10,0.0
9.46557765200123,641,840.95,97.9,3.1,-35.1,-1.0,-0.69,1.09,0.25,0.81,-0.14,-144.7,-196.8,-128.0,-0.56,5.46,0.11,0.0,0.8591856609604237,1.632237727783548,0.15829739458779224,0.2,0,10,0.0
9.476443065001149,642,840.96,97.8,3.2,-35.1,-0.56,-0.17,1.08,0.24,0.8,-0.13,-146.7,-202.3,-59.0,-0.5,5.5,0.01,0.0,0.8452810183601664,1.2283729075488437,0.16875799644428846,0.2,0,10,0.0
9.48558039800082,643,840.97,97.8,3.3,-35.1,-0.18,0.25,0.96,0.22,0.8,-0.13,-148.7,-202.9,-22.0,-0.45,5.51,0.02,0.0,0.8398214095865859,1.0082162466455298,0.1707332531135115,0.2,0,10,0.0
9.496425852999892,644,840.98,97.8,3.4,-35.1,-0.07,0.54,0.78,0.19,0.81,-0.13,-150.7,-203.7,-15.0,-0.39,5.55,0.05,0.0,0.8420807562223472,0.951262319236918,0.16510442834819516,0.2,0,10,0.0
9.505563426000663,645,840.99,97.8,3.5,-35.2,-0.05,0.73,0.63,0.16,0.83,-0.12,-152.8,-202.4,11.0,-0.34,5.47,0.05,0.0,0.8537564055396597,0.9655568341635825,0.15036020345026502,0.2,0,10,0.0
9.516479273001096,646,841.0,97.8,3.6,-35.2,-0.1,0.87,0.48,0.14,0.86,-0.13,-154.3,-199.4,41.0,-0.28,5.34,0.04,0.0,0.8809653795694811,0.9986490875177326,0.12068820483203468,0.2,0,10,0.0
