host_time_s,seq,device_time_s,roll,pitch,yaw,gyro_x,gyro_y,gyro_z,accel_x,accel_y,accel_z,belt_length,belt_velocity,belt_acceleration,motor_pos,motor_vel,motor_iq_meas,motor_iq_set,acc_mag,gyro_mag,gyro_corrected,gyro_side_score,gyro_side_separation,step_period_s,acc_residual,threshold,gyro_threshold,belt_threshold,belt_ok,calibrated,imu_side,imu_heel_strike,heel_strike,hs_count,left_hs_count,right_hs_count,torque_cmd_nm
0.007681494999928873,1,336.51,92.5,7.6,0.1,1.39,2.38,-0.13,0.18,1.01,-0.12,-113.1,-112.3,-42.0,-1.42,2.97,0.24,0.0,1.0329085148259742,2.7592390255285966,0.0,0.0,2.0,0.6,0.0,0.2,1.0,-160.0,0,0,calibrating,0,0,0,0,0,0.0
0.015462728999978026,2,336.52,92.6,7.7,-0.1,1.49,2.5,-0.07,0.17,0.99,-0.11,-114.5,-101.2,14.0,-1.39,2.84,0.06,0.0,1.0104949282406122,2.9111853256019273,0.0,0.0,2.0,0.6,0.021965314853654938,0.2,1.0,-160.0,0,0,calibrating,0,0,0,0,0,0.0
0.023335922999990544,3,336.53,92.8,7.7,-0.3,1.45,2.64,-0.08,0.15,0.97,-0.11,-115.6,-113.1,-93.0,-1.36,3.28,0.0,0.0,0.987674035297071,3.0130549281418686,0.0,0.0,2.0,0.6,0.04389048364125214,0.2,1.0,-160.0,0,0,calibrating,0,0,0,0,0,0.0
0.03152129499994771,4,336.54,92.9,7.7,-0.6,1.38,2.77,-0.1,0.14,0.98,-0.09,-116.9,-128.5,-123.0,-1.32,3.65,0.08,0.0,0.9940321926376429,3.0963365450157383,0.0,0.0,2.0,0.6,0.03678167977466662,0.2,1.0,-160.0,0,0,calibrating,0,0,0,0,0,0.0
0.04341594699997131,5,336.55,93.1,7.7,-0.9,1.42,2.9,0.02,0.14,1.04,-0.06,-118.2,-141.1,-121.0,-1.28,3.98,0.21,0.0,1.051094667477673,3.229055589487428,0.0,0.0,2.0,0.6,0.019875179164056345,0.2,1.0,-160.0,0,0,calibrating,0,0,0,0,0,0.0
0.05153026999994381,6,336.56,93.1,7.7,-1.2,1.56,2.9,0.33,0.13,1.11,-0.01,-119.7,-153.1,-118.0,-1.24,4.3,0.18,0.0,1.1176314240392493,3.3094561486745824,0.0,0.0,2.0,0.6,0.08468369701112,0.2,1.0,-160.0,0,0,calibrating,0,0,0,0,0,0.0
0.06335103999992953,7,336.57,93.2,7.8,-1.5,1.72,2.78,0.71,0.1,1.18,0.02,-121.3,-164.6,-115.0,-1.2,4.6,0.05,0.0,1.1843985815594342,3.345280257317763,0.0,0.0,2.0,0.6,0.14842183744067872,0.2,1.0,-160.0,0,0,calibrating,0,0,0,0,0,0.0
0.07141362699996989,8,336.58,93.3,7.9,-1.7,1.56,2.6,1.02,0.06,1.21,0.02,-123.1,-174.3,-98.0,-1.15,4.84,-0.25,0.0,1.2116517651536682,3.1990623626306505,0.0,0.0,2.0,0.6,0.17216152061421441,0.2,1.0,-160.0,0,0,calibrating,0,0,0,0,0,0.0
0.08340563299998394,9,336.59,93.5,8.0,-2.0,1.19,2.45,1.22,0.02,1.23,0.03,-124.9,-183.9,-93.0,-1.1,5.09,0.01,0.0,1.2305283418109474,2.9844597501055365,0.0,0.0,2.0,0.6,0.18721733532606377,0.2,1.0,-160.0,0,0,calibrating,0,0,0,0,0,0.0
0.09132509899995966,10,336.6,93.5,8.1,-2.2,0.58,2.24,1.29,0.0,1.2,0.04,-126.8,-191.0,-75.0,-1.05,5.27,0.18,0.0,1.2006664815842907,2.6491696812397656,0.0,0.0,2.0,0.6,0.1542083655974189,0.2,1.0,-160.0,0,0,calibrating,0,0,0,0,0,0.0
0.10342093399992791,11,336.61,93.5,8.3,-2.4,0.13,1.96,1.26,0.01,1.14,0.04,-128.5,-195.8,-52.0,-1.0,5.36,0.02,0.0,1.1407453703609758,2.33368806827305,0.0,0.0,2.0,0.6,0.09240150928662194,0.2,1.0,-160.0,0,0,calibrating,0,0,0,0,0,0.0
0.11154447399997025,12,336.62,93.5,8.4,-2.6,-0.07,1.7,1.19,0.07,1.09,0.04,-130.5,-198.3,-35.0,-0.94,5.42,-0.06,0.0,1.092977584399607,2.0762947767597932,0.0,0.0,2.0,0.6,0.04374104885874819,0.2,1.0,-160.0,0,0,calibrating,0,0,0,0,0,0.0
0.12335140499999397,13,336.63,93.4,8.5,-2.8,-0.15,1.53,1.16,0.15,1.04,0.04,-132.7,-201.9,-33.0,-0.88,5.52,0.03,0.0,1.05152270541344,1.9258764238652488,0.0,0.0,2.0,0.6,0.002240446475129554,0.2,1.0,-160.0,0,0,calibrating,0,0,0,0,0,0.0
0.13148267299993677,14,336.64,93.4,8.7,-2.9,-0.03,1.5,1.04,0.22,0.99,0.04,-134.7,-203.4,-9.0,-0.83,5.5,0.14,0.0,1.0149384217774002,1.8255136263528686,0.0,0.0,2.0,0.6,0.03365696041769195,0.2,1.0,-160.0,0,0,calibrating,0,0,0,0,0,0.0
0.14337955299993155,15,336.65,93.4,8.8,-3.1,0.28,1.64,0.83,0.28,0.96,0.02,-136.7,-200.5,21.0,-0.77,5.4,-0.18,0.0,1.000199980003999,1.8592740518815398,0.0,0.0,2.0,0.6,0.04742749414727143,0.2,1.0,-160.0,0,0,calibrating,0,0,0,0,0,0.0
0.1515027340000188,16,336.66,93.4,8.8,-3.2,0.55,1.94,0.56,0.31,0.96,0.02,-138.7,-194.7,46.0,-0.72,5.23,-0.08,0.0,1.0090094152187083,2.092773279645934,0.0,0.0,2.0,0.6,0.03784569775391078,0.2,1.0,-160.0,0,0,calibrating,0,0,0,0,0,0.0
0.16327117999992424,17,336.67,93.4,8.9,-3.5,0.63,2.29,0.31,0.32,0.95,0.01,-140.6,-188.2,57.0,-0.67,5.04,-0.08,0.0,1.002496882788171,2.3952244153732236,0.0,0.0,2.0,0.6,0.04347106558075908,0.2,1.0,-160.0,0,0,calibrating,0,0,0,0,0,0.0
0.17150705400001698,18,336.68,93.4,8.9,-3.7,0.63,2.68,0.06,0.3,0.95,0.0,-142.4,-181.4,69.0,-0.63,4.84,-0.14,0.0,0.9962429422585637,2.7537065929397784,0.0,0.0,2.0,0.6,0.04873050598815909,0.2,1.0,-160.0,0,0,calibrating,0,0,0,0,0,0.0
0.18335208700000294,19,336.69,93.4,8.9,-4.0,0.52,3.04,-0.14,0.26,0.94,0.0,-144.1,-171.9,85.0,-0.58,4.56,0.03,0.0,0.9752948272189287,3.0873289426298585,0.0,0.0,2.0,0.6,0.06828504860723827,0.2,1.0,-160.0,0,0,calibrating,0,0,0,0,0,0.0
0.1915327789999992,20,336.7,93.4,8.9,-4.3,0.43,3.39,-0.31,0.22,0.94,0.01,-145.9,-162.2,94.0,-0.53,4.29,-0.19,0.0,0.9654532614269838,3.431195127065787,0.0,0.0,2.0,0.6,0.07656408211119936,0.2,1.0,-160.0,0,0,calibrating,0,0,0,0,0,0.0
0.20370963599998504,21,336.71,93.4,8.9,-4.7,0.31,3.74,-0.41,0.18,0.94,0.02,-147.4,-151.8,102.0,-0.49,3.99,-0.11,0.0,0.9572878355019455,3.775155625931202,0.0,0.0,2.0,0.6,0.08303491787551287,0.2,1.0,-160.0,0,0,calibrating,0,0,0,0,0,0.0
0.21151827299991055,22,336.72,93.3,8.9,-5.1,0.25,4.0,-0.47,0.13,0.93,0.03,-148.8,-141.0,105.0,-0.45,3.71,0.02,0.0,0.9395211546314431,4.035269507728078,0.0,0.0,2.0,0.6,0.09878556677109496,0.2,1.0,-160.0,0,0,calibrating,0,0,0,0,0,0.0
0.22330625399990822,23,336.73,93.2,8.9,-5.5,0.21,4.17,-0.52,0.08,0.94,0.05,-150.2,-130.9,100.0,-0.42,3.44,-0.1,0.0,0.9447221813845591,4.2075408494749045,0.0,0.0,2.0,0.6,0.09171284921761935,0.2,1.0,-160.0,0,0,calibrating,0,0,0,0,0,0.0
0.2314426119999098,24,336.74,93.2,8.9,-6.0,0.2,4.25,-0.56,0.03,0.96,0.07,-151.4,-121.1,95.0,-0.39,3.19,-0.06,0.0,0.9630160954002794,4.2913983734908605,0.0,0.0,2.0,0.6,0.0719505564978612,0.2,1.0,-160.0,0,0,calibrating,0,0,0,0,0,0.0
0.2437062319999086,25,336.75,93.1,8.8,-6.4,0.13,4.23,-0.58,0.0,0.98,0.09,-152.6,-114.0,76.0,-0.35,3.02,-0.07,0.0,0.9841239759298621,4.27155709314531,0.0,0.0,2.0,0.6,0.04982582244891298,0.2,1.0,-160.0,0,0,calibrating,0,0,0,0,0,0.0
0.2514015009999184,26,336.76,93.1,8.8,-6.8,0.01,4.14,-0.6,0.0,0.98,0.11,-153.7,-108.3,61.0,-0.33,2.88,0.18,0.0,0.986154146165801,4.1832642756584235,0.0,0.0,2.0,0.6,0.046839739168714534,0.2,1.0,-160.0,0,0,calibrating,0,0,0,0,0,0.0
0.2633099399999992,27,336.77,93.0,8.8,-7.2,-0.15,4.01,-0.6,-0.01,0.99,0.12,-154.7,-103.7,47.0,-0.3,2.77,-0.05,0.0,0.9972963451251589,4.057412968875611,0.0,0.0,2.0,0.6,0.034983589405169546,0.2,1.0,-160.0,0,0,calibrating,0,0,0,0,0,0.0
0.2714470219999612,28,336.78,92.9,8.7,-7.6,-0.29,3.87,-0.62,0.0,0.98,0.12,-155.8,-100.7,36.0,-0.27,2.68,-0.1,0.0,0.9873196037757985,3.93006361271672,0.0,0.0,2.0,0.6,0.0440611241394393,0.2,1.0,-160.0,0,0,calibrating,0,0,0,0,0,0.0
0.28380089099994166,29,336.79,92.8,8.7,-8.0,-0.34,3.78,-0.64,0.0,0.98,0.1,-156.7,-97.5,25.0,-0.24,2.63,0.07,0.0,0.9850888284819801,3.8488439822887077,0.0,0.0,2.0,0.6,0.04536606144459254,0.2,1.0,-160.0,0,0,calibrating,0,0,0,0,0,0.0
0.2912502819999645,30,336.8,92.7,8.6,-8.4,-0.37,3.76,-0.64,0.03,0.97,0.09,-157.7,-95.5,25.0,-0.22,2.57,0.07,0.0,0.9746281342132496,3.8319838204251333,0.0,0.0,2.0,0.6,0.0547102205990565,0.2,1.0,-160.0,0,0,calibrating,0,0,0,0,0,0.0
0.30378258899997945,31,336.81,92.6,8.6,-8.8,-0.41,3.83,-0.65,0.06,0.94,0.08,-158.6,-92.5,34.0,-0.19,2.45,0.0,0.0,0.9453041838477179,3.9063409989400566,0.0,0.0,2.0,0.6,0.08235348754529648,0.2,1.0,-160.0,0,0,calibrating,0,0,0,0,0,0.0
0.3114317879999362,32,336.82,92.5,8.5,-9.2,-0.44,3.98,-0.65,0.08,0.93,0.07,-159.5,-89.2,30.0,-0.17,2.38,0.01,0.0,0.936055553906925,4.056661188711722,0.0,0.0,2.0,0.6,0.08977007513636759,0.2,1.0,-160.0,0,0,calibrating,0,0,0,0,0,0.0
0.32360411100000874,33,336.83,92.4,8.5,-9.6,-0.45,4.12,-0.64,0.08,0.93,0.07,-160.4,-85.3,39.0,-0.15,2.25,-0.17,0.0,0.936055553906925,4.193626115904945,0.0,0.0,2.0,0.6,0.08797467363364031,0.2,1.0,-160.0,0,0,calibrating,0,0,0,0,0,0.0
0.3313790429999699,34,336.84,92.3,8.4,-10.0,-0.37,4.23,-0.58,0.07,0.94,0.08,-161.2,-79.7,59.0,-0.12,2.06,-0.21,0.0,0.9459915433025815,4.285580474101496,0.0,0.0,2.0,0.6,0.07647791055322417,0.2,1.0,-160.0,0,0,calibrating,0,0,0,0,0,0.0
0.34374775200001295,35,336.85,92.2,8.4,-10.5,-0.3,4.3,-0.54,0.05,0.95,0.07,-162.0,-74.3,54.0,-0.1,1.94,0.05,0.0,0.9538867857350787,4.344145485593225,0.0,0.0,2.0,0.6,0.06721101475831237,0.2,1.0,-160.0,0,0,calibrating,0,0,0,0,0,0.0
0.3512424049999936,36,336.86,92.1,8.4,-10.9,-0.17,4.31,-0.47,0.04,0.97,0.07,-162.7,-68.6,57.0,-0.09,1.8,0.09,0.0,0.973344748791506,4.3388823445675495,0.0,0.0,2.0,0.6,0.0467979906678474,0.2,1.0,-160.0,0,0,calibrating,0,0,0,0,0,0.0
0.3635051269999394,37,336.87,92.1,8.3,-11.3,-0.09,4.34,-0.42,0.01,1.0,0.06,-163.3,-62.4,61.0,-0.07,1.61,0.13,0.0,1.0018482919085105,4.3612039622104355,0.0,0.0,2.0,0.6,0.017928558599825895,0.2,1.0,-160.0,0,0,calibrating,0,0,0,0,0,0.0
0.37152691599999343,38,336.88,92.0,8.3,-11.8,-0.17,4.31,-0.35,-0.01,1.02,0.06,-163.9,-55.8,72.0,-0.05,1.41,-0.01,0.0,1.0218121158021176,4.327528162819971,0.0,0.0,2.0,0.6,0.001994559987905653,0.2,1.0,-160.0,0,0,calibrating,0,0,0,0,0,0.0
0.3832728730000099,39,336.89,91.9,8.3,-12.2,-0.27,4.17,-0.32,-0.01,1.03,0.06,-164.4,-47.5,73.0,-0.04,1.2,0.0,0.0,1.0317945531936095,4.190966475647354,0.0,0.0,2.0,0.6,0.01173745743180965,0.2,1.0,-160.0,0,0,calibrating,0,0,0,0,0,0.0
0.391457245999959,40,336.9,91.8,8.3,-12.6,-0.33,4.0,-0.25,-0.01,1.04,0.06,-164.8,-38.1,93.0,-0.03,0.9,0.07,0.0,1.0417773274553446,4.021367926464824,0.0,0.0,2.0,0.6,0.021285827059673856,0.2,1.0,-160.0,0,0,calibrating,0,0,0,0,0,0.0
0.40324558899999374,41,336.91,91.7,8.3,-13.0,-0.35,3.74,-0.22,0.0,1.02,0.06,-165.1,-24.3,147.0,-0.03,0.41,-0.01,0.0,1.0217631819555841,3.7627782289154386,0.0,0.0,2.0,0.6,0.001246247928715194,0.2,1.0,-160.0,0,0,calibrating,0,0,0,0,0,0.0
0.4114593659999173,42,336.92,91.6,8.3,-13.4,-0.2,3.44,-0.27,0.01,1.0,0.07,-165.2,-5.1,166.0,-0.02,-0.06,-0.1,0.0,1.002496882788171,3.4563709291683375,0.0,0.0,2.0,0.6,0.017659650213923905,0.2,1.0,-160.0,0,0,calibrating,0,0,0,0,0,0.0
0.4232475509999176,43,336.93,91.6,8.2,-13.7,0.08,3.16,-0.4,0.02,1.0,0.06,-165.2,7.3,118.0,-0.03,-0.28,-0.12,0.0,1.0019980039900278,3.186220331364421,0.0,0.0,2.0,0.6,0.01779535843182578,0.2,1.0,-160.0,0,0,calibrating,0,0,0,0,0,0.0
0.43147519699994064,44,336.94,91.6,8.2,-14.0,0.27,2.94,-0.58,0.03,1.0,0.05,-165.0,16.4,101.0,-0.03,-0.56,-0.1,0.0,1.0016985574512922,3.008803749000589,0.0,0.0,2.0,0.6,0.017732908871149977,0.2,1.0,-160.0,0,0,calibrating,0,0,0,0,0,0.0
0.4432430159999967,45,336.95,91.5,8.1,-14.3,0.36,2.81,-0.78,0.03,1.02,0.05,-164.8,24.9,86.0,-0.04,-0.77,-0.08,0.0,1.021665307231287,2.9383839095666175,0.0,0.0,2.0,0.6,0.0021891640906674947,0.2,1.0,-160.0,0,0,calibrating,0,0,0,0,0,0.0
0.45133058099997925,46,336.96,91.5,8.0,-14.6,0.35,2.68,-0.97,0.04,1.02,0.05,-164.5,36.6,123.0,-0.05,-1.16,-0.01,0.0,1.0220078277586724,2.8715501040378872,0.0,0.0,2.0,0.6,0.002481050925691841,0.2,1.0,-160.0,0,0,calibrating,0,0,0,0,0,0.0
0.4633364919999394,47,336.97,91.5,7.9,-14.9,0.23,2.56,-1.08,0.04,1.02,0.04,-164.0,51.6,150.0,-0.06,-1.62,-0.02,0.0,1.0215674231297707,2.7879921090275706,0.0,0.0,2.0,0.6,0.001999833370854409,0.2,1.0,-160.0,0,0,calibrating,0,0,0,0,0,0.0
0.47144025699992653,48,336.98,91.5,7.8,-15.1,0.12,2.41,-1.12,0.03,1.01,0.03,-163.4,70.7,182.0,-0.08,-2.18,-0.17,0.0,1.0108906963663282,2.6602443496791794,0.0,0.0,2.0,0.6,0.008503355524736245,0.2,1.0,-160.0,0,0,calibrating,0,0,0,0,0,0.0
0.48325935399998343,49,336.99,91.5,7.7,-15.4,0.06,2.28,-1.11,0.02,0.99,0.03,-162.5,91.6,207.0,-0.11,-2.76,0.02,0.0,0.9906563480844404,2.536552778871356,0.0,0.0,2.0,0.6,0.028162949730491604,0.2,1.0,-160.0,0,0,calibrating,0,0,0,0,0,0.0
0.49141565299999,50,337.0,91.5,7.6,-15.6,0.09,2.16,-1.09,0.01,0.99,0.02,-161.7,108.3,257.0,-0.14,-3.31,-0.23,0.0,0.9902524930541705,2.421115445409409,0.0,0.0,2.0,0.6,0.02799546866554614,0.2,1.0,-160.0,0,0,calibrating,0,0,0,0,0,0.0
0.5033091809999632,51,337.01,91.5,7.5,-15.8,0.11,2.06,-1.04,0.01,0.99,0.01,-160.2,133.6,234.0,-0.18,-3.89,-0.14,0.0,0.990101004948485,2.3102597256585677,0.0,0.0,2.0,0.6,0.02758401763580698,0.2,1.0,-160.0,0,0,calibrating,0,0,0,0,0,0.0
0.5114093180000054,52,337.02,91.4,7.4,-16.0,0.08,2.0,-1.02,0.01,0.98,0.0,-158.7,155.7,227.0,-0.22,-4.5,-0.16,0.0,0.9800510190801293,2.2465084019428905,0.0,0.0,2.0,0.6,0.03688132343407946,0.2,1.0,-160.0,0,0,calibrating,0,0,0,0,0,0.0
0.5233139179999853,53,337.03,91.4,7.3,-16.2,0.04,1.94,-0.99,0.01,0.98,-0.01,-157.0,177.7,223.0,-0.27,-5.1,-0.11,0.0,0.9801020355044672,2.178370950963127,0.0,0.0,2.0,0.6,0.036093700869546774,0.2,1.0,-160.0,0,0,calibrating,0,0,0,0,0,0.0
0.5314151609999271,54,337.04,91.4,7.1,-16.4,-0.05,1.9,-0.95,0.02,0.98,-0.02,-155.1,200.5,225.0,-0.33,-5.72,0.0,0.0,0.9804080783020914,2.124852936087578,0.0,0.0,2.0,0.6,0.035071904910484064,0.2,1.0,-160.0,0,0,calibrating,0,0,0,0,0,0.0
0.5431830420000097,55,337.05,91.3,7.0,-16.6,-0.12,1.9,-0.91,0.02,0.98,-0.03,-152.9,223.6,237.0,-0.39,-6.39,0.01,0.0,0.9806630410084801,2.1100947846009195,0.0,0.0,2.0,0.6,0.034120603360013546,0.2,1.0,-160.0,0,0,calibrating,0,0,0,0,0,0.0
0.5513420899999346,56,337.06,91.3,6.8,-16.8,-0.19,1.89,-0.88,0.02,0.97,-0.03,-150.5,246.9,224.0,-0.46,-6.96,-0.06,0.0,0.9706698717895801,2.0934660255184463,0.0,0.0,2.0,0.6,0.04323149712733532,0.2,1.0,-160.0,0,0,calibrating,0,0,0,0,0,0.0
0.5637643799999523,57,337.07,91.3,6.7,-17.0,-0.27,1.91,-0.84,0.03,0.98,-0.02,-147.9,268.2,224.0,-0.53,-7.59,-0.08,0.0,0.9806630410084801,2.103948668575353,0.0,0.0,2.0,0.6,0.03257356135026657,0.2,1.0,-160.0,0,0,calibrating,0,0,0,0,0,0.0
0.5714308459999984,58,337.08,91.2,6.6,-17.2,-0.36,1.91,-0.81,0.02,0.98,-0.02,-145.0,292.8,242.0,-0.61,-8.26,0.0,0.0,0.9804080783020914,2.1056590417254166,0.0,0.0,2.0,0.6,0.03217195357552194,0.2,1.0,-160.0,0,0,calibrating,0,0,0,0,0,0.0
0.5834806789999902,59,337.09,91.1,6.4,-17.4,-0.45,1.88,-0.77,0.02,0.98,-0.02,-141.9,314.5,203.0,-0.7,-8.75,-0.07,0.0,0.9804080783020914,2.080817147180405,0.0,0.0,2.0,0.6,0.03152851450401151,0.2,1.0,-160.0,0,0,calibrating,0,0,0,0,0,0.0
0.5914144079999915,60,337.1,91.1,6.3,-17.6,-0.58,1.83,-0.71,0.01,0.99,-0.01,-138.7,331.8,195.0,-0.79,-9.28,0.13,0.0,0.990101004948485,2.0468023842081093,0.0,0.0,2.0,0.6,0.021398876100465647,0.2,1.0,-160.0,0,0,calibrating,0,0,0,0,0,0.0
0.6036588169999959,61,337.11,91.0,6.2,-17.7,-0.7,1.74,-0.63,0.0,0.99,-0.01,-135.2,352.8,199.0,-0.88,-9.82,0.0,0.0,0.9900505037623081,1.9785095400325974,0.0,0.0,2.0,0.6,0.021020389740909695,0.2,1.0,-160.0,0,0,calibrating,0,0,0,0,0,0.0
0.6112750459999461,62,337.12,90.9,6.1,-17.9,-0.78,1.63,-0.55,0.0,0.98,-0.02,-131.6,366.5,138.0,-0.98,-10.09,0.04,0.0,0.9802040603874276,1.88886209131318,0.0,0.0,2.0,0.6,0.0302494964534743,0.2,1.0,-160.0,0,0,calibrating,0,0,0,0,0,0.0
0.6236362319999671,63,337.13,90.8,6.0,-18.1,-0.82,1.48,-0.44,0.0,0.98,-0.02,-127.8,383.0,195.0,-1.09,-10.72,0.03,0.0,0.9802040603874276,1.7482562741200158,0.0,0.0,2.0,0.6,0.029644506524404868,0.2,1.0,-160.0,0,0,calibrating,0,0,0,0,0,0.0
0.6313844669999753,64,337.14,90.7,5.9,-18.2,-0.84,1.31,-0.34,-0.01,0.98,-0.02,-123.8,405.5,178.0,-1.2,-11.16,-0.01,0.0,0.9802550688468792,1.592890454488318,0.0,0.0,2.0,0.6,0.029001628103654253,0.2,1.0,-160.0,0,0,calibrating,0,0,0,0,0,0.0
0.6433427559999245,65,337.15,90.6,5.8,-18.3,-0.86,1.14,-0.24,0.0,0.98,-0.03,-119.7,413.9,101.0,-1.31,-11.32,0.01,0.0,0.9804590761474953,1.448033148791836,0.0,0.0,2.0,0.6,0.028221668386977483,0.2,1.0,-160.0,0,0,calibrating,0,0,0,0,0,0.0
0.6514077509999652,66,337.16,90.5,5.7,-18.4,-0.88,0.98,-0.17,-0.01,0.99,-0.03,-115.5,416.8,35.0,-1.43,-11.3,-0.04,0.0,0.9905049217444606,1.3280436739806414,0.0,0.0,2.0,0.6,0.017812306334211936,0.2,1.0,-160.0,0,0,calibrating,0,0,0,0,0,0.0
0.663529040999947,67,337.17,90.4,5.6,-18.5,-0.94,0.82,-0.08,0.0,1.0,-0.03,-111.4,411.9,-23.0,-1.54,-11.14,0.01,0.0,1.0004498987955368,1.2499599993599795,0.0,0.0,2.0,0.6,0.007709982697472917,0.2,1.0,-160.0,0,0,calibrating,0,0,0,0,0,0.0
0.6713879039999711,68,337.18,90.4,5.5,-18.6,-1.0,0.71,0.0,0.0,1.0,-0.03,-107.3,402.4,-111.0,-1.65,-10.68,0.24,0.0,1.0004498987955368,1.2264175471673584,0.0,0.0,2.0,0.6,0.007555783043523556,0.2,1.0,-160.0,0,0,calibrating,0,0,0,0,0,0.0
0.6834815469999285,69,337.19,90.3,5.5,-18.7,-1.01,0.58,0.09,0.0,1.01,-0.03,-103.5,373.3,-260.0,-1.75,-9.72,0.1,0.0,1.0104454463255301,1.1681609478149833,0.0,0.0,2.0,0.6,0.0023909691967403113,0.2,1.0,-160.0,0,0,calibrating,0,0,0,0,0,0.0
0.6914597059999323,70,337.2,90.2,5.5,-18.7,-1.04,0.46,0.18,0.02,1.01,-0.02,-100.0,342.3,-271.0,-1.84,-8.98,0.15,0.0,1.0103959619871805,1.1513470371699404,0.0,0.0,2.0,0.6,0.002294655161222847,0.2,1.0,-160.0,0,0,calibrating,0,0,0,0,0,0.0
0.7033473760000106,71,337.21,90.1,5.5,-18.8,-1.04,0.36,0.27,0.04,1.02,-0.02,-96.7,314.0,-296.0,-1.92,-8.13,0.07,0.0,1.0209799214480175,1.1331813623599711,0.0,0.0,2.0,0.6,0.012621042329618692,0.2,1.0,-160.0,0,0,calibrating,0,0,0,0,0,0.0
0.7113946139999143,72,337.22,90.0,5.5,-18.8,-1.07,0.27,0.34,0.04,1.01,-0.02,-93.8,279.9,-325.0,-2.0,-7.2,-0.05,0.0,1.0109896141899777,1.154729405531876,0.0,0.0,2.0,0.6,0.0025781203701473743,0.2,1.0,-160.0,0,0,calibrating,0,0,0,0,0,0.0
0.7234780459999683,73,337.23,89.9,5.5,-18.8,-1.09,0.2,0.41,0.04,1.01,-0.03,-91.3,250.7,-277.0,-2.07,-6.54,0.14,0.0,1.011236866416568,1.1816090724093142,0.0,0.0,2.0,0.6,0.002768865144803012,0.2,1.0,-160.0,0,0,calibrating,0,0,0,0,0,0.0
0.7315030919999117,74,337.24,89.8,5.5,-18.8,-1.08,0.12,0.47,0.03,0.99,-0.02,-88.9,229.5,-226.0,-2.13,-6.01,-0.02,0.0,0.9906563480844404,1.1839341197887658,0.0,0.0,2.0,0.6,0.017455420123578147,0.2,1.0,-160.0,0,0,calibrating,0,0,0,0,0,0.0
0.7432170859999587,75,337.25,89.7,5.5,-18.8,-0.99,-0.03,0.52,0.02,0.98,-0.02,-86.7,208.6,-217.0,-2.18,-5.41,0.23,0.0,0.9804080783020914,1.1186599125739691,0.0,0.0,2.0,0.6,0.027149616107808527,0.2,1.0,-160.0,0,0,calibrating,0,0,0,0,0,0.0
0.7514538599999696,76,337.26,89.6,5.5,-18.8,-0.98,-0.15,0.58,0.01,0.98,-0.01,-84.8,188.3,-206.0,-2.23,-4.87,0.3,0.0,0.9801020355044672,1.148607853011636,0.0,0.0,2.0,0.6,0.026906545727324316,0.2,1.0,-160.0,0,0,calibrating,0,0,0,0,0,0.0
0.7633261459999403,77,337.27,89.5,5.5,-18.8,-0.93,-0.36,0.64,0.0,0.96,-0.01,-83.0,169.9,-186.0,-2.28,-4.4,0.08,0.0,0.9600520819205591,1.1849472562101657,0.0,0.0,2.0,0.6,0.04601736932500766,0.2,1.0,-160.0,0,0,calibrating,0,0,0,0,0,0.0
0.771400592999953,78,337.28,89.5,5.5,-18.7,-0.79,-0.61,0.65,0.0,0.95,-0.01,-81.5,154.7,-149.0,-2.32,-4.07,-0.04,0.0,0.9500526301210896,1.191091935998225,0.0,0.0,2.0,0.6,0.05489648470198749,0.2,1.0,-160.0,0,0,calibrating,0,0,0,0,0,0.0
0.7833144899999525,79,337.29,89.4,5.5,-18.7,-0.61,-0.89,0.64,0.0,0.95,-0.02,-80.0,144.2,-115.0,-2.36,-3.8,0.01,0.0,0.9502105029939418,1.2545118572576348,0.0,0.0,2.0,0.6,0.0536438395925527,0.2,1.0,-160.0,0,0,calibrating,0,0,0,0,0,0.0
0.7914151840000159,80,337.3,89.4,5.5,-18.5,-0.46,-1.16,0.6,0.0,0.95,-0.02,-78.6,136.5,-84.0,-2.4,-3.62,0.07,0.0,0.9502105029939418,1.384629914453678,0.0,0.0,2.0,0.6,0.052570962800701615,0.2,1.0,-160.0,0,0,calibrating,0,0,0,0,0,0.0
0.8031483859999753,81,337.31,89.4,5.5,-18.4,-0.36,-1.41,0.54,0.0,0.95,-0.03,-77.3,129.4,-73.0,-2.43,-3.44,0.08,0.0,0.9504735661763561,1.5521919984331833,0.0,0.0,2.0,0.6,0.051261741625921564,0.2,1.0,-160.0,0,0,calibrating,0,0,0,0,0,0.0
0.8114619939999557,82,337.32,89.4,5.6,-18.3,-0.31,-1.62,0.51,0.0,0.96,-0.03,-76.0,123.1,-65.0,-2.46,-3.28,-0.03,0.0,0.9604686356149273,1.7264414267504127,0.0,0.0,2.0,0.6,0.04044133874360345,0.2,1.0,-160.0,0,0,calibrating,0,0,0,0,0,0.0
0.8232901619999211,83,337.33,89.4,5.6,-18.1,-0.29,-1.81,0.47,0.0,0.95,-0.04,-74.9,114.9,-85.0,-2.5,-2.99,0.14,0.0,0.9508417323613851,1.892379454549219,0.0,0.0,2.0,0.6,0.049066877157202704,0.2,1.0,-160.0,0,0,calibrating,0,0,0,0,0,0.0
0.8314587849999953,84,337.34,89.4,5.7,-17.9,-0.24,-1.98,0.47,0.0,0.95,-0.04,-73.8,101.5,-134.0,-2.52,-2.54,0.06,0.0,0.9508417323613851,2.0491217630975473,0.0,0.0,2.0,0.6,0.0480855396140587,0.2,1.0,-160.0,0,0,calibrating,0,0,0,0,0,0.0
0.8432933550000143,85,337.35,89.4,5.7,-17.7,-0.18,-2.18,0.49,0.0,0.96,-0.05,-72.9,82.7,-174.0,-2.54,-2.01,0.05,0.0,0.9613012014972206,2.241628872048181,0.0,0.0,2.0,0.6,0.036873549068658695,0.2,1.0,-160.0,0,0,calibrating,0,0,0,0,0,0.0
0.8513991929999065,86,337.36,89.4,5.8,-17.5,-0.09,-2.35,0.55,0.0,0.97,-0.06,-72.2,62.9,-185.0,-2.56,-1.48,0.12,0.0,0.9718538984847466,2.4151811526260305,0.0,0.0,2.0,0.6,0.025794435039510066,0.2,1.0,-160.0,0,0,calibrating,0,0,0,0,0,0.0
0.8634179989999211,87,337.37,89.4,5.9,-17.2,-0.07,-2.49,0.61,0.0,0.98,-0.06,-71.7,43.6,-197.0,-2.57,-0.91,0.06,0.0,0.9818350166906862,2.564585736527442,0.0,0.0,2.0,0.6,0.01549705049689909,0.2,1.0,-160.0,0,0,calibrating,0,0,0,0,0,0.0
0.8713953889999857,88,337.38,89.4,5.9,-17.0,-0.06,-2.6,0.66,0.0,0.98,-0.06,-71.4,21.8,-204.0,-2.58,-0.35,-0.16,0.0,0.9818350166906862,2.683132497660151,0.0,0.0,2.0,0.6,0.015187109486961115,0.2,1.0,-160.0,0,0,calibrating,0,0,0,0,0,0.0
0.883491878999962,89,337.39,89.4,6.0,-16.7,-0.1,-2.71,0.74,0.0,0.98,-0.07,-71.4,2.1,-190.0,-2.58,0.12,0.0,0.0,0.9824968193332739,2.8109962646720112,0.0,0.0,2.0,0.6,0.01423480070748595,0.2,1.0,-160.0,0,0,calibrating,0,0,0,0,0,0.0
0.8914673979999179,90,337.4,89.4,6.1,-16.4,-0.14,-2.81,0.83,0.0,0.98,-0.07,-71.4,-3.8,-57.0,-2.58,0.05,-0.07,0.0,0.9824968193332739,2.933359848365011,0.0,0.0,2.0,0.6,0.01395010469333624,0.2,1.0,-160.0,0,0,calibrating,0,0,0,0,0,0.0
0.9033336579999514,91,337.41,89.5,6.2,-16.1,-0.19,-2.91,0.96,0.0,0.97,-0.07,-71.4,-0.5,-13.0,-2.58,0.03,0.32,0.0,0.9725224933131367,3.070146576305438,0.0,0.0,2.0,0.6,0.02344594209920403,0.2,1.0,-160.0,0,0,calibrating,0,0,0,0,0,0.0
0.9114459909999368,92,337.42,89.5,6.3,-15.8,-0.2,-3.04,1.1,-0.01,0.96,-0.07,-71.4,-2.4,-23.0,-2.57,0.1,-0.06,0.0,0.9626006440887104,3.2390739417308767,0.0,0.0,2.0,0.6,0.03270043549715773,0.2,1.0,-160.0,0,0,calibrating,0,0,0,0,0,0.0
0.9234108889999106,93,337.43,89.5,6.4,-15.5,-0.17,-3.21,1.22,-0.01,0.96,-0.07,-71.5,-7.1,-49.0,-2.57,0.28,-0.06,0.0,0.9626006440887104,3.4382262869101563,0.0,0.0,2.0,0.6,0.03204642678721459,0.2,1.0,-160.0,0,0,calibrating,0,0,0,0,0,0.0
0.9312833000000182,94,337.44,89.5,6.5,-15.2,-0.13,-3.39,1.31,-0.01,0.96,-0.07,-71.6,-18.8,-110.0,-2.57,0.69,-0.01,0.0,0.9626006440887104,3.636633058200951,0.0,0.0,2.0,0.6,0.03140549825147032,0.2,1.0,-160.0,0,0,calibrating,0,0,0,0,0,0.0
0.9435911309999483,95,337.45,89.5,6.7,-14.8,-0.1,-3.59,1.39,0.0,0.96,-0.07,-71.9,-31.2,-105.0,-2.56,0.96,0.02,0.0,0.9625487000666512,3.8509998701635917,0.0,0.0,2.0,0.6,0.030828293428058928,0.2,1.0,-160.0,0,0,calibrating,0,0,0,0,0,0.0
0.9514179789999844,96,337.46,89.6,6.8,-14.5,-0.05,-3.79,1.41,0.01,0.96,-0.07,-72.3,-39.2,-83.0,-2.55,1.15,-0.01,0.0,0.9626006440887104,4.044094459826575,0.0,0.0,2.0,0.6,0.030160822417879762,0.2,1.0,-160.0,0,0,calibrating,0,0,0,0,0,0.0
0.9632423819999758,97,337.47,89.6,7.0,-14.1,0.18,-4.0,1.34,0.04,0.96,-0.06,-72.7,-46.7,-75.0,-2.53,1.35,-0.04,0.0,0.9627045237246993,4.2223216362565275,0.0,0.0,2.0,0.6,0.029455803926253132,0.2,1.0,-160.0,0,0,calibrating,0,0,0,0,0,0.0
0.9713008929999205,98,337.48,89.7,7.1,-13.7,0.52,-4.12,1.17,0.07,0.98,-0.08,-73.2,-53.0,-69.0,-2.52,1.54,-0.1,0.0,0.9857484466130291,4.314359743924931,0.0,0.0,2.0,0.6,0.006283643417164808,0.2,1.0,-160.0,0,0,calibrating,0,0,0,0,0,0.0
0.9833065679999891,99,337.49,89.8,7.2,-13.2,0.65,-4.05,0.97,0.06,1.01,-0.1,-73.8,-62.9,-107.0,-2.5,1.89,-0.07,0.0,1.0167103815738285,4.214961447036022,0.0,0.0,2.0,0.6,0.02418472571276198,0.2,1.0,-160.0,0,0,calibrating,0,0,0,0,0,0.0
0.991258147999929,100,337.5,89.9,7.3,-12.8,0.36,-3.96,0.85,0.05,1.03,-0.1,-74.6,-79.2,-149.0,-2.48,2.36,-0.01,0.0,1.0360501918343532,4.066165269636737,0.0,0.0,2.0,0.6,0.04265404525382088,0.2,1.0,-160.0,0,0,calibrating,0,0,0,0,0,0.0
1.003557451000006,101,337.51,90.0,7.4,-12.4,-0.09,-3.82,0.8,0.04,1.0,-0.1,-75.5,-96.7,-173.0,-2.45,2.86,0.02,0.0,1.0057832768544126,3.903908298103325,0.0,0.0,2.0,0.6,0.012139387668402724,0.2,1.0,-160.0,0,0,calibrating,0,0,0,0,0,0.0
1.0113753790000146,102,337.52,90.0,7.4,-12.1,0.09,-3.88,0.74,0.06,0.96,-0.08,-76.6,-115.3,-181.0,-2.42,3.36,0.0,0.0,0.9651942809610923,3.950961908194003,0.0,0.0,2.0,0.6,0.02788061606041925,0.2,1.0,-160.0,0,0,calibrating,0,0,0,0,0,0.0
1.0232496469999433,103,337.53,90.2,7.5,-11.7,0.48,-4.04,0.61,0.07,0.96,-0.06,-77.8,-132.5,-165.0,-2.38,3.79,0.03,0.0,0.9644169222903547,4.11389110210759,0.0,0.0,2.0,0.6,0.028084815236533833,0.2,1.0,-160.0,0,0,calibrating,0,0,0,0,0,0.0
1.0313777129999835,104,337.54,90.3,7.5,-11.2,0.82,-4.13,0.4,0.08,0.99,-0.05,-79.3,-148.0,-158.0,-2.34,4.2,0.01,0.0,0.9944847912361455,4.2295744466790035,0.0,0.0,2.0,0.6,0.0019433926350719277,0.2,1.0,-160.0,0,0,calibrating,0,0,0,0,0,0.0
1.0432287769999675,105,337.55,90.5,7.5,-10.8,1.08,-4.07,0.2,0.1,1.03,-0.04,-80.8,-161.2,-129.0,-2.3,4.5,0.22,0.0,1.035615758860399,4.2156019736213235,0.0,0.0,2.0,0.6,0.04221287305413879,0.2,1.0,-160.0,0,0,calibrating,0,0,0,0,0,0.0
1.051320374999932,106,337.56,90.7,7.5,-10.4,1.25,-3.89,0.0,0.12,1.03,-0.03,-82.5,-168.3,-67.0,-2.25,4.57,-0.3,0.0,1.0374005976477938,4.085902593063129,0.0,0.0,2.0,0.6,0.043117757604703266,0.2,1.0,-160.0,0,0,calibrating,0,0,0,0,0,0.0
1.0631965729999138,107,337.57,90.9,7.5,-10.0,1.65,-3.71,-0.27,0.14,1.03,-0.01,-84.2,-164.8,23.0,-2.21,4.37,-0.1,0.0,1.0395191195932858,4.069336555263032,0.0,0.0,2.0,0.6,0.044331553959191194,0.2,1.0,-160.0,0,0,calibrating,0,0,0,0,0,0.0
1.0713900319999539,108,337.58,91.1,7.4,-9.7,2.22,-3.54,-0.65,0.17,1.04,0.0,-85.7,-152.0,106.0,-2.17,3.93,0.0,0.0,1.0538026380684384,4.228770506896774,0.0,0.0,2.0,0.6,0.05744277098565698,0.2,1.0,-160.0,0,0,calibrating,0,0,0,0,0,0.0
1.083521119000011,109,337.59,91.4,7.4,-9.3,2.67,-3.29,-1.09,0.2,1.08,0.0,-87.1,-133.6,167.0,-2.13,3.37,0.04,0.0,1.0983624174196784,4.375054285377496,0.0,0.0,2.0,0.6,0.099962499330159,0.2,1.0,-160.0,0,0,calibrating,0,0,0,0,0,0.0
1.0913779699999395,110,337.6,91.7,7.3,-9.0,2.85,-2.89,-1.52,0.23,1.15,-0.01,-88.3,-112.1,198.0,-2.1,2.79,-0.02,0.0,1.1728171212938527,4.334166586553867,0.0,0.0,2.0,0.6,0.1709288591402467,0.2,1.0,-160.0,0,0,calibrating,0,0,0,0,0,0.0
1.1033729029999222,111,337.61,92.0,7.1,-8.8,2.44,-2.35,-1.85,0.24,1.2,-0.03,-89.3,-92.1,191.0,-2.08,2.28,0.18,0.0,1.22413234578619,3.8598704641477286,0.0,0.0,2.0,0.6,0.2177992019599322,0.2,1.0,-160.0,0,0,calibrating,0,0,0,0,0,0.0
1.1113862269999117,112,337.62,92.2,7.0,-8.6,1.5,-1.87,-1.96,0.18,1.2,-0.04,-90.1,-76.9,147.0,-2.06,1.96,0.11,0.0,1.214084016862095,3.096530316337949,0.0,0.0,2.0,0.6,0.2035958555751205,0.2,1.0,-160.0,0,0,calibrating,0,0,0,0,0,0.0
1.1232945040000004,113,337.63,92.3,6.8,-8.4,0.67,-1.56,-1.81,0.06,1.14,-0.01,-90.8,-67.4,100.0,-2.04,1.76,-0.31,0.0,1.1416216536138406,2.4816526751340526,0.0,0.0,2.0,0.6,0.12851082248032886,0.2,1.0,-160.0,0,0,calibrating,0,0,0,0,0,0.0
1.131431679000002,114,337.64,92.4,6.6,-8.2,0.39,-1.62,-1.47,-0.05,1.07,0.04,-91.5,-63.4,56.0,-2.02,1.67,0.01,0.0,1.0719141756689292,2.2220261024569448,0.0,0.0,2.0,0.6,0.057627277644709096,0.2,1.0,-160.0,0,0,calibrating,0,0,0,0,0,0.0
1.1432918819999713,115,337.65,92.4,6.4,-8.1,0.64,-2.07,-1.04,-0.14,1.04,0.07,-92.1,-61.5,22.0,-2.01,1.68,-0.01,0.0,1.0517128885774862,2.4033518260962126,0.0,0.0,2.0,0.6,0.036677470742200846,0.2,1.0,-160.0,0,0,calibrating,0,0,0,0,0,0.0
1.1514000339999484,116,337.66,92.6,6.3,-7.8,1.04,-2.67,-0.6,-0.19,1.04,0.08,-92.7,-65.4,-30.0,-1.99,1.86,-0.02,0.0,1.0602358228243376,2.927541630788536,0.0,0.0,2.0,0.6,0.04429639688927112,0.2,1.0,-160.0,0,0,calibrating,0,0,0,0,0,0.0
1.163262005999968,117,337.67,92.7,6.3,-7.5,1.19,-3.3,-0.14,-0.19,1.06,0.07,-93.4,-70.4,-37.0,-1.97,1.95,-0.23,0.0,1.079166344916297,3.510797630168962,0.0,0.0,2.0,0.6,0.06196238060160586,0.2,1.0,-160.0,0,0,calibrating,0,0,0,0,0,0.0
1.1714083819999814,118,337.68,92.9,6.3,-7.2,1.03,-3.77,0.16,-0.17,1.06,0.07,-94.1,-74.3,-38.0,-1.95,2.06,0.18,0.0,1.0758252646224664,3.9114447458707633,0.0,0.0,2.0,0.6,0.057448874301620156,0.2,1.0,-160.0,0,0,calibrating,0,0,0,0,0,0.0
1.1832332789999782,119,337.69,93.0,6.3,-6.8,0.73,-4.17,0.36,-0.1,1.06,0.07,-94.9,-77.8,-39.0,-1.93,2.16,0.02,0.0,1.0670051546267245,4.248693916958481,0.0,0.0,2.0,0.6,0.04765618901976043,0.2,1.0,-160.0,0,0,calibrating,0,0,0,0,0,0.0
1.191302121999911,120,337.7,93.1,6.3,-6.3,0.5,-4.48,0.47,-0.03,1.02,0.07,-95.7,-82.3,-32.0,-1.9,2.25,0.0,0.0,1.022839185796086,4.532251096309648,0.0,0.0,2.0,0.6,0.00342041578533947,0.2,1.0,-160.0,0,0,calibrating,0,0,0,0,0,0.0
1.2035094059999665,121,337.71,93.2,6.3,-5.9,0.4,-4.75,0.5,0.04,0.99,0.07,-96.6,-83.7,-20.0,-1.88,2.28,-0.09,0.0,0.9932774033471213,4.792963592601137,0.0,0.0,2.0,0.6,0.02561853933035263,0.2,1.0,-160.0,0,0,calibrating,0,0,0,0,0,0.0
1.211407433999966,122,337.72,93.3,6.4,-5.4,0.27,-4.87,0.52,0.1,0.96,0.07,-97.4,-84.0,4.0,-1.86,2.25,-0.07,0.0,0.9677293009927931,4.9051197742766695,0.0,0.0,2.0,0.6,0.05014330885098717,0.2,1.0,-160.0,0,0,calibrating,0,0,0,0,0,0.0
1.2232720659999359,123,337.73,93.4,6.4,-4.9,0.19,-4.98,0.56,0.15,0.94,0.08,-98.2,-79.8,36.0,-1.84,2.09,-0.01,0.0,0.9552486587271399,5.014987537372352,0.0,0.0,2.0,0.6,0.06137147209430749,0.2,1.0,-160.0,0,0,calibrating,0,0,0,0,0,0.0
1.2313964679999572,124,337.74,93.4,6.4,-4.4,0.17,-5.0,0.55,0.18,0.9,0.07,-99.0,-75.0,38.0,-1.82,1.99,-0.2,0.0,0.9204890004774636,5.033030895991003,0.0,0.0,2.0,0.6,0.09420850773710432,0.2,1.0,-160.0,0,0,calibrating,0,0,0,0,0,0.0
1.2432994249999183,125,337.75,93.5,6.4,-3.9,0.23,-4.96,0.46,0.21,0.88,0.07,-99.7,-69.4,60.0,-1.8,1.79,-0.22,0.0,0.9074139077620532,4.986592022614243,0.0,0.0,2.0,0.6,0.10513792844346448,0.2,1.0,-160.0,0,0,calibrating,0,0,0,0,0,0.0
1.251338333999911,126,337.76,93.6,6.4,-3.4,0.27,-4.85,0.29,0.22,0.87,0.05,-100.3,-61.9,69.0,-1.78,1.59,-0.02,0.0,0.8987769467448528,4.866158649283848,0.0,0.0,2.0,0.6,0.11149939167145162,0.2,1.0,-160.0,0,0,calibrating,0,0,0,0,0,0.0
1.2633245719999877,127,337.77,93.7,6.4,-2.9,0.14,-4.64,0.11,0.22,0.87,0.04,-100.9,-53.3,85.0,-1.77,1.32,0.05,0.0,0.898276126811795,4.643414691797406,0.0,0.0,2.0,0.6,0.1097602073724192,0.2,1.0,-160.0,0,0,calibrating,0,0,0,0,0,0.0
1.2713798339999585,128,337.78,93.7,6.4,-2.4,0.0,-4.38,-0.07,0.21,0.87,0.05,-101.4,-42.1,108.0,-1.76,0.99,0.08,0.0,0.8963816151617569,4.380559325017754,0.0,0.0,2.0,0.6,0.10942162464200822,0.2,1.0,-160.0,0,0,calibrating,0,0,0,0,0,0.0
1.2831687719999536,129,337.79,93.8,6.4,-2.0,-0.14,-4.13,-0.24,0.2,0.88,0.04,-101.7,-31.5,101.0,-1.75,0.74,0.06,0.0,0.9033271832508972,4.139335695495111,0.0,0.0,2.0,0.6,0.10042653542181057,0.2,1.0,-160.0,0,0,calibrating,0,0,0,0,0,0.0
1.2912898509999877,130,337.8,93.8,6.3,-1.6,-0.18,-3.92,-0.34,0.19,0.89,0.04,-102.0,-24.1,75.0,-1.74,0.58,-0.05,0.0,0.9109335870413386,3.9388323142779256,0.0,0.0,2.0,0.6,0.09096372899874183,0.2,1.0,-160.0,0,0,calibrating,0,0,0,0,0,0.0
1.3035059669999782,131,337.81,93.8,6.2,-1.2,-0.2,-3.74,-0.38,0.18,0.91,0.04,-102.1,-15.2,98.0,-1.74,0.26,-0.06,0.0,0.9284934033152847,3.7645716887847946,0.0,0.0,2.0,0.6,0.07193583447029961,0.2,1.0,-160.0,0,0,calibrating,0,0,0,0,0,0.0
1.311371448999921,132,337.82,93.8,6.2,-0.9,-0.21,-3.55,-0.37,0.18,0.92,0.04,-102.2,-7.3,64.0,-1.74,0.16,-0.01,0.0,0.9382963284591921,3.575402075291673,0.0,0.0,2.0,0.6,0.06089025113986446,0.2,1.0,-160.0,0,0,calibrating,0,0,0,0,0,0.0
1.3232872059999181,133,337.83,93.9,6.1,-0.5,-0.16,-3.37,-0.36,0.18,0.93,0.04,-102.3,-3.9,47.0,-1.74,0.05,-0.1,0.0,0.9481033698917013,3.392948570196725,0.0,0.0,2.0,0.6,0.05006154551320818,0.2,1.0,-160.0,0,0,calibrating,0,0,0,0,0,0.0
1.3314082690000077,134,337.84,93.9,6.1,-0.2,-0.08,-3.21,-0.36,0.19,0.96,0.04,-102.3,0.2,38.0,-1.74,-0.03,0.14,0.0,0.979438614717635,3.231114358855161,0.0,0.0,2.0,0.6,0.018351774673528998,0.2,1.0,-160.0,0,0,calibrating,0,0,0,0,0,0.0
1.343311617999916,135,337.85,93.9,6.0,0.0,0.0,-3.05,-0.32,0.19,0.98,0.03,-102.3,0.0,4.0,-1.74,0.01,-0.02,0.0,0.9986991538997116,3.066740941129524,0.0,0.0,2.0,0.6,0.0008905892183765918,0.2,1.0,-160.0,0,0,calibrating,0,0,0,0,0,0.0
1.3512808369999902,136,337.86,93.9,5.9,0.3,0.1,-2.9,-0.27,0.2,1.0,0.03,-102.3,0.1,3.0,-1.74,0.0,0.17,0.0,1.0202450685987166,2.9142580530900144,0.0,0.0,2.0,0.6,0.02198777383903383,0.2,1.0,-160.0,0,0,calibrating,0,0,0,0,0,0.0
1.3632783059999838,137,337.87,94.0,5.9,0.6,0.14,-2.75,-0.2,0.2,1.01,0.01,-102.3,0.0,1.0,-1.74,0.0,0.08,0.0,1.0296601381038308,2.760815097032034,0.0,0.0,2.0,0.6,0.03077478647726517,0.2,1.0,-160.0,0,0,calibrating,0,0,0,0,0,0.0
1.3713774199999307,138,337.88,94.0,5.9,0.9,0.14,-2.58,-0.13,0.2,1.02,0.0,-102.3,0.0,0.0,-1.74,0.0,0.08,0.0,1.0394229168149027,2.5870639729237466,0.0,0.0,2.0,0.6,0.03972681388457033,0.2,1.0,-160.0,0,0,calibrating,0,0,0,0,0,0.0
1.3832569009999816,139,337.89,94.1,5.8,1.1,0.05,-2.38,-0.04,0.2,1.03,0.0,-102.3,-0.1,0.0,-1.74,0.0,-0.03,0.0,1.049237818609299,2.380861188729826,0.0,0.0,2.0,0.6,0.04855088136538721,0.2,1.0,-160.0,0,0,calibrating,0,0,0,0,0,0.0
1.39123895299997,140,337.9,94.1,5.8,1.3,-0.04,-2.15,0.03,0.2,1.04,-0.01,-102.3,0.0,-2.0,-1.74,0.0,0.09,0.0,1.059103394386025,2.1505813167606567,0.0,0.0,2.0,0.6,0.057248127999270926,0.2,1.0,-160.0,0,0,calibrating,0,0,0,0,0,0.0
1.4035658379999632,141,337.91,94.1,5.8,1.5,-0.09,-1.97,0.11,0.2,1.04,-0.01,-102.3,-0.4,0.0,-1.74,0.0,0.03,0.0,1.059103394386025,1.975120249503812,0.0,0.0,2.0,0.6,0.05610316543928562,0.2,1.0,-160.0,0,0,calibrating,0,0,0,0,0,0.0
1.4112584409999727,142,337.92,94.1,5.9,1.7,-0.14,-1.81,0.2,0.2,1.05,-0.03,-102.3,-0.2,-2.0,-1.74,0.0,0.15,0.0,1.069298835686264,1.826389881706532,0.0,0.0,2.0,0.6,0.06497263460473413,0.2,1.0,-160.0,0,0,calibrating,0,0,0,0,0,0.0
1.4232677579999518,143,337.93,94.1,5.9,1.9,-0.18,-1.64,0.31,0.19,1.06,-0.04,-102.3,-1.1,-6.0,-1.74,0.03,-0.09,0.0,1.0776363022838458,1.6787197502859135,0.0,0.0,2.0,0.6,0.0718438991782695,0.2,1.0,-160.0,0,0,calibrating,0,0,0,0,0,0.0
1.431410059999962,144,337.94,94.1,6.0,2.1,-0.17,-1.42,0.45,0.18,1.08,-0.05,-102.3,-2.7,-14.0,-1.73,0.09,0.15,0.0,1.0960383204979651,1.4992664873197161,0.0,0.0,2.0,0.6,0.08844099904454117,0.2,1.0,-160.0,0,0,calibrating,0,0,0,0,0,0.0
1.443248634999918,145,337.95,94.0,6.1,2.2,-0.07,-1.21,0.64,0.17,1.1,-0.04,-102.4,-4.6,-16.0,-1.73,0.14,-0.03,0.0,1.113777356566383,1.3706202975295527,0.0,0.0,2.0,0.6,0.1040564344107,0.2,1.0,-160.0,0,0,calibrating,0,0,0,0,0,0.0
1.4511912659999098,146,337.96,94.0,6.2,2.3,-0.01,-1.07,0.86,0.17,1.12,-0.04,-102.4,-8.5,-41.0,-1.73,0.3,-0.05,0.0,1.1335342959081565,1.3728073426377059,0.0,0.0,2.0,0.6,0.121337106277424,0.2,1.0,-160.0,0,0,calibrating,0,0,0,0,0,0.0
1.4633134260000134,147,337.97,94.0,6.3,2.4,-0.16,-0.99,1.08,0.16,1.11,-0.04,-102.6,-13.5,-41.0,-1.73,0.41,-0.03,0.0,1.122185367931698,1.4738046003456498,0.0,0.0,2.0,0.6,0.10778841473494594,0.2,1.0,-160.0,0,0,calibrating,0,0,0,0,0,0.0
1.4713839569999436,148,337.98,94.0,6.4,2.5,-0.4,-0.99,1.21,0.15,1.08,-0.04,-102.7,-21.3,-78.0,-1.72,0.7,0.18,0.0,1.0911003620199198,1.6137533888422975,0.0,0.0,2.0,0.6,0.07516934064670466,0.2,1.0,-160.0,0,0,calibrating,0,0,0,0,0,0.0
1.4832035470000164,149,337.99,93.9,6.5,2.6,-0.66,-1.0,1.29,0.14,1.04,-0.04,-103.0,-31.5,-100.0,-1.71,1.01,0.17,0.0,1.0501428474260062,1.7605964898295123,0.0,0.0,2.0,0.6,0.03352758953173529,0.2,1.0,-160.0,0,0,calibrating,0,0,0,0,0,0.0
1.4913305129999799,150,338.0,93.9,6.7,2.7,-0.79,-1.05,1.31,0.14,1.01,-0.04,-103.4,-38.3,-88.0,-1.7,1.1,-0.08,0.0,1.020441081101697,1.8554514275507188,0.0,0.0,2.0,0.6,0.0037493067432776694,0.2,1.0,-160.0,0,0,calibrating,0,0,0,0,0,0.0
1.5035776080000005,151,338.01,93.8,6.8,2.9,-0.88,-1.11,1.33,0.14,0.98,-0.04,-103.8,-40.6,-28.0,-1.69,1.09,-0.11,0.0,0.9907572861200667,1.9430388570484123,0.0,0.0,2.0,0.6,0.02541579847358555,0.2,1.0,-160.0,0,0,calibrating,0,0,0,0,0,0.0
1.5113430440000002,152,338.02,93.7,7.0,3.0,-0.88,-1.16,1.32,0.14,0.97,-0.04,-104.2,-40.6,-9.0,-1.68,1.09,0.06,0.0,0.9808669634563089,1.9652989594461194,0.0,0.0,2.0,0.6,0.034599998714596514,0.2,1.0,-160.0,0,0,calibrating,0,0,0,0,0,0.0
1.5233322130000033,153,338.03,93.6,7.1,3.1,-0.94,-1.16,1.29,0.15,0.96,-0.03,-104.6,-40.5,-2.0,-1.67,1.09,0.05,0.0,0.972111104761179,1.9731446981911893,0.0,0.0,2.0,0.6,0.04248874026153193,0.2,1.0,-160.0,0,0,calibrating,0,0,0,0,0,0.0
1.5313908619999665,154,338.04,93.5,7.2,3.2,-0.98,-1.14,1.22,0.16,0.95,-0.05,-105.0,-39.5,11.0,-1.66,1.04,-0.13,0.0,0.9646761114488115,1.9360785108047658,0.0,0.0,2.0,0.6,0.04892525890242139,0.2,1.0,-160.0,0,0,calibrating,0,0,0,0,0,0.0
1.543174459999932,155,338.05,93.4,7.4,3.4,-1.08,-1.03,1.14,0.17,0.95,-0.06,-105.4,-36.0,24.0,-1.65,0.95,-0.16,0.0,0.9669539802906858,1.878004259846074,0.0,0.0,2.0,0.6,0.045714442259336185,0.2,1.0,-160.0,0,0,calibrating,0,0,0,0,0,0.0
1.5513940859999593,156,338.06,93.3,7.5,3.5,-1.17,-0.88,1.05,0.19,0.94,-0.05,-105.7,-32.2,34.0,-1.64,0.83,-0.1,0.0,0.9603124491539199,1.8016103907338012,0.0,0.0,2.0,0.6,0.051308853928180076,0.2,1.0,-160.0,0,0,calibrating,0,0,0,0,0,0.0
1.563294294000002,157,338.07,93.2,7.7,3.5,-1.21,-0.71,1.01,0.2,0.94,-0.07,-106.0,-24.8,69.0,-1.63,0.57,-0.02,0.0,0.9635870484808313,1.7286700089953546,0.0,0.0,2.0,0.6,0.04707356950924324,0.2,1.0,-160.0,0,0,calibrating,0,0,0,0,0,0.0
1.5713333469999498,158,338.08,93.1,7.8,3.6,-1.22,-0.52,1.01,0.2,0.95,-0.07,-106.2,-17.5,69.0,-1.63,0.39,-0.11,0.0,0.973344748791506,1.667003299336867,0.0,0.0,2.0,0.6,0.03656955181459709,0.2,1.0,-160.0,0,0,calibrating,0,0,0,0,0,0.0
1.5835594169999467,159,338.09,93.0,7.9,3.7,-1.28,-0.37,1.02,0.2,0.94,-0.07,-106.3,-8.2,93.0,-1.63,0.09,0.03,0.0,0.9635870484808313,1.67800476757368,0.0,0.0,2.0,0.6,0.045400707082766445,0.2,1.0,-160.0,0,0,calibrating,0,0,0,0,0,0.0
1.5913354030000164,160,338.1,92.9,8.1,3.7,-1.32,-0.26,1.0,0.2,0.94,-0.06,-106.4,1.6,87.0,-1.63,-0.12,0.04,0.0,0.9629122493768578,1.6763054614240211,0.0,0.0,2.0,0.6,0.0451539960630053,0.2,1.0,-160.0,0,0,calibrating,0,0,0,0,0,0.0
1.6032756099999688,161,338.11,92.8,8.2,3.7,-1.4,-0.14,0.93,0.2,0.93,-0.07,-106.3,3.2,9.0,-1.63,-0.01,-0.13,0.0,0.9538343671728338,1.6865645555388622,0.0,0.0,2.0,0.6,0.053147240701688636,0.2,1.0,-160.0,0,0,calibrating,0,0,0,0,0,0.0
1.6129247829999258,162,338.12,92.7,8.4,3.7,-1.47,-0.02,0.83,0.2,0.91,-0.07,-106.3,-0.7,-5.0,-1.63,0.0,-0.02,0.0,0.9343446901438462,1.688253535462017,0.0,0.0,2.0,0.6,0.0711841793760627,0.2,1.0,-160.0,0,0,calibrating,0,0,0,0,0,0.0
1.6227087349999465,163,338.13,92.5,8.5,3.7,-1.54,0.1,0.69,0.19,0.9,-0.08,-106.3,0.7,6.0,-1.63,-0.02,0.0,0.0,0.9233092656309694,1.6904733065032407,0.0,0.0,2.0,0.6,0.08057521181116067,0.2,1.0,-160.0,0,0,calibrating,0,0,0,0,0,0.0
1.6312498899999355,164,338.14,92.4,8.6,3.7,-1.49,0.22,0.55,0.19,0.9,-0.08,-106.3,0.2,-4.0,-1.63,0.0,0.03,0.0,0.9233092656309694,1.6034338152851835,0.0,0.0,2.0,0.6,0.07896370757493743,0.2,1.0,-160.0,0,0,calibrating,0,0,0,0,0,0.0
1.6432453510000187,165,338.15,92.3,8.6,3.7,-1.43,0.32,0.41,0.19,0.89,-0.09,-106.3,-0.2,-2.0,-1.63,0.0,-0.03,0.0,0.9144943958275523,1.5216438479486583,0.0,0.0,2.0,0.6,0.08602300583078748,0.2,1.0,-160.0,0,0,calibrating,0,0,0,0,0,0.0
1.6513719439999477,166,338.16,92.2,8.7,3.7,-1.37,0.43,0.25,0.18,0.9,-0.1,-106.3,0.3,2.0,-1.63,0.0,-0.03,0.0,0.9232551110067033,1.4574978559160903,0.0,0.0,2.0,0.6,0.07571704483860375,0.2,1.0,-160.0,0,0,calibrating,0,0,0,0,0,0.0
1.663270306999948,167,338.17,92.1,8.8,3.6,-1.37,0.55,0.07,0.18,0.9,-0.11,-106.3,0.6,2.0,-1.63,-0.01,-0.15,0.0,0.9243916918709298,1.4779377524104322,0.0,0.0,2.0,0.6,0.07308885469488968,0.2,1.0,-160.0,0,0,calibrating,0,0,0,0,0,0.0
1.671353976999967,168,338.18,92.0,8.8,3.6,-1.38,0.67,-0.09,0.18,0.91,-0.12,-106.3,-0.3,-6.0,-1.63,0.01,-0.06,0.0,0.9353608929178086,1.53668474320532,0.0,0.0,2.0,0.6,0.06087726057505072,0.2,1.0,-160.0,0,0,calibrating,0,0,0,0,0,0.0
1.6832774069999914,169,338.19,91.9,8.8,3.5,-1.37,0.8,-0.25,0.17,0.91,-0.12,-106.3,0.0,-1.0,-1.63,0.0,-0.06,0.0,0.9334880824091971,1.6060510577189009,0.0,0.0,2.0,0.6,0.06149506966198892,0.2,1.0,-160.0,0,0,calibrating,0,0,0,0,0,0.0
1.6912383559999853,170,338.2,91.8,8.8,3.4,-1.29,0.94,-0.4,0.17,0.91,-0.12,-106.3,0.3,2.0,-1.63,0.0,0.0,0.0,0.9334880824091971,1.6455090397806995,0.0,0.0,2.0,0.6,0.06026516826874917,0.2,1.0,-160.0,0,0,calibrating,0,0,0,0,0,0.0
1.7033045929999844,171,338.21,91.7,8.7,3.3,-1.19,1.04,-0.52,0.17,0.92,-0.11,-106.3,-0.1,-5.0,-1.63,0.01,0.12,0.0,0.942019108086455,1.6637608001152089,0.0,0.0,2.0,0.6,0.0506994597396615,0.2,1.0,-160.0,0,0,calibrating,0,0,0,0,0,0.0
1.711322025999948,172,338.22,91.6,8.7,3.2,-1.09,1.14,-0.57,0.18,0.93,-0.1,-106.3,0.0,0.0,-1.63,0.0,-0.09,0.0,0.9525229656024048,1.6770807970995316,0.0,0.0,2.0,0.6,0.03939169017923738,0.2,1.0,-160.0,0,0,calibrating,0,0,0,0,0,0.0
1.7233127769999328,173,338.23,91.5,8.7,3.1,-1.03,1.25,-0.63,0.17,0.92,-0.1,-106.3,-0.1,0.0,-1.63,0.0,0.0,0.0,0.9409038208021052,1.7379010328554385,0.0,0.0,2.0,0.6,0.04999061827994622,0.2,1.0,-160.0,0,0,calibrating,0,0,0,0,0,0.0
1.7312787160000198,174,338.24,91.5,8.6,3.0,-0.96,1.36,-0.68,0.17,0.91,-0.1,-106.3,-0.1,0.0,-1.63,0.0,0.09,0.0,0.9311283477587825,1.7982213434391219,0.0,0.0,2.0,0.6,0.05857076949680351,0.2,1.0,-160.0,0,0,calibrating,0,0,0,0,0,0.0
1.743309290999946,175,338.25,91.4,8.6,2.8,-0.85,1.49,-0.75,0.17,0.89,-0.1,-106.3,0.0,-2.0,-1.63,0.01,0.02,0.0,0.9115920140062659,1.8721912295489473,0.0,0.0,2.0,0.6,0.07654496118433374,0.2,1.0,-160.0,0,0,calibrating,0,0,0,0,0,0.0
1.7513774689999764,176,338.26,91.4,8.5,2.7,-0.63,1.63,-0.82,0.16,0.88,-0.11,-106.3,-0.8,-3.0,-1.63,0.02,-0.03,0.0,0.9011659114724657,1.9303367581849544,0.0,0.0,2.0,0.6,0.08523164244377124,0.2,1.0,-160.0,0,0,calibrating,0,0,0,0,0,0.0
1.7633442259999583,177,338.27,91.3,8.5,2.5,-0.32,1.75,-0.83,0.16,0.89,-0.1,-106.3,-0.8,-5.0,-1.63,0.03,-0.13,0.0,0.9097801932335084,1.9631097778779463,0.0,0.0,2.0,0.6,0.07508501346907392,0.2,1.0,-160.0,0,0,calibrating,0,0,0,0,0,0.0
1.7712768849999065,178,338.28,91.3,8.4,2.3,-0.08,1.88,-0.82,0.15,0.89,-0.1,-106.3,-1.2,-4.0,-1.63,0.04,0.04,0.0,0.9080748867797193,2.0526080970316762,0.0,0.0,2.0,0.6,0.07525451352440582,0.2,1.0,-160.0,0,0,calibrating,0,0,0,0,0,0.0
1.7833163969999077,179,338.29,91.4,8.4,2.2,0.11,1.95,-0.82,0.15,0.9,-0.1,-106.3,-2.6,-11.0,-1.63,0.08,-0.01,0.0,0.917877987534291,2.1182539979898536,0.0,0.0,2.0,0.6,0.06414238451443743,0.2,1.0,-160.0,0,0,calibrating,0,0,0,0,0,0.0
1.7913403430000017,180,338.3,91.4,8.3,2.0,0.24,1.99,-0.78,0.15,0.91,-0.1,-106.4,-5.1,-29.0,-1.62,0.2,-0.18,0.0,0.9276852914647294,2.1508370463612536,0.0,0.0,2.0,0.6,0.05324837897231893,0.2,1.0,-160.0,0,0,calibrating,0,0,0,0,0,0.0
1.8034551989999272,181,338.31,91.5,8.2,1.8,0.4,1.98,-0.7,0.15,0.92,-0.1,-106.5,-9.7,-34.0,-1.62,0.29,-0.03,0.0,0.9374966666607407,2.137849386650051,0.0,0.0,2.0,0.6,0.042568263700781483,0.2,1.0,-160.0,0,0,calibrating,0,0,0,0,0,0.0
1.8114019209999697,182,338.32,91.5,8.2,1.6,0.58,1.92,-0.61,0.15,0.94,-0.1,-106.6,-15.9,-76.0,-1.62,0.58,0.12,0.0,0.9571311299921239,2.0964016790682076,0.0,0.0,2.0,0.6,0.02247512436201038,0.2,1.0,-160.0,0,0,calibrating,0,0,0,0,0,0.0
1.8232044799999585,183,338.33,91.6,8.1,1.4,0.77,1.86,-0.5,0.15,0.96,-0.11,-106.8,-27.7,-98.0,-1.61,0.87,-0.45,0.0,0.9778547949465708,2.074246851269154,0.0,0.0,2.0,0.6,0.0017164302194122572,0.2,1.0,-160.0,0,0,calibrating,0,0,0,0,0,0.0
1.8311807249999674,184,338.34,91.7,8.1,1.2,0.88,1.84,-0.42,0.15,0.98,-0.13,-107.2,-40.7,-130.0,-1.6,1.28,0.01,0.0,0.9998999949994999,2.082402458700047,0.0,0.0,2.0,0.6,0.019922194436846508,0.2,1.0,-160.0,0,0,calibrating,0,0,0,0,0,0.0
1.8432907010000008,185,338.35,91.9,8.1,1.0,0.94,1.87,-0.41,0.16,0.99,-0.14,-107.7,-55.6,-145.0,-1.58,1.7,0.28,0.0,1.0125709851659783,2.1327447104611466,0.0,0.0,2.0,0.6,0.03194132091125845,0.2,1.0,-160.0,0,0,calibrating,0,0,0,0,0,0.0
1.851340764999918,186,338.36,92.0,8.1,0.8,0.95,2.01,-0.33,0.18,1.03,-0.13,-108.4,-72.3,-160.0,-1.56,2.17,0.06,0.0,1.0536602868097478,2.2475542262646298,0.0,0.0,2.0,0.6,0.07157001010392738,0.2,1.0,-160.0,0,0,calibrating,0,0,0,0,0,0.0
1.8631942039999103,187,338.37,92.1,8.1,0.6,0.93,2.19,-0.19,0.17,1.04,-0.11,-109.2,-87.5,-152.0,-1.54,2.57,-0.14,0.0,1.0595281968876524,2.3868598618268315,0.0,0.0,2.0,0.6,0.07588916177819538,0.2,1.0,-160.0,0,0,calibrating,0,0,0,0,0,0.0
1.8713938149999194,188,338.38,92.2,8.1,0.4,1.14,2.32,-0.03,0.17,1.05,-0.08,-110.2,-103.8,-162.0,-1.51,3.03,-0.08,0.0,1.0666770832824712,2.5851305576314707,0.0,0.0,2.0,0.6,0.08137728720955395,0.2,1.0,-160.0,0,0,calibrating,0,0,0,0,0,0.0
1.8832906439999988,189,338.39,92.3,8.1,0.2,1.3,2.33,0.11,0.16,1.05,-0.07,-111.4,-120.8,-162.0,-1.47,3.46,-0.1,0.0,1.0644247272588137,2.670393229470147,0.0,0.0,2.0,0.6,0.07754243256217841,0.2,1.0,-160.0,0,0,calibrating,0,0,0,0,0,0.0
1.8912782989999641,190,338.4,92.4,8.1,0.0,1.36,2.33,0.2,0.17,1.04,-0.08,-112.7,-136.4,-156.0,-1.44,3.89,0.14,0.0,1.0568348972285122,2.7052726295144454,0.0,0.0,2.0,0.6,0.06855355048123968,0.2,1.0,-160.0,0,0,calibrating,0,0,0,0,0,0.0
1.9034781279999606,191,338.41,92.6,8.2,-0.2,1.48,2.4,0.3,0.17,1.08,-0.06,-114.2,-152.7,-156.0,-1.39,4.32,0.17,0.0,1.0949429208867465,2.835559909435877,0.0,0.0,2.0,0.6,0.10452834265668431,0.2,1.0,-160.0,0,0,calibrating,0,0,0,0,0,0.0
1.9114106649999485,192,338.42,92.7,8.2,-0.4,1.5,2.49,0.48,0.16,1.13,-0.02,-115.8,-166.8,-147.0,-1.35,4.71,0.04,0.0,1.1414464507807625,2.9462688268384474,0.0,0.0,2.0,0.6,0.14801123509968628,0.2,1.0,-160.0,0,0,calibrating,0,0,0,0,0,0.0
1.923220194999999,193,338.43,92.8,8.3,-0.7,1.49,2.51,0.71,0.12,1.16,0.0,-117.6,-179.9,-131.0,-1.3,5.04,0.15,0.0,1.16619037896906,3.0040472699343463,0.0,0.0,2.0,0.6,0.16930006002222409,0.2,1.0,-160.0,0,0,calibrating,0,0,0,0,0,0.0
1.931377887999929,194,338.44,92.8,8.4,-0.9,1.35,2.42,0.87,0.1,1.19,0.03,-119.4,-192.8,-126.0,-1.25,5.39,-0.16,0.0,1.194571052721436,2.9044448695060474,0.0,0.0,2.0,0.6,0.1937271190991081,0.2,1.0,-160.0,0,0,calibrating,0,0,0,0,0,0.0
1.9432768099999294,195,338.45,92.9,8.5,-1.2,0.95,2.26,1.03,0.09,1.2,0.06,-121.4,-203.0,-104.0,-1.19,5.62,0.05,0.0,1.2048651376813921,2.6591351977663713,0.0,0.0,2.0,0.6,0.19994077997788295,0.2,1.0,-160.0,0,0,calibrating,0,0,0,0,0,0.0
1.951277819999973,196,338.46,93.0,8.6,-1.4,0.52,2.05,1.09,0.08,1.16,0.05,-123.5,-212.1,-96.0,-1.13,5.88,0.01,0.0,1.1638298844762494,2.379285607067802,0.0,0.0,2.0,0.6,0.15572741623728525,0.2,1.0,-160.0,0,0,calibrating,0,0,0,0,0,0.0
1.963309785999968,197,338.47,93.0,8.7,-1.6,0.18,1.85,1.05,0.08,1.11,0.06,-125.7,-217.8,-55.0,-1.07,5.95,-0.07,0.0,1.114495401515861,2.134806782826024,0.0,0.0,2.0,0.6,0.10426507461135892,0.2,1.0,-160.0,0,0,calibrating,0,0,0,0,0,0.0
1.9712500929999806,198,338.48,92.9,8.8,-1.8,0.05,1.75,0.97,0.11,1.05,0.05,-127.9,-219.3,-20.0,-1.01,5.95,0.11,0.0,1.056929515152264,2.0014744564945115,0.0,0.0,2.0,0.6,0.04576520448280674,0.2,1.0,-160.0,0,0,calibrating,0,0,0,0,0,0.0
1.9831769809999287,199,338.49,92.9,8.9,-1.9,0.23,1.74,0.82,0.16,0.99,0.04,-130.1,-217.6,5.0,-0.95,5.89,-0.06,0.0,1.0036433629531958,1.9372403051764127,0.0,0.0,2.0,0.6,0.007370528761936335,0.2,1.0,-160.0,0,0,calibrating,0,0,0,0,0,0.0
1.9913039019999133,200,338.5,92.9,9.0,-2.1,0.45,1.87,0.61,0.21,0.95,0.03,-132.3,-216.6,10.0,-0.89,5.86,0.09,0.0,0.9733961166965892,2.0177958271341527,0.0,0.0,2.0,0.6,0.036865419518171905,0.2,1.0,-160.0,0,0,calibrating,0,0,0,0,0,0.0
2.003574308999987,201,338.51,92.9,9.1,-2.3,0.66,2.14,0.37,0.26,0.94,0.01,-134.4,-213.9,32.0,-0.84,5.73,-0.03,0.0,0.9753460924205315,2.2698237817064126,0.0,0.0,2.0,0.6,0.034217134918345105,0.2,1.0,-160.0,0,0,calibrating,0,0,0,0,0,0.0
2.011297849000016,202,338.52,92.9,9.1,-2.6,0.79,2.51,0.2,0.3,0.96,0.01,-136.5,-206.5,64.0,-0.78,5.51,-0.04,0.0,1.005832988124768,2.6389770745499095,0.0,0.0,2.0,0.6,0.0036556344298264154,0.2,1.0,-160.0,0,0,calibrating,0,0,0,0,0,0.0
2.02313587499998,203,338.53,93.0,9.1,-2.8,0.96,2.93,0.06,0.32,0.97,0.0,-138.5,-197.6,80.0,-0.73,5.27,-0.12,0.0,1.021420579389313,3.083845002590111,0.0,0.0,2.0,0.6,0.011693317698024064,0.2,1.0,-160.0,0,0,calibrating,0,0,0,0,0,0.0
2.0313303179999593,204,338.54,93.0,9.1,-3.1,1.09,3.31,-0.05,0.3,0.99,0.02,-140.4,-189.6,78.0,-0.68,5.05,0.0,0.0,1.0346496991735898,3.4852116148090637,0.0,0.0,2.0,0.6,0.024423988732654944,0.2,1.0,-160.0,0,0,calibrating,0,0,0,0,0,0.0
2.043205096999941,205,338.55,93.1,9.2,-3.5,1.1,3.61,-0.18,0.25,1.01,0.03,-142.3,-182.9,68.0,-0.63,4.89,0.09,0.0,1.0409130607308181,3.7781609282824364,0.0,0.0,2.0,0.6,0.030073603284085593,0.2,1.0,-160.0,0,0,calibrating,0,0,0,0,0,0.0
2.051114838999979,206,338.56,93.1,9.1,-3.9,0.91,3.81,-0.32,0.19,1.02,0.05,-143.9,-176.4,78.0,-0.58,4.68,-0.14,0.0,1.0387492478938312,3.930216279036053,0.0,0.0,2.0,0.6,0.027351594638156618,0.2,1.0,-160.0,0,0,calibrating,0,0,0,0,0,0.0
2.063219391999951,207,338.57,93.1,9.1,-4.3,0.67,3.92,-0.42,0.14,1.03,0.07,-145.6,-167.7,86.0,-0.54,4.44,-0.3,0.0,1.0418253212511202,3.9989623654143083,0.0,0.0,2.0,0.6,0.02981911463553666,0.2,1.0,-160.0,0,0,calibrating,0,0,0,0,0,0.0
2.0712334339999643,208,338.58,93.1,9.1,-4.7,0.44,3.99,-0.49,0.08,1.01,0.08,-147.2,-157.6,93.0,-0.5,4.18,0.16,0.0,1.016316879718132,4.043983184930422,0.0,0.0,2.0,0.6,0.004224459640497447,0.2,1.0,-160.0,0,0,calibrating,0,0,0,0,0,0.0
2.083247412999981,209,338.59,93.0,9.1,-5.1,0.28,4.0,-0.62,0.04,0.99,0.1,-148.7,-149.2,82.0,-0.46,3.97,-0.05,0.0,0.9958413528268446,4.057437615047211,0.0,0.0,2.0,0.6,0.015926045905773956,0.2,1.0,-160.0,0,0,calibrating,0,0,0,0,0,0.0
2.091177853999966,210,338.6,93.0,9.0,-5.5,0.23,3.99,-0.7,0.03,0.99,0.11,-150.1,-141.6,75.0,-0.42,3.77,0.01,0.0,0.9965440281292142,4.057462261069103,0.0,0.0,2.0,0.6,0.014918903191336375,0.2,1.0,-160.0,0,0,calibrating,0,0,0,0,0,0.0
2.1034452409999176,211,338.61,93.0,9.0,-5.9,0.16,3.95,-0.73,0.02,0.99,0.12,-151.5,-134.8,70.0,-0.38,3.57,0.02,0.0,0.9974467404327911,4.020074626173002,0.0,0.0,2.0,0.6,0.013735867070004182,0.2,1.0,-160.0,0,0,calibrating,0,0,0,0,0,0.0
2.115410623999992,212,338.62,92.9,8.9,-6.3,0.08,3.9,-0.73,0.03,0.98,0.12,-152.8,-129.5,54.0,-0.35,3.46,-0.03,0.0,0.9877752780870758,3.968538773906587,0.0,0.0,2.0,0.6,0.02293918282740537,0.2,1.0,-160.0,0,0,calibrating,0,0,0,0,0,0.0
2.1231795029999603,213,338.63,92.8,8.9,-6.7,-0.11,3.9,-0.72,0.04,0.96,0.12,-154.1,-124.7,51.0,-0.31,3.33,-0.05,0.0,0.9682974749528164,3.967429898561536,0.0,0.0,2.0,0.6,0.041568646242431395,0.2,1.0,-160.0,0,0,calibrating,0,0,0,0,0,0.0
2.1314402929999687,214,338.64,92.8,8.8,-7.1,-0.33,3.93,-0.68,0.07,0.94,0.12,-155.3,-120.7,40.0,-0.28,3.23,-0.03,0.0,0.9502105029939418,4.0020244876812034,0.0,0.0,2.0,0.6,0.058462505837279855,0.2,1.0,-160.0,0,0,calibrating,0,0,0,0,0,0.0
2.1429655239999192,215,338.65,92.7,8.8,-7.5,-0.43,3.97,-0.64,0.08,0.91,0.1,-156.5,-114.7,56.0,-0.25,3.05,0.12,0.0,0.9189668111526118,4.044181004851292,0.0,0.0,2.0,0.6,0.08791207372503773,0.2,1.0,-160.0,0,0,calibrating,0,0,0,0,0,0.0
2.151260230999924,216,338.66,92.6,8.7,-7.9,-0.32,4.01,-0.63,0.09,0.89,0.09,-157.6,-108.5,62.0,-0.22,2.86,-0.1,0.0,0.8990550594930212,4.071780937133037,0.0,0.0,2.0,0.6,0.10566734887693585,0.2,1.0,-160.0,0,0,calibrating,0,0,0,0,0,0.0
2.163185167999927,217,338.67,92.5,8.7,-8.3,-0.1,4.07,-0.63,0.08,0.89,0.09,-158.6,-101.2,72.0,-0.19,2.65,-0.01,0.0,0.8981091247727082,4.119684453935762,0.0,0.0,2.0,0.6,0.10448101792530395,0.2,1.0,-160.0,0,0,calibrating,0,0,0,0,0,0.0
2.171362234999947,218,338.68,92.4,8.6,-8.7,-0.01,4.15,-0.62,0.06,0.9,0.08,-159.6,-94.0,66.0,-0.17,2.48,-0.04,0.0,0.9055385138137417,4.196069589508735,0.0,0.0,2.0,0.6,0.09511059630658503,0.2,1.0,-160.0,0,0,calibrating,0,0,0,0,0,0.0
2.1832279819999485,219,338.69,92.3,8.6,-9.2,-0.08,4.23,-0.57,0.03,0.92,0.08,-160.5,-86.5,73.0,-0.14,2.27,-0.15,0.0,0.9239588735436226,4.268981143083207,0.0,0.0,2.0,0.6,0.07515643184517007,0.2,1.0,-160.0,0,0,calibrating,0,0,0,0,0,0.0
2.191236936999985,220,338.7,92.3,8.6,-9.6,-0.19,4.27,-0.49,0.0,0.93,0.09,-161.3,-78.7,81.0,-0.12,2.02,-0.08,0.0,0.9343446901438462,4.302220356978475,0.0,0.0,2.0,0.6,0.06347520294004749,0.2,1.0,-160.0,0,0,calibrating,0,0,0,0,0,0.0
2.203442791999919,221,338.71,92.2,8.5,-10.0,-0.21,4.23,-0.39,-0.01,0.94,0.1,-162.0,-70.8,76.0,-0.1,1.83,-0.03,0.0,0.9453570753953238,4.253128260468993,0.0,0.0,2.0,0.6,0.051413561334798574,0.2,1.0,-160.0,0,0,calibrating,0,0,0,0,0,0.0
2.2114480579999736,222,338.72,92.1,8.5,-10.5,-0.08,4.12,-0.31,-0.02,0.95,0.1,-162.7,-63.1,79.0,-0.09,1.61,0.0,0.0,0.9554580053565933,4.132420598148257,0.0,0.0,2.0,0.6,0.04048637874605843,0.2,1.0,-160.0,0,0,calibrating,0,0,0,0,0,0.0
2.223096608999981,223,338.73,92.0,8.5,-10.9,0.19,3.94,-0.27,-0.02,0.96,0.1,-163.2,-55.3,78.0,-0.07,1.4,0.06,0.0,0.9654014708917735,3.9538082907495653,0.0,0.0,2.0,0.6,0.029932054946660624,0.2,1.0,-160.0,0,0,calibrating,0,0,0,0,0,0.0
2.231441459999928,224,338.74,92.0,8.5,-11.3,0.4,3.8,-0.22,-0.01,0.99,0.08,-163.7,-46.7,87.0,-0.06,1.15,0.53,0.0,0.9932774033471213,3.8273228241160946,0.0,0.0,2.0,0.6,0.002015000041486581,0.2,1.0,-160.0,0,0,calibrating,0,0,0,0,0,0.0
2.2430786630000057,225,338.75,92.0,8.5,-11.6,0.45,3.69,-0.17,0.0,1.0,0.06,-164.1,-35.1,121.0,-0.05,0.76,0.0,0.0,1.0017983829094554,3.7212229172679243,0.0,0.0,2.0,0.6,0.00637585993043055,0.2,1.0,-160.0,0,0,calibrating,0,0,0,0,0,0.0
2.2512103870000146,226,338.76,92.0,8.5,-12.0,0.42,3.58,-0.12,0.03,1.0,0.05,-164.4,-20.9,127.0,-0.05,0.41,-0.22,0.0,1.0016985574512922,3.606549597607109,0.0,0.0,2.0,0.6,0.0061505137828221645,0.2,1.0,-160.0,0,0,calibrating,0,0,0,0,0,0.0
2.2632224259999703,227,338.77,92.0,8.5,-12.4,0.52,3.44,-0.12,0.06,0.99,0.05,-164.5,-4.3,165.0,-0.05,-0.09,0.08,0.0,0.9930760293149764,3.4811492355255327,0.0,0.0,2.0,0.6,0.002422574066423988,0.2,1.0,-160.0,0,0,calibrating,0,0,0,0,0,0.0
2.271322672999986,228,338.78,92.0,8.5,-12.7,0.76,3.26,-0.18,0.07,0.99,0.05,-164.4,8.0,105.0,-0.05,-0.28,0.18,0.0,0.9937303457175894,3.352252973747656,0.0,0.0,2.0,0.6,0.001732892510534767,0.2,1.0,-160.0,0,0,calibrating,0,0,0,0,0,0.0
2.283217029999946,229,338.79,92.0,8.5,-13.0,1.04,3.09,-0.31,0.08,1.0,0.03,-164.3,9.8,50.0,-0.05,-0.31,0.0,0.0,1.0036433629531956,3.2750267174482715,0.0,0.0,2.0,0.6,0.008016522230570144,0.2,1.0,-160.0,0,0,calibrating,0,0,0,0,0,0.0
2.291200914000001,230,338.8,92.1,8.4,-13.3,1.14,3.0,-0.47,0.08,1.03,0.02,-164.2,18.1,90.0,-0.06,-0.64,-0.17,0.0,1.0332956982393762,3.2435320254315356,0.0,0.0,2.0,0.6,0.036915480366415565,0.2,1.0,-160.0,0,0,calibrating,0,0,0,0,0,0.0
2.303401527999995,231,338.81,92.1,8.3,-13.7,0.98,2.97,-0.62,0.07,1.04,0.01,-163.9,31.7,123.0,-0.07,-1.03,-0.09,0.0,1.042401074443038,3.1883694892530885,0.0,0.0,2.0,0.6,0.04510043943867592,0.2,1.0,-160.0,0,0,calibrating,0,0,0,0,0,0.0
2.3114224060000197,232,338.82,92.1,8.2,-14.0,0.81,2.94,-0.73,0.06,1.04,0.02,-163.5,47.1,146.0,-0.08,-1.48,-0.25,0.0,1.0419213022104885,3.1356976895102626,0.0,0.0,2.0,0.6,0.04372825386200385,0.2,1.0,-160.0,0,0,calibrating,0,0,0,0,0,0.0
2.3233944039999415,233,338.83,92.1,8.1,-14.3,0.69,2.86,-0.79,0.05,1.02,0.02,-162.9,64.0,164.0,-0.1,-1.95,-0.11,0.0,1.021420579389313,3.046276415560479,0.0,0.0,2.0,0.6,0.02276298042001179,0.2,1.0,-160.0,0,0,calibrating,0,0,0,0,0,0.0
2.3314572749999343,234,338.84,92.2,8.1,-14.5,0.63,2.75,-0.81,0.03,1.02,0.01,-162.1,83.8,195.0,-0.12,-2.54,-0.27,0.0,1.0204900783447137,2.9352171980962503,0.0,0.0,2.0,0.6,0.02139582978790433,0.2,1.0,-160.0,0,0,calibrating,0,0,0,0,0,0.0
2.3430650859999105,235,338.85,92.2,8.0,-14.8,0.6,2.64,-0.83,0.02,1.02,0.01,-161.1,106.5,217.0,-0.15,-3.17,0.17,0.0,1.0202450685987166,2.831695605110126,0.0,0.0,2.0,0.6,0.020727803641068965,0.2,1.0,-160.0,0,0,calibrating,0,0,0,0,0,0.0
2.3514460159999544,236,338.86,92.2,7.9,-15.1,0.52,2.51,-0.84,0.01,1.02,0.01,-159.9,128.8,219.0,-0.19,-3.76,0.02,0.0,1.0200980345045274,2.6974246977441276,0.0,0.0,2.0,0.6,0.020169154155942226,0.2,1.0,-160.0,0,0,calibrating,0,0,0,0,0,0.0
2.362957395999956,237,338.87,92.2,7.8,-15.3,0.4,2.42,-0.87,0.0,1.01,0.01,-158.5,150.4,218.0,-0.23,-4.37,-0.23,0.0,1.0100495037373167,2.602556435507211,0.0,0.0,2.0,0.6,0.009918210920957016,0.2,1.0,-160.0,0,0,calibrating,0,0,0,0,0,0.0
2.371403506999968,238,338.88,92.2,7.8,-15.6,0.21,2.32,-0.93,0.0,1.01,0.01,-156.8,172.0,216.0,-0.28,-4.93,-0.02,0.0,1.0100495037373167,2.5082663335459414,0.0,0.0,2.0,0.6,0.009719846702537893,0.2,1.0,-160.0,0,0,calibrating,0,0,0,0,0,0.0
2.3830131539999684,239,338.89,92.2,7.7,-15.8,0.02,2.23,-0.98,0.01,1.0,0.01,-154.9,193.7,222.0,-0.33,-5.54,-0.06,0.0,1.0000999950004998,2.43591871785575,0.0,0.0,2.0,0.6,0.00022506879359340815,0.2,1.0,-160.0,0,0,calibrating,0,0,0,0,0,0.0
2.3913584580000133,240,338.9,92.2,7.6,-16.0,-0.1,2.18,-1.0,0.01,0.99,0.0,-152.9,215.7,222.0,-0.39,-6.15,-0.13,0.0,0.9900505037623081,2.4004999479275146,0.0,0.0,2.0,0.6,0.010069068831149441,0.2,1.0,-160.0,0,0,calibrating,0,0,0,0,0,0.0
2.4032310689999576,241,338.91,92.1,7.4,-16.3,-0.13,2.17,-1.03,0.02,0.98,0.0,-150.5,237.2,215.0,-0.45,-6.71,0.05,0.0,0.9802040603874276,2.4055560687707946,0.0,0.0,2.0,0.6,0.019517201961909314,0.2,1.0,-160.0,0,0,calibrating,0,0,0,0,0,0.0
2.4112509319999162,242,338.92,92.0,7.3,-16.5,-0.16,2.18,-1.03,0.02,0.98,-0.01,-148.0,259.1,223.0,-0.53,-7.33,-0.06,0.0,0.9802550688468792,2.416381592381468,0.0,0.0,2.0,0.6,0.01907686963240851,0.2,1.0,-160.0,0,0,calibrating,0,0,0,0,0,0.0
2.4231707559999904,243,338.93,92.0,7.1,-16.7,-0.22,2.18,-1.02,0.02,0.97,-0.02,-145.5,281.4,244.0,-0.6,-8.02,0.0,0.0,0.9704122835166504,2.416857463732605,0.0,0.0,2.0,0.6,0.02834126186338448,0.2,1.0,-160.0,0,0,calibrating,0,0,0,0,0,0.0
2.4314301089999617,244,338.94,91.9,7.0,-16.9,-0.24,2.2,-1.0,0.03,0.97,-0.03,-142.6,304.2,216.0,-0.69,-8.53,-0.05,0.0,0.9709273917240155,2.4284974778656867,0.0,0.0,2.0,0.6,0.027269630582898996,0.2,1.0,-160.0,0,0,calibrating,0,0,0,0,0,0.0
2.4429701899999827,245,338.95,91.9,6.9,-17.2,-0.22,2.21,-1.0,0.03,0.97,-0.05,-139.4,321.3,190.0,-0.78,-9.04,-0.08,0.0,0.9717509969122748,2.43567239176372,0.0,0.0,2.0,0.6,0.025917104886746922,0.2,1.0,-160.0,0,0,calibrating,0,0,0,0,0,0.0
2.4512689050000063,246,338.96,91.9,6.7,-17.4,-0.21,2.22,-0.98,0.03,0.97,-0.05,-136.0,342.4,207.0,-0.87,-9.61,-0.19,0.0,0.9717509969122748,2.4357545032289276,0.0,0.0,2.0,0.6,0.025398762789011986,0.2,1.0,-160.0,0,0,calibrating,0,0,0,0,0,0.0
2.463122157999919,247,338.97,91.8,6.6,-17.6,-0.23,2.21,-0.91,0.02,0.98,-0.05,-132.5,359.6,155.0,-0.97,-9.94,0.08,0.0,0.9814784765851974,2.4010622649152604,0.0,0.0,2.0,0.6,0.01535785745376761,0.2,1.0,-160.0,0,0,calibrating,0,0,0,0,0,0.0
2.4713930319999236,248,338.98,91.8,6.4,-17.8,-0.33,2.18,-0.81,0.02,0.99,-0.05,-128.4,374.6,179.0,-1.07,-10.48,0.1,0.0,0.9914635646356349,2.3489146429787526,0.0,0.0,2.0,0.6,0.005265314015263423,0.2,1.0,-160.0,0,0,calibrating,0,0,0,0,0,0.0
2.482991560999949,249,338.99,91.7,6.3,-18.0,-0.43,2.1,-0.68,0.01,1.0,-0.05,-124.5,397.9,196.0,-1.18,-11.02,-0.16,0.0,1.0012991560967182,2.2488441475566954,0.0,0.0,2.0,0.6,0.004478871896903325,0.2,1.0,-160.0,0,0,calibrating,0,0,0,0,0,0.0
2.491213522999942,250,339.0,91.7,6.2,-18.3,-0.49,2.01,-0.55,0.0,1.0,-0.04,-121.3,408.5,177.0,-1.29,-11.26,-0.13,0.0,1.0007996802557444,2.1407241765346603,0.0,0.0,2.0,0.6,0.003899808134810945,0.2,1.0,-160.0,0,0,calibrating,0,0,0,0,0,0.0
2.503197892000003,251,339.01,91.6,6.1,-18.5,-0.52,1.89,-0.4,-0.01,1.01,-0.04,-116.3,417.7,95.0,-1.41,-11.39,-0.28,0.0,1.0108412338245805,2.0006249023742555,0.0,0.0,2.0,0.6,0.013662534469574106,0.2,1.0,-160.0,0,0,calibrating,0,0,0,0,0,0.0
2.511305460000017,252,339.02,91.5,6.0,-18.6,-0.58,1.71,-0.25,-0.03,1.01,-0.03,-112.1,414.9,-9.0,-1.52,-11.19,0.04,0.0,1.0108906963663282,1.822909761891685,0.0,0.0,2.0,0.6,0.013437757071095402,0.2,1.0,-160.0,0,0,calibrating,0,0,0,0,0,0.0
2.5231951929999923,253,339.03,91.5,6.0,-18.8,-0.7,1.49,-0.1,-0.05,1.02,-0.02,-108.0,404.4,-103.0,-1.63,-10.74,0.1,0.0,1.021420579389313,1.6492725669215502,0.0,0.0,2.0,0.6,0.02348828729219854,0.2,1.0,-160.0,0,0,calibrating,0,0,0,0,0,0.0
2.531148873999996,254,339.04,91.4,6.0,-18.9,-0.78,1.21,0.02,-0.05,1.02,-0.02,-104.2,375.4,-274.0,-1.73,-9.72,0.18,0.0,1.021420579389313,1.4397569239284802,0.0,0.0,2.0,0.6,0.02301852154635453,0.2,1.0,-160.0,0,0,calibrating,0,0,0,0,0,0.0
2.543160352999962,255,339.05,91.3,6.0,-19.0,-0.83,0.93,0.11,-0.02,1.0,-0.02,-100.7,338.6,-317.0,-1.82,-8.8,0.1,0.0,1.000399920031984,1.2513592609638529,0.0,0.0,2.0,0.6,0.001957904945245059,0.2,1.0,-160.0,0,0,calibrating,0,0,0,0,0,0.0
2.551280119000012,256,339.06,91.2,5.9,-19.1,-0.83,0.7,0.18,0.01,1.0,-0.03,-97.5,304.9,-339.0,-1.9,-7.84,-0.06,0.0,1.000499875062461,1.1005907504608603,0.0,0.0,2.0,0.6,0.0020167027762075795,0.2,1.0,-160.0,0,0,calibrating,0,0,0,0,0,0.0
2.5630444519999855,257,339.07,91.1,5.9,-19.2,-0.8,0.52,0.22,0.04,0.98,-0.04,-94.7,266.0,-379.0,-1.97,-6.75,-0.05,0.0,0.9816312953446421,0.9791833331914919,0.0,0.0,2.0,0.6,0.01651483940277909,0.2,1.0,-160.0,0,0,calibrating,0,0,0,0,0,0.0
2.571416496999973,258,339.08,91.0,5.9,-19.2,-0.84,0.4,0.25,0.06,0.98,-0.05,-92.3,231.0,-330.0,-2.03,-5.95,0.15,0.0,0.9831073186585481,0.9633794683301071,0.0,0.0,2.0,0.6,0.014738039767095645,0.2,1.0,-160.0,0,0,calibrating,0,0,0,0,0,0.0
2.5830082749999974,259,339.09,91.0,5.9,-19.3,-0.85,0.32,0.31,0.07,0.96,-0.05,-90.2,206.9,-252.0,-2.09,-5.37,0.03,0.0,0.9638464608017192,0.9596874491208062,0.0,0.0,2.0,0.6,0.03331891967144596,0.2,1.0,-160.0,0,0,calibrating,0,0,0,0,0,0.0
2.591356899999937,260,339.1,90.9,5.9,-19.3,-0.78,0.23,0.32,0.06,0.95,-0.05,-88.3,187.6,-212.0,-2.14,-4.85,-0.04,0.0,0.9532051195833979,0.8738993077008358,0.0,0.0,2.0,0.6,0.043081055671971846,0.2,1.0,-160.0,0,0,calibrating,0,0,0,0,0,0.0
2.60319214499998,261,339.11,90.9,6.0,-19.3,-0.73,0.11,0.35,0.04,0.95,-0.05,-86.5,168.3,-196.0,-2.18,-4.35,0.17,0.0,0.9521554494934112,0.8170067319184096,0.0,0.0,2.0,0.6,0.043248111246719345,0.2,1.0,-160.0,0,0,calibrating,0,0,0,0,0,0.0
2.611219435999942,262,339.12,90.8,5.9,-19.3,-0.72,-0.05,0.38,0.02,0.95,-0.05,-85.0,152.3,-158.0,-2.23,-3.99,0.19,0.0,0.9515250916292223,0.815659242576212,0.0,0.0,2.0,0.6,0.043000899728690034,0.2,1.0,-160.0,0,0,calibrating,0,0,0,0,0,0.0
2.6231424159999506,263,339.13,90.8,5.9,-19.3,-0.73,-0.29,0.41,0.0,0.95,-0.05,-83.5,140.7,-116.0,-2.26,-3.73,0.01,0.0,0.9513148795220223,0.8860586888011425,0.0,0.0,2.0,0.6,0.04234688959917232,0.2,1.0,-160.0,0,0,calibrating,0,0,0,0,0,0.0
2.6313605340000095,264,339.14,90.7,5.9,-19.2,-0.67,-0.58,0.45,0.0,0.95,-0.04,-82.2,133.5,-78.0,-2.3,-3.57,-0.05,0.0,0.9508417323613851,0.9938812806366765,0.0,0.0,2.0,0.6,0.04196363602461328,0.2,1.0,-160.0,0,0,calibrating,0,0,0,0,0,0.0
2.643145247999996,265,339.15,90.7,6.0,-19.1,-0.63,-0.89,0.48,-0.02,0.96,-0.05,-80.9,129.3,-53.0,-2.33,-3.47,0.08,0.0,0.9615092303249095,1.191385747774414,0.0,0.0,2.0,0.6,0.030670215299867132,0.2,1.0,-160.0,0,0,calibrating,0,0,0,0,0,0.0
2.651402151999946,266,339.16,90.6,6.0,-19.0,-0.58,-1.21,0.55,-0.04,0.97,-0.05,-79.6,125.3,-40.0,-2.37,-3.37,-0.08,0.0,0.972111104761179,1.4501724035437995,0.0,0.0,2.0,0.6,0.01966697404632567,0.2,1.0,-160.0,0,0,calibrating,0,0,0,0,0,0.0
2.662960802999919,267,339.17,90.6,6.1,-18.9,-0.56,-1.52,0.61,-0.05,0.97,-0.05,-78.4,120.8,-52.0,-2.4,-3.2,0.12,0.0,0.9725739046468396,1.7309246084101988,0.0,0.0,2.0,0.6,0.018820090677451717,0.2,1.0,-160.0,0,0,calibrating,0,0,0,0,0,0.0
2.6712467689999357,268,339.18,90.5,6.2,-18.7,-0.51,-1.83,0.67,-0.06,0.96,-0.05,-77.2,113.9,-69.0,-2.43,-2.99,0.08,0.0,0.96317184344228,2.0144229943087923,0.0,0.0,2.0,0.6,0.02765770884437113,0.2,1.0,-160.0,0,0,calibrating,0,0,0,0,0,0.0
2.6831372209999245,269,339.19,90.5,6.2,-18.5,-0.39,-2.14,0.71,-0.05,0.95,-0.05,-76.1,102.2,-110.0,-2.46,-2.61,0.14,0.0,0.9526279441628824,2.2881870552907166,0.0,0.0,2.0,0.6,0.03743757596129327,0.2,1.0,-160.0,0,0,calibrating,0,0,0,0,0,0.0
2.691239156999927,270,339.2,90.5,6.3,-18.3,-0.2,-2.5,0.75,-0.04,0.95,-0.05,-75.2,86.7,-152.0,-2.48,-2.12,0.14,0.0,0.9521554494934112,2.617728022541685,0.0,0.0,2.0,0.6,0.03715186921814928,0.2,1.0,-160.0,0,0,calibrating,0,0,0,0,0,0.0
2.703438614999982,271,339.21,90.5,6.4,-18.0,-0.06,-2.77,0.8,-0.03,0.95,-0.06,-74.5,67.9,-179.0,-2.5,-1.6,0.2,0.0,0.9523654760647301,2.8838342532122057,0.0,0.0,2.0,0.6,0.036203005793893794,0.2,1.0,-160.0,0,0,calibrating,0,0,0,0,0,0.0
2.7153548939999155,272,339.22,90.6,6.4,-17.7,0.1,-3.01,0.86,-0.02,0.94,-0.07,-74.0,44.3,-238.0,-2.51,-0.85,0.22,0.0,0.942814934120159,3.1320440609927567,0.0,0.0,2.0,0.6,0.04483847678369557,0.2,1.0,-160.0,0,0,calibrating,0,0,0,0,0,0.0
2.723342228999968,273,339.23,90.6,6.5,-17.4,0.23,-3.2,0.93,0.0,0.95,-0.08,-73.7,16.2,-259.0,-2.51,-0.12,0.29,0.0,0.953362470417207,3.3403293250815858,0.0,0.0,2.0,0.6,0.03360512167691465,0.2,1.0,-160.0,0,0,calibrating,0,0,0,0,0,0.0
2.7313771299999416,274,339.24,90.7,6.6,-17.1,0.25,-3.35,1.01,0.0,0.95,-0.09,-73.7,-3.9,-176.0,-2.51,0.2,0.09,0.0,0.9542536350467835,3.50786259708102,0.0,0.0,2.0,0.6,0.032059677906391415,0.2,1.0,-160.0,0,0,calibrating,0,0,0,0,0,0.0
2.7430011159999594,275,339.25,90.7,6.7,-16.7,0.19,-3.48,1.11,0.0,0.96,-0.1,-73.8,-9.8,-85.0,-2.51,0.3,0.14,0.0,0.9651942809610923,3.6576768583350825,0.0,0.0,2.0,0.6,0.02069665135224097,0.2,1.0,-160.0,0,0,calibrating,0,0,0,0,0,0.0
2.7513875359999247,276,339.26,90.8,6.8,-16.4,0.13,-3.57,1.25,0.0,0.96,-0.11,-73.9,-14.3,-65.0,-2.51,0.46,-0.09,0.0,0.9662815324738437,3.7847456981942655,0.0,0.0,2.0,0.6,0.019217211842699755,0.2,1.0,-160.0,0,0,calibrating,0,0,0,0,0,0.0
2.762945583999908,277,339.27,90.8,7.0,-16.0,0.12,-3.67,1.39,-0.01,0.96,-0.11,-74.1,-21.3,-73.0,-2.5,0.67,0.07,0.0,0.9663332758422427,3.9262450254664443,0.0,0.0,2.0,0.6,0.018782159104814733,0.2,1.0,-160.0,0,0,calibrating,0,0,0,0,0,0.0
2.771234268999933,278,339.28,90.9,7.1,-15.6,0.15,-3.76,1.54,-0.02,0.97,-0.11,-74.4,-31.2,-92.0,-2.49,0.96,-0.04,0.0,0.9764220398987314,4.0659193302376275,0.0,0.0,2.0,0.6,0.008519527147359485,0.2,1.0,-160.0,0,0,calibrating,0,0,0,0,0,0.0
2.783042835999936,279,339.29,91.0,7.3,-15.2,0.22,-3.88,1.64,-0.01,0.98,-0.1,-74.8,-38.6,-71.0,-2.48,1.12,-0.09,0.0,0.9851395840184273,4.21810383940462,0.0,0.0,2.0,0.6,0.0001940566328896276,0.2,1.0,-160.0,0,0,calibrating,0,0,0,0,0,0.0
2.7913466009999865,280,339.3,91.1,7.4,-14.8,0.46,-4.02,1.62,0.03,0.99,-0.08,-75.2,-42.0,-34.0,-2.47,1.15,-0.07,0.0,0.9936800289831732,4.358485975657143,0.0,0.0,2.0,0.6,0.008559811565682862,0.2,1.0,-160.0,0,0,calibrating,0,0,0,0,0,0.0
2.8032668820000026,281,339.31,91.2,7.6,-14.4,0.95,-4.07,1.43,0.08,1.02,-0.08,-75.6,-45.0,-44.0,-2.46,1.28,-0.04,0.0,1.0262553288533998,4.417272914366962,0.0,0.0,2.0,0.6,0.04031240920719126,0.2,1.0,-160.0,0,0,calibrating,0,0,0,0,0,0.0
2.811435297999992,282,339.32,91.4,7.6,-14.0,1.14,-3.91,1.16,0.1,1.05,-0.12,-76.1,-52.3,-76.0,-2.44,1.55,-0.02,0.0,1.06155546251715,4.234772721174066,0.0,0.0,2.0,0.6,0.07410029201352264,0.2,1.0,-160.0,0,0,calibrating,0,0,0,0,0,0.0
2.8230755769999405,283,339.33,91.6,7.7,-13.6,0.66,-3.55,0.96,0.09,1.07,-0.14,-76.7,-67.5,-143.0,-2.42,2.06,0.23,0.0,1.082866566110525,3.7362681916586236,0.0,0.0,2.0,0.6,0.09350316769475975,0.2,1.0,-160.0,0,0,calibrating,0,0,0,0,0,0.0
2.8312662060000093,284,339.34,91.7,7.8,-13.3,0.02,-3.18,0.86,0.1,1.06,-0.14,-77.5,-84.4,-147.0,-2.4,2.45,0.09,0.0,1.073871500692704,3.294298104300824,0.0,0.0,2.0,0.6,0.08281794023139999,0.2,1.0,-160.0,0,0,calibrating,0,0,0,0,0,0.0
2.8431356969999797,285,339.35,91.8,7.9,-13.0,-0.06,-2.96,0.84,0.12,1.01,-0.1,-78.5,-98.6,-145.0,-2.37,2.85,-0.1,0.0,1.0220078277586724,3.0774664904755666,0.0,0.0,2.0,0.6,0.030335181951421042,0.2,1.0,-160.0,0,0,calibrating,0,0,0,0,0,0.0
2.8511565089999067,286,339.36,91.8,7.9,-12.7,0.34,-2.9,0.74,0.14,1.0,-0.08,-79.5,-111.4,-132.0,-2.34,3.18,-0.15,0.0,1.012916580968048,3.0121752937038706,0.0,0.0,2.0,0.6,0.020819056457580754,0.2,1.0,-160.0,0,0,calibrating,0,0,0,0,0,0.0
2.8631612269999778,287,339.37,92.0,8.0,-12.4,0.52,-2.73,0.56,0.15,1.03,-0.07,-80.7,-124.2,-127.0,-2.31,3.52,0.14,0.0,1.043216180856106,2.83494268019655,0.0,0.0,2.0,0.6,0.05009628321872617,0.2,1.0,-160.0,0,0,calibrating,0,0,0,0,0,0.0
2.8711576649999415,288,339.38,92.1,8.0,-12.1,0.52,-2.39,0.33,0.15,1.04,-0.06,-82.1,-136.0,-120.0,-2.27,3.84,0.06,0.0,1.0524732775705044,2.4680761738649806,0.0,0.0,2.0,0.6,0.05816631233446179,0.2,1.0,-160.0,0,0,calibrating,0,0,0,0,0,0.0
2.883088974999964,289,339.39,92.2,8.1,-11.9,0.54,-1.96,0.03,0.15,1.04,-0.04,-83.5,-146.7,-106.0,-2.23,4.1,0.0,0.0,1.05152270541344,2.03324863211561,0.0,0.0,2.0,0.6,0.05607142537384946,0.2,1.0,-160.0,0,0,calibrating,0,0,0,0,0,0.0
2.8913628679999874,290,339.4,92.2,8.0,-11.7,0.74,-1.64,-0.28,0.15,1.04,-0.02,-85.0,-156.3,-86.0,-2.19,4.31,0.01,0.0,1.050951949424901,1.820878908659222,0.0,0.0,2.0,0.6,0.0543906559976044,0.2,1.0,-160.0,0,0,calibrating,0,0,0,0,0,0.0
2.903166533999979,291,339.41,92.3,8.0,-11.6,0.84,-1.42,-0.51,0.16,1.02,-0.01,-86.6,-156.3,0.0,-2.14,4.15,-0.11,0.0,1.0325211862233143,1.726875791711726,0.0,0.0,2.0,0.6,0.035240694940097295,0.2,1.0,-160.0,0,0,calibrating,0,0,0,0,0,0.0
2.91120949499998,292,339.42,92.4,7.9,-11.4,1.17,-1.33,-0.8,0.16,0.99,0.01,-88.1,-144.8,102.0,-2.1,3.7,-0.02,0.0,1.0028958071504737,1.9436563482261981,0.0,0.0,2.0,0.6,0.005503009549911453,0.2,1.0,-160.0,0,0,calibrating,0,0,0,0,0,0.0
2.9231326159999753,293,339.43,92.6,7.8,-11.3,1.84,-1.28,-1.22,0.17,1.03,0.01,-89.4,-126.1,158.0,-2.07,3.2,0.13,0.0,1.0439827584783188,2.5519404381764086,0.0,0.0,2.0,0.6,0.045658161660201424,0.2,1.0,-160.0,0,0,calibrating,0,0,0,0,0,0.0
2.93127141399998,294,339.44,92.8,7.7,-11.2,2.09,-1.01,-1.58,0.16,1.11,-0.01,-90.6,-108.0,173.0,-2.04,2.71,-0.23,0.0,1.1215168300119265,2.8079529910595014,0.0,0.0,2.0,0.6,0.12072838852993284,0.2,1.0,-160.0,0,0,calibrating,0,0,0,0,0,0.0
2.943075345000011,295,339.45,92.9,7.5,-11.1,1.82,-0.61,-1.84,0.12,1.16,-0.02,-91.5,-93.0,143.0,-2.02,2.38,-0.2,0.0,1.1663618649458665,2.658965964430534,0.0,0.0,2.0,0.6,0.1622619549945954,0.2,1.0,-160.0,0,0,calibrating,0,0,0,0,0,0.0
2.9512968870000122,296,339.46,93.1,7.3,-11.1,1.31,-0.33,-1.95,0.05,1.16,-0.02,-92.4,-82.9,101.0,-2.0,2.17,-0.09,0.0,1.1612493272333895,2.372235232855292,0.0,0.0,2.0,0.6,0.15400642893647598,0.2,1.0,-160.0,0,0,calibrating,0,0,0,0,0,0.0
2.963354605999939,297,339.47,93.2,7.1,-11.1,0.77,-0.2,-1.77,-0.01,1.14,0.0,-93.2,-76.6,73.0,-1.97,2.02,-0.22,0.0,1.140043858805441,1.9405669274724848,0.0,0.0,2.0,0.6,0.13014494129835685,0.2,1.0,-160.0,0,0,calibrating,0,0,0,0,0,0.0
2.971381504999954,298,339.48,93.2,6.9,-11.1,0.37,-0.38,-1.35,-0.09,1.1,0.02,-93.9,-72.2,43.0,-1.95,1.94,0.01,0.0,1.103856874780422,1.4504482065899493,0.0,0.0,2.0,0.6,0.09207879812787123,0.2,1.0,-160.0,0,0,calibrating,0,0,0,0,0,0.0
2.983051828999919,299,339.49,93.3,6.8,-11.0,0.34,-0.86,-0.82,-0.17,1.05,0.06,-94.6,-71.8,8.0,-1.94,1.98,-0.03,0.0,1.065363787633126,1.23596116443843,0.0,0.0,2.0,0.6,0.05251399676096358,0.2,1.0,-160.0,0,0,calibrating,0,0,0,0,0,0.0
2.9913962059999903,300,339.5,93.4,6.8,-10.9,0.84,-1.6,-0.27,-0.19,1.02,0.09,-95.4,-75.3,-26.0,-1.91,2.1,0.07,0.0,1.0414413089560064,1.8271562604221896,0.0,0.0,2.0,0.6,0.02801968772216723,0.2,1.0,-160.0,0,0,calibrating,0,0,0,0,0,0.0
3.0031939539999257,301,339.51,93.5,6.7,-10.7,1.2,-2.24,0.15,-0.17,1.02,0.1,-96.1,-78.0,-21.0,-1.89,2.15,0.14,0.0,1.0388936422945325,2.545604054050826,0.0,0.0,2.0,0.6,0.024962580639479537,0.2,1.0,-160.0,0,0,calibrating,0,0,0,0,0,0.0
3.0113247849999425,302,339.52,93.6,6.8,-10.4,1.27,-2.78,0.42,-0.12,1.03,0.08,-96.9,-81.2,-34.0,-1.87,2.25,0.18,0.0,1.0400480758118829,3.085076984452738,0.0,0.0,2.0,0.6,0.025594673873693186,0.2,1.0,-160.0,0,0,calibrating,0,0,0,0,0,0.0
3.0229795349999904,303,339.53,93.8,6.8,-10.1,1.11,-3.22,0.58,-0.05,1.04,0.09,-97.8,-81.7,-5.0,-1.85,2.21,-0.03,0.0,1.045083728703112,3.4549819102276067,0.0,0.0,2.0,0.6,0.0300177202296239,0.2,1.0,-160.0,0,0,calibrating,0,0,0,0,0,0.0
3.0312941459999365,304,339.54,93.9,6.8,-9.8,0.91,-3.53,0.7,0.03,1.03,0.08,-98.6,-78.9,23.0,-1.83,2.09,0.1,0.0,1.033537614216338,3.7120075430957837,0.0,0.0,2.0,0.6,0.018102173627992935,0.2,1.0,-160.0,0,0,calibrating,0,0,0,0,0,0.0
3.043167476000008,305,339.55,94.1,6.9,-9.4,0.71,-3.75,0.75,0.09,1.01,0.08,-99.3,-74.6,36.0,-1.81,1.97,-0.07,0.0,1.017152889196113,3.889614376773101,0.0,0.0,2.0,0.6,0.0016830996356125283,0.2,1.0,-160.0,0,0,calibrating,0,0,0,0,0,0.0
3.0510757849999663,306,339.56,94.2,6.9,-9.0,0.56,-3.86,0.74,0.14,0.98,0.07,-100.0,-70.2,42.0,-1.79,1.84,0.06,0.0,0.9924212815130478,3.969987405521584,0.0,0.0,2.0,0.6,0.022587537886503695,0.2,1.0,-160.0,0,0,calibrating,0,0,0,0,0,0.0
3.0630148919999556,307,339.57,94.3,7.0,-8.6,0.6,-3.83,0.66,0.17,0.95,0.06,-100.7,-63.5,65.0,-1.77,1.63,-0.07,0.0,0.9669539802906858,3.9324928480545265,0.0,0.0,2.0,0.6,0.04709374232668828,0.2,1.0,-160.0,0,0,calibrating,0,0,0,0,0,0.0
3.071166729999959,308,339.58,94.4,7.0,-8.2,0.64,-3.69,0.52,0.2,0.93,0.05,-101.3,-56.0,71.0,-1.76,1.44,-0.05,0.0,0.9525754563287887,3.7810183813359064,0.0,0.0,2.0,0.6,0.06024282096281364,0.2,1.0,-160.0,0,0,calibrating,0,0,0,0,0,0.0
3.083085293999943,309,339.59,94.5,7.0,-7.9,0.52,-3.46,0.4,0.2,0.92,0.04,-101.8,-50.9,59.0,-1.74,1.3,0.03,0.0,0.9423375191511798,3.5216473417990053,0.0,0.0,2.0,0.6,0.06907114297761419,0.2,1.0,-160.0,0,0,calibrating,0,0,0,0,0,0.0
3.0912591649999968,310,339.6,94.6,7.0,-7.5,0.43,-3.25,0.21,0.2,0.9,0.05,-102.3,-44.3,63.0,-1.73,1.12,-0.14,0.0,0.9233092656309694,3.285041856658755,0.0,0.0,2.0,0.6,0.08633740856786809,0.2,1.0,-160.0,0,0,calibrating,0,0,0,0,0,0.0
3.103188012999908,311,339.61,94.7,7.0,-7.2,0.3,-3.04,0.05,0.2,0.89,0.05,-102.7,-39.5,44.0,-1.72,1.03,-0.02,0.0,0.9135644476444998,3.05517593601416,0.0,0.0,2.0,0.6,0.09416058202325084,0.2,1.0,-160.0,0,0,calibrating,0,0,0,0,0,0.0
3.1113168449999193,312,339.62,94.7,7.0,-6.9,0.1,-2.87,-0.06,0.18,0.88,0.05,-103.1,-38.0,10.0,-1.71,1.06,0.0,0.0,0.8996110270555825,2.872368360778262,0.0,0.0,2.0,0.6,0.1059517225599248,0.2,1.0,-160.0,0,0,calibrating,0,0,0,0,0,0.0
3.1230779279999297,313,339.63,94.7,7.0,-6.7,0.01,-2.71,-0.13,0.15,0.88,0.05,-103.4,-37.6,18.0,-1.7,0.99,-0.01,0.0,0.8940917178902844,2.7131347183654553,0.0,0.0,2.0,0.6,0.1092416110907185,0.2,1.0,-160.0,0,0,calibrating,0,0,0,0,0,0.0
3.1312660259999348,314,339.64,94.8,6.9,-6.4,0.01,-2.59,-0.16,0.13,0.89,0.07,-103.8,-34.3,27.0,-1.69,0.89,0.11,0.0,0.9021640649017229,2.594956647036709,0.0,0.0,2.0,0.6,0.09914587879769443,0.2,1.0,-160.0,0,0,calibrating,0,0,0,0,0,0.0
3.1430478529999846,315,339.65,94.8,6.9,-6.1,0.03,-2.54,-0.12,0.13,0.9,0.08,-104.1,-32.4,16.0,-1.68,0.87,-0.07,0.0,0.9128526715741155,2.543010027506773,0.0,0.0,2.0,0.6,0.08668812668279569,0.2,1.0,-160.0,0,0,calibrating,0,0,0,0,0,0.0
3.1513153569999304,316,339.66,94.8,6.8,-5.9,0.06,-2.52,-0.07,0.13,0.91,0.08,-104.4,-28.6,35.0,-1.67,0.73,0.05,0.0,0.9227133899537819,2.5216859439668533,0.0,0.0,2.0,0.6,0.07529086013706665,0.2,1.0,-160.0,0,0,calibrating,0,0,0,0,0,0.0
3.1629677559999436,317,339.67,94.9,6.8,-5.6,0.07,-2.51,0.0,0.14,0.93,0.09,-104.7,-24.8,47.0,-1.67,0.57,0.04,0.0,0.9447751055145346,2.5109759058979435,0.0,0.0,2.0,0.6,0.05216456168478767,0.2,1.0,-160.0,0,0,calibrating,0,0,0,0,0,0.0
3.171088071999975,318,339.68,94.9,6.8,-5.4,0.12,-2.49,0.02,0.15,0.93,0.08,-104.9,-17.4,57.0,-1.66,0.41,-0.04,0.0,0.9454099639838793,2.492970116146602,0.0,0.0,2.0,0.6,0.05049910915113398,0.2,1.0,-160.0,0,0,calibrating,0,0,0,0,0,0.0
3.1830937009999616,319,339.69,95.0,6.8,-5.1,0.18,-2.48,0.03,0.17,0.94,0.06,-105.0,-10.6,67.0,-1.66,0.19,-0.12,0.0,0.9571311299921239,2.4867046467162117,0.0,0.0,2.0,0.6,0.038002384280031776,0.2,1.0,-160.0,0,0,calibrating,0,0,0,0,0,0.0
3.191316074999918,320,339.7,95.0,6.8,-4.9,0.24,-2.43,0.0,0.18,0.94,0.04,-105.1,-3.8,66.0,-1.66,0.02,0.01,0.0,0.9579144011862437,2.441823089414956,0.0,0.0,2.0,0.6,0.036474730824193724,0.2,1.0,-160.0,0,0,calibrating,0,0,0,0,0,0.0
3.202971631999958,321,339.71,95.1,6.7,-4.6,0.31,-2.39,-0.06,0.19,0.95,0.02,-105.1,0.2,31.0,-1.66,0.01,0.01,0.0,0.9690201236300513,2.410767512639906,0.0,0.0,2.0,0.6,0.024861628212778375,0.2,1.0,-160.0,0,0,calibrating,0,0,0,0,0,0.0
3.2112118339999824,322,339.72,95.1,6.7,-4.4,0.32,-2.33,-0.13,0.2,0.96,0.01,-105.1,-0.2,8.0,-1.66,0.0,-0.06,0.0,0.9806630410084801,2.355461738173643,0.0,0.0,2.0,0.6,0.012954336617662543,0.2,1.0,-160.0,0,0,calibrating,0,0,0,0,0,0.0
3.223128394000014,323,339.73,95.2,6.7,-4.2,0.27,-2.28,-0.19,0.19,0.98,0.0,-105.1,-0.2,0.0,-1.66,0.02,0.02,0.0,0.9982484660644363,2.303779503337939,0.0,0.0,2.0,0.6,0.00453846666952773,0.2,1.0,-160.0,0,0,calibrating,0,0,0,0,0,0.0
3.2313647930000116,324,339.74,95.2,6.6,-3.9,0.23,-2.24,-0.21,0.19,1.0,-0.01,-105.1,0.0,-1.0,-1.66,0.0,0.18,0.0,1.0179390944452424,2.261548142313137,0.0,0.0,2.0,0.6,0.02374451314932724,0.2,1.0,-160.0,0,0,calibrating,0,0,0,0,0,0.0
3.242936393999912,325,339.75,95.3,6.6,-3.7,0.19,-2.16,-0.17,0.18,1.02,-0.03,-105.1,-0.7,-8.0,-1.66,0.04,-0.05,0.0,1.0361949623502325,2.1749942528659703,0.0,0.0,2.0,0.6,0.04116037343323109,0.2,1.0,-160.0,0,0,calibrating,0,0,0,0,0,0.0
3.25144469199995,326,339.76,95.3,6.6,-3.5,0.2,-2.05,-0.12,0.17,1.04,-0.06,-105.1,-2.3,-9.0,-1.66,0.06,0.18,0.0,1.0555093557141026,2.063225629929989,0.0,0.0,2.0,0.6,0.05926527146115901,0.2,1.0,-160.0,0,0,calibrating,0,0,0,0,0,0.0
3.2630377869999165,327,339.77,95.3,6.6,-3.3,0.15,-1.89,-0.04,0.17,1.06,-0.07,-105.1,-2.2,-4.0,-1.66,0.06,0.02,0.0,1.0758252646224664,1.8963649437806003,0.0,0.0,2.0,0.6,0.07798955676213248,0.2,1.0,-160.0,0,0,calibrating,0,0,0,0,0,0.0
3.2714036379999243,328,339.78,95.3,6.6,-3.2,0.11,-1.69,0.05,0.17,1.08,-0.07,-105.2,-3.2,-12.0,-1.66,0.12,0.12,0.0,1.0955363982999378,1.6943140204814453,0.0,0.0,2.0,0.6,0.09574667663081171,0.2,1.0,-160.0,0,0,calibrating,0,0,0,0,0,0.0
3.283088171999907,329,339.79,95.3,6.7,-3.0,0.09,-1.49,0.23,0.16,1.11,-0.08,-105.2,-5.8,-23.0,-1.66,0.19,0.2,0.0,1.1243220179290274,1.5103310895297097,0.0,0.0,2.0,0.6,0.12204165033470304,0.2,1.0,-160.0,0,0,calibrating,0,0,0,0,0,0.0
3.291250464999962,330,339.8,95.4,6.7,-2.9,0.11,-1.29,0.47,0.16,1.13,-0.09,-105.3,-12.5,-68.0,-1.65,0.46,0.25,0.0,1.1448143954370944,1.3773525329413672,0.0,0.0,2.0,0.6,0.1396833472859147,0.2,1.0,-160.0,0,0,calibrating,0,0,0,0,0,0.0
3.3030907559999605,331,339.81,95.4,6.8,-2.7,0.11,-1.16,0.8,0.16,1.15,-0.07,-105.5,-20.9,-70.0,-1.65,0.64,0.0,0.0,1.1631852818876276,1.4134001556530267,0.0,0.0,2.0,0.6,0.15489314906171892,0.2,1.0,-160.0,0,0,calibrating,0,0,0,0,0,0.0
3.3111174269999992,332,339.82,95.4,6.9,-2.6,-0.03,-1.1,1.05,0.15,1.13,-0.07,-105.7,-27.4,-70.0,-1.64,0.83,0.09,0.0,1.142059543106225,1.5209865219652672,0.0,0.0,2.0,0.6,0.13109206207471025,0.2,1.0,-160.0,0,0,calibrating,0,0,0,0,0,0.0
3.3231435320000173,333,339.83,95.4,7.0,-2.5,-0.27,-1.1,1.2,0.15,1.09,-0.06,-106.1,-32.5,-55.0,-1.63,0.95,0.06,0.0,1.1019074371289088,1.6501212076693033,0.0,0.0,2.0,0.6,0.08912115697544598,0.2,1.0,-160.0,0,0,calibrating,0,0,0,0,0,0.0
3.3313437619999604,334,339.84,95.3,7.1,-2.4,-0.51,-1.12,1.28,0.14,1.04,-0.06,-106.4,-38.1,-50.0,-1.62,1.08,0.07,0.0,1.051094667477673,1.7756407294269865,0.0,0.0,2.0,0.6,0.037542219577725966,0.2,1.0,-160.0,0,0,calibrating,0,0,0,0,0,0.0
3.343151120000016,335,339.85,95.3,7.2,-2.2,-0.64,-1.15,1.31,0.14,1.0,-0.05,-106.8,-41.6,-41.0,-1.61,1.17,0.21,0.0,1.0109896141899777,1.8569329551709721,0.0,0.0,2.0,0.6,0.002511577035769985,0.2,1.0,-160.0,0,0,calibrating,0,0,0,0,0,0.0
3.351423390999912,336,339.86,95.2,7.4,-2.1,-0.6,-1.17,1.31,0.15,0.98,-0.06,-107.3,-47.1,-50.0,-1.59,1.33,0.07,0.0,0.9932270636667125,1.8560711193270587,0.0,0.0,2.0,0.6,0.019868645007854346,0.2,1.0,-160.0,0,0,calibrating,0,0,0,0,0,0.0
3.363203209999938,337,339.87,95.1,7.5,-2.0,-0.58,-1.17,1.31,0.16,0.98,-0.05,-107.8,-50.9,-39.0,-1.58,1.42,0.25,0.0,0.9942333730065591,1.8497026788108408,0.0,0.0,2.0,0.6,0.0184850889546474,0.2,1.0,-160.0,0,0,calibrating,0,0,0,0,0,0.0
3.3712826889999405,338,339.88,95.1,7.6,-1.9,-0.58,-1.13,1.33,0.16,0.98,-0.06,-108.3,-51.8,-4.0,-1.57,1.38,-0.01,0.0,0.994786409235671,1.8390758548792925,0.0,0.0,2.0,0.6,0.017573411671024997,0.2,1.0,-160.0,0,0,calibrating,0,0,0,0,0,0.0
3.383015334999982,339,339.89,95.0,7.8,-1.7,-0.65,-1.01,1.35,0.17,0.98,-0.06,-108.8,-48.7,20.0,-1.55,1.28,-0.02,0.0,0.9964436762808021,1.8069587709740365,0.0,0.0,2.0,0.6,0.015597821733375983,0.2,1.0,-160.0,0,0,calibrating,0,0,0,0,0,0.0
3.3913064509999913,340,339.9,94.9,7.9,-1.6,-0.76,-0.86,1.35,0.17,0.96,-0.07,-109.3,-44.1,33.0,-1.54,1.15,-0.25,0.0,0.9774456506629922,1.7719198627477486,0.0,0.0,2.0,0.6,0.033903930404162286,0.2,1.0,-160.0,0,0,calibrating,0,0,0,0,0,0.0
3.402985325999907,341,339.91,94.9,8.1,-1.5,-0.84,-0.75,1.34,0.17,0.95,-0.06,-109.7,-40.6,31.0,-1.53,1.07,-0.1,0.0,0.9669539802906858,1.75034282356343,0.0,0.0,2.0,0.6,0.043507688760939245,0.2,1.0,-160.0,0,0,calibrating,0,0,0,0,0,0.0
3.411060278999912,342,339.92,94.8,8.2,-1.5,-0.89,-0.62,1.33,0.17,0.94,-0.07,-110.1,-36.8,42.0,-1.52,0.94,-0.09,0.0,0.9578100020358944,1.7162167695253419,0.0,0.0,2.0,0.6,0.05159863367541595,0.2,1.0,-160.0,0,0,calibrating,0,0,0,0,0,0.0
3.4230346209999425,343,339.93,94.7,8.4,-1.4,-0.91,-0.52,1.32,0.17,0.92,-0.07,-110.4,-32.0,51.0,-1.51,0.77,0.12,0.0,0.9381897462667134,1.6854969593564981,0.0,0.0,2.0,0.6,0.06979451165570494,0.2,1.0,-160.0,0,0,calibrating,0,0,0,0,0,0.0
3.431101372999933,344,339.94,94.6,8.5,-1.3,-0.93,-0.46,1.28,0.17,0.91,-0.07,-110.7,-25.5,50.0,-1.51,0.65,0.01,0.0,0.9283856957105706,1.6476953601925326,0.0,0.0,2.0,0.6,0.07800659096761076,0.2,1.0,-160.0,0,0,calibrating,0,0,0,0,0,0.0
3.443114874999992,345,339.95,94.5,8.7,-1.3,-0.96,-0.4,1.21,0.17,0.91,-0.08,-110.9,-21.3,58.0,-1.5,0.48,-0.05,0.0,0.9291931984253867,1.5955249919697279,0.0,0.0,2.0,0.6,0.07565510648773865,0.2,1.0,-160.0,0,0,calibrating,0,0,0,0,0,0.0
3.451394106999942,346,339.96,94.4,8.8,-1.2,-1.04,-0.33,1.09,0.18,0.9,-0.09,-111.1,-15.1,58.0,-1.5,0.32,-0.12,0.0,0.9222255689363639,1.5422710527011783,0.0,0.0,2.0,0.6,0.08097028125722638,0.2,1.0,-160.0,0,0,calibrating,0,0,0,0,0,0.0
3.4630976439999586,347,339.97,94.4,8.9,-1.2,-1.11,-0.26,0.93,0.18,0.9,-0.1,-111.2,-7.5,73.0,-1.49,0.1,-0.1,0.0,0.9232551110067033,1.4712579651441144,0.0,0.0,2.0,0.6,0.07834192440314913,0.2,1.0,-160.0,0,0,calibrating,0,0,0,0,0,0.0
3.4713989669999137,348,339.98,94.3,9.0,-1.2,-1.21,-0.18,0.74,0.18,0.9,-0.1,-111.2,-0.3,64.0,-1.49,-0.04,0.06,0.0,0.9232551110067033,1.4297202523570824,0.0,0.0,2.0,0.6,0.0767750859150862,0.2,1.0,-160.0,0,0,calibrating,0,0,0,0,0,0.0
3.483094219999998,349,339.99,94.2,9.1,-1.1,-1.31,-0.08,0.52,0.19,0.9,-0.1,-111.2,0.5,10.0,-1.49,0.02,0.13,0.0,0.9252567211320327,1.4117011015083896,0.0,0.0,2.0,0.6,0.07327800627396164,0.2,1.0,-160.0,0,0,calibrating,0,0,0,0,0,0.0
3.4912190439999904,350,340.0,94.1,9.2,-1.1,-1.35,-0.03,0.3,0.2,0.9,-0.1,-111.2,0.0,9.0,-1.49,0.0,0.06,0.0,0.9273618495495705,1.3832570260078205,0.0,0.0,2.0,0.6,0.06974942029929543,0.2,1.0,-160.0,0,0,calibrating,0,0,0,0,0,0.0
3.5032356560000153,351,340.01,94.0,9.2,-1.1,-1.42,0.05,0.08,0.2,0.9,-0.1,-111.2,0.1,1.0,-1.49,0.0,-0.03,0.0,0.9273618495495705,1.4231303524273524,0.0,0.0,2.0,0.6,0.06835443189330948,0.2,1.0,-160.0,0,0,calibrating,0,0,0,0,0,0.0
3.511167587999921,352,340.02,93.8,9.3,-1.1,-1.43,0.13,-0.1,0.2,0.9,-0.1,-111.2,0.0,3.0,-1.49,-0.01,0.08,0.0,0.9273618495495705,1.4393748643074187,0.0,0.0,2.0,0.6,0.06698734325544331,0.2,1.0,-160.0,0,0,calibrating,0,0,0,0,0,0.0
3.5231033089999073,353,340.03,93.7,9.3,-1.1,-1.38,0.22,-0.24,0.2,0.9,-0.1,-111.2,0.1,3.0,-1.49,-0.01,0.1,0.0,0.9273618495495705,1.417885749981288,0.0,0.0,2.0,0.6,0.06564759639033446,0.2,1.0,-160.0,0,0,calibrating,0,0,0,0,0,0.0
3.5313808739999786,354,340.04,93.6,9.3,-1.2,-1.2,0.27,-0.34,0.19,0.92,-0.1,-111.2,-0.1,-5.0,-1.49,0.01,0.0,0.0,0.9447221813845592,1.2761269529321915,0.0,0.0,2.0,0.6,0.047321519264238776,0.2,1.0,-160.0,0,0,calibrating,0,0,0,0,0,0.0
3.5429792169999246,355,340.05,93.5,9.3,-1.2,-1.03,0.3,-0.38,0.18,0.93,-0.09,-111.2,0.1,6.0,-1.49,-0.01,-0.02,0.0,0.9515250916292224,1.138112472473613,0.0,0.0,2.0,0.6,0.03970823683918412,0.2,1.0,-160.0,0,0,calibrating,0,0,0,0,0,0.0
3.55126399400001,356,340.06,93.4,9.3,-1.2,-0.9,0.31,-0.41,0.16,0.94,-0.08,-111.2,-0.1,-4.0,-1.49,0.01,0.01,0.0,0.9568698971124548,1.0364362016062543,0.0,0.0,2.0,0.6,0.03367616272883267,0.2,1.0,-160.0,0,0,calibrating,0,0,0,0,0,0.0
3.563028082999949,357,340.07,93.4,9.2,-1.3,-0.82,0.29,-0.46,0.14,0.95,-0.09,-111.2,0.1,4.0,-1.49,-0.01,0.08,0.0,0.9644687656943588,0.9839207285142436,0.0,0.0,2.0,0.6,0.025555748263990097,0.2,1.0,-160.0,0,0,calibrating,0,0,0,0,0,0.0
3.57119568600001,358,340.08,93.3,9.2,-1.3,-0.84,0.3,-0.52,0.14,0.95,-0.1,-111.2,-0.3,0.0,-1.49,0.0,-0.02,0.0,0.9654532614269838,1.0324727599312244,0.0,0.0,2.0,0.6,0.02407982748073778,0.2,1.0,-160.0,0,0,calibrating,0,0,0,0,0,0.0
3.5830657709999514,359,340.09,93.2,9.1,-1.3,-0.84,0.35,-0.58,0.13,0.94,-0.11,-111.2,0.0,0.0,-1.49,0.0,0.0,0.0,0.9553009996854395,1.0791200118615167,0.0,0.0,2.0,0.6,0.03354744743783655,0.2,1.0,-160.0,0,0,calibrating,0,0,0,0,0,0.0
3.5913554719999183,360,340.1,93.2,9.0,-1.4,-0.73,0.41,-0.63,0.14,0.95,-0.11,-111.2,-0.8,-4.0,-1.49,0.01,-0.02,0.0,0.9665402216152207,1.047807234180028,0.0,0.0,2.0,0.6,0.021862060997894228,0.2,1.0,-160.0,0,0,calibrating,0,0,0,0,0,0.0
3.6029664110000112,361,340.11,93.2,9.0,-1.4,-0.61,0.46,-0.62,0.15,0.95,-0.1,-111.2,-1.9,-10.0,-1.49,0.06,-0.01,0.0,0.9669539802906858,0.9839207285142436,0.0,0.0,2.0,0.6,0.021019336275980516,0.2,1.0,-160.0,0,0,calibrating,0,0,0,0,0,0.0
3.6112937020000118,362,340.12,93.1,8.9,-1.4,-0.49,0.47,-0.58,0.16,0.96,-0.08,-111.2,-3.8,-17.0,-1.49,0.12,-0.01,0.0,0.9765244492586962,0.892972563968233,0.0,0.0,2.0,0.6,0.01121988996181067,0.2,1.0,-160.0,0,0,calibrating,0,0,0,0,0,0.0
3.623004923999929,363,340.13,93.1,8.9,-1.5,-0.41,0.46,-0.54,0.17,0.96,-0.08,-111.3,-6.0,-18.0,-1.49,0.19,-0.03,0.0,0.9782126558167197,0.8193289937503737,0.0,0.0,2.0,0.6,0.009341049735711482,0.2,1.0,-160.0,0,0,calibrating,0,0,0,0,0,0.0
3.6307762939999293,364,340.14,93.1,8.8,-1.5,-0.36,0.45,-0.51,0.16,0.96,-0.08,-111.4,-8.5,-32.0,-1.49,0.3,0.05,0.0,0.9765244492586962,0.7695453203028396,0.0,0.0,2.0,0.6,0.010808671167860218,0.2,1.0,-160.0,0,0,calibrating,0,0,0,0,0,0.0
3.6430311589999747,365,340.15,93.0,8.8,-1.6,-0.36,0.46,-0.52,0.16,0.94,-0.09,-111.5,-16.3,-69.0,-1.48,0.54,-0.07,0.0,0.9577577981932592,0.7820485918406861,0.0,0.0,2.0,0.6,0.028983815788631184,0.2,1.0,-160.0,0,0,calibrating,0,0,0,0,0,0.0
3.651297934000013,366,340.16,93.0,8.8,-1.6,-0.3,0.48,-0.55,0.16,0.94,-0.1,-111.7,-24.4,-79.0,-1.48,0.77,0.15,0.0,0.9587491851365507,0.7892401408950257,0.0,0.0,2.0,0.6,0.02743258026843287,0.2,1.0,-160.0,0,0,calibrating,0,0,0,0,0,0.0
3.6628375129999995,367,340.17,93.0,8.7,-1.7,-0.18,0.51,-0.57,0.16,0.93,-0.1,-112.0,-34.3,-95.0,-1.47,1.06,0.21,0.0,0.9489467845985886,0.7857480512225277,0.0,0.0,2.0,0.6,0.03649028119026709,0.2,1.0,-160.0,0,0,calibrating,0,0,0,0,0,0.0
3.6714159480000035,368,340.18,93.0,8.7,-1.7,-0.04,0.52,-0.58,0.17,0.92,-0.12,-112.5,-46.4,-116.0,-1.45,1.41,0.02,0.0,0.9432391001225512,0.78,0.0,0.0,2.0,0.6,0.04135400635297848,0.2,1.0,-160.0,0,0,calibrating,0,0,0,0,0,0.0
3.6830508479999935,369,340.19,93.1,8.6,-1.8,0.07,0.58,-0.65,0.18,0.91,-0.14,-112.9,-56.8,-113.0,-1.44,1.71,0.17,0.0,0.9381364506296512,0.8739565206576355,0.0,0.0,2.0,0.6,0.04552752272896088,0.2,1.0,-160.0,0,0,calibrating,0,0,0,0,0,0.0
3.691326305999951,370,340.2,93.1,8.6,-1.8,0.14,0.69,-0.74,0.2,0.91,-0.16,-113.6,-69.3,-126.0,-1.42,2.06,0.13,0.0,0.9453570753953239,1.021420579389313,0.0,0.0,2.0,0.6,0.03754076000402251,0.2,1.0,-160.0,0,0,calibrating,0,0,0,0,0,0.0
3.703162603999999,371,340.21,93.1,8.5,-1.9,0.25,0.88,-0.85,0.22,0.91,-0.18,-114.4,-80.6,-110.0,-1.39,2.33,0.0,0.0,0.9533624704172071,1.2487593843491227,0.0,0.0,2.0,0.6,0.028944657682496433,0.2,1.0,-160.0,0,0,calibrating,0,0,0,0,0,0.0
3.7112727799999448,372,340.22,93.1,8.4,-2.0,0.39,1.14,-0.94,0.25,0.91,-0.2,-115.3,-91.5,-113.0,-1.37,2.62,0.0,0.0,0.9646761114488117,1.5281688388394783,0.0,0.0,2.0,0.6,0.01727839631787398,0.2,1.0,-160.0,0,0,calibrating,0,0,0,0,0,0.0
3.72284321799998,373,340.23,93.1,8.3,-2.2,0.64,1.51,-0.94,0.27,0.96,-0.2,-116.2,-100.7,-94.0,-1.34,2.83,0.06,0.0,1.0171037311896953,1.8903174336602835,0.0,0.0,2.0,0.6,0.03444623895454946,0.2,1.0,-160.0,0,0,calibrating,0,0,0,0,0,0.0
3.7313495449999436,374,340.24,93.2,8.2,-2.4,0.85,1.91,-0.84,0.28,1.0,-0.19,-117.3,-108.8,-83.0,-1.31,3.05,0.01,0.0,1.0556988206870368,2.253042387528472,0.0,0.0,2.0,0.6,0.07158050188285314,0.2,1.0,-160.0,0,0,calibrating,0,0,0,0,0,0.0
3.7432202389999247,375,340.25,93.3,8.2,-2.6,1.07,2.34,-0.64,0.28,1.04,-0.17,-118.4,-116.5,-81.0,-1.28,3.26,-0.15,0.0,1.0903669107231748,2.651433574502669,0.0,0.0,2.0,0.6,0.10412362008061138,0.2,1.0,-160.0,0,0,calibrating,0,0,0,0,0,0.0
3.7512486470000113,376,340.26,93.3,8.1,-2.8,1.11,2.71,-0.43,0.26,1.04,-0.16,-119.7,-123.0,-57.0,-1.25,3.38,0.09,0.0,1.0838819123871384,2.95991553933554,0.0,0.0,2.0,0.6,0.09568584930968327,0.2,1.0,-160.0,0,0,calibrating,0,0,0,0,0,0.0
3.762896221999995,377,340.27,93.4,8.1,-3.1,1.16,2.93,-0.28,0.23,1.0,-0.15,-120.9,-127.2,-49.0,-1.21,3.51,0.05,0.0,1.0370149468546728,3.163684560761392,0.0,0.0,2.0,0.6,0.04784250610167351,0.2,1.0,-160.0,0,0,calibrating,0,0,0,0,0,0.0
3.7712353289999783,378,340.28,93.5,8.1,-3.4,1.26,2.95,-0.18,0.2,0.96,-0.14,-122.2,-131.4,-45.0,-1.18,3.63,0.0,0.0,0.9905553997631833,3.212864765283469,0.0,0.0,2.0,0.6,0.0013552998299803942,0.2,1.0,-160.0,0,0,calibrating,0,0,0,0,0,0.0
3.7828439919999255,379,340.29,93.6,8.1,-3.7,1.4,2.93,-0.21,0.17,0.89,-0.14,-123.6,-136.9,-59.0,-1.14,3.82,-0.04,0.0,0.9168424073961675,3.2540743691563043,0.0,0.0,2.0,0.6,0.07091053868629471,0.2,1.0,-160.0,0,0,calibrating,0,0,0,0,0,0.0
3.7913786440000194,380,340.3,93.7,8.1,-4.0,1.83,2.95,-0.39,0.15,0.88,-0.13,-125.0,-144.4,-65.0,-1.1,4.0,0.01,0.0,0.9021086409075129,3.493350826928209,0.0,0.0,2.0,0.6,0.08393141907145041,0.2,1.0,-160.0,0,0,calibrating,0,0,0,0,0,0.0
3.803286959999923,381,340.31,93.9,8.1,-4.3,1.96,2.94,-0.42,0.11,0.99,-0.04,-126.5,-149.8,-53.0,-1.06,4.13,0.04,0.0,0.9968951800465282,3.5583142075988734,0.0,0.0,2.0,0.6,0.01063801766621364,0.2,1.0,-160.0,0,0,calibrating,0,0,0,0,0,0.0
3.811118456999907,382,340.32,94.0,8.1,-4.6,1.47,2.94,-0.3,0.07,1.03,-0.03,-128.0,-152.4,-27.0,-1.02,4.15,0.01,0.0,1.032811696293182,3.3006817477606045,0.0,0.0,2.0,0.6,0.045623443234609984,0.2,1.0,-160.0,0,0,calibrating,0,0,0,0,0,0.0
3.8230210089999446,383,340.33,94.1,8.0,-4.9,1.44,3.0,-0.24,0.04,1.1,-0.02,-129.5,-153.2,-22.0,-0.98,4.19,0.06,0.0,1.100908715561831,3.3363453058698824,0.0,0.0,2.0,0.6,0.11144605325319379,0.2,1.0,-160.0,0,0,calibrating,0,0,0,0,0,0.0
3.8313495300000113,384,340.34,94.2,8.0,-5.2,1.66,2.85,0.06,0.04,1.26,0.07,-131.1,-155.6,-20.0,-0.93,4.25,-0.16,0.0,1.2625767303415663,3.29874218453034,0.0,0.0,2.0,0.6,0.2676517866722705,0.2,1.0,-160.0,0,0,calibrating,0,0,0,0,0,0.0
3.8431227529999887,385,340.35,94.3,8.1,-5.5,1.46,2.48,0.61,0.0,1.32,0.12,-132.6,-157.7,-14.0,-0.89,4.28,0.09,0.0,1.3254433220624713,2.9417851723060946,0.0,0.0,2.0,0.6,0.32390801082531206,0.2,1.0,-160.0,0,0,calibrating,0,0,0,0,0,0.0
3.851171798999985,386,340.36,94.4,8.2,-5.7,1.11,1.97,1.03,-0.03,1.27,0.09,-134.2,-158.2,-6.0,-0.85,4.3,-0.09,0.0,1.2735383779062175,2.4847333861000056,0.0,0.0,2.0,0.6,0.2665630053356771,0.2,1.0,-160.0,0,0,calibrating,0,0,0,0,0,0.0
3.8630266509999274,387,340.37,94.5,8.3,-5.9,0.68,1.43,1.16,-0.03,1.2,0.06,-135.8,-158.0,0.0,-0.81,4.28,-0.03,0.0,1.2018735374406078,1.9628805363546709,0.0,0.0,2.0,0.6,0.19100020157266595,0.2,1.0,-160.0,0,0,calibrating,0,0,0,0,0,0.0
3.871282912999959,388,340.38,94.5,8.4,-6.0,0.1,0.91,1.11,0.02,1.11,0.05,-137.4,-157.9,-2.0,-0.76,4.31,0.06,0.0,1.1113055385446435,1.4388189601197228,0.0,0.0,2.0,0.6,0.09842355862316765,0.2,1.0,-160.0,0,0,calibrating,0,0,0,0,0,0.0
3.8829424449999124,389,340.39,94.5,8.5,-6.0,-0.19,0.52,0.95,0.11,1.01,0.02,-139.0,-158.2,-5.0,-0.72,4.31,0.0,0.0,1.0161692772368194,1.099545360592277,0.0,0.0,2.0,0.6,0.0032215513690365682,0.2,1.0,-160.0,0,0,calibrating,0,0,0,0,0,0.0
3.8912239139999656,390,340.4,94.4,8.6,-6.1,0.05,0.37,0.69,0.2,0.92,-0.02,-140.6,-161.1,-27.0,-0.68,4.43,0.07,0.0,0.9417005893594843,0.7845380806563821,0.0,0.0,2.0,0.6,0.06982219377813248,0.2,1.0,-160.0,0,0,calibrating,0,0,0,0,0,0.0
3.902969936999966,391,340.41,94.4,8.7,-6.1,0.68,0.52,0.37,0.27,0.9,-0.04,-142.2,-165.5,-40.0,-0.63,4.57,0.05,0.0,0.9404786015641186,0.932577074562741,0.0,0.0,2.0,0.6,0.06962329794202826,0.2,1.0,-160.0,0,0,calibrating,0,0,0,0,0,0.0
3.9112246679999316,392,340.42,94.5,8.7,-6.2,1.23,0.98,0.01,0.32,0.93,-0.06,-143.9,-169.6,-33.0,-0.58,4.64,-0.15,0.0,0.9853425800197616,1.5727046766637405,0.0,0.0,2.0,0.6,0.024264133096657536,0.2,1.0,-160.0,0,0,calibrating,0,0,0,0,0,0.0
3.923124618999964,393,340.43,94.7,8.7,-6.3,1.49,1.62,-0.23,0.34,0.97,-0.07,-145.6,-172.5,-32.0,-0.54,4.72,0.06,0.0,1.0302426898551622,2.2130070040557936,0.0,0.0,2.0,0.6,0.020223257203968226,0.2,1.0,-160.0,0,0,calibrating,0,0,0,0,0,0.0
3.9312267169999586,394,340.44,94.8,8.7,-6.5,1.48,2.23,-0.42,0.32,1.04,-0.06,-147.4,-175.4,-32.0,-0.49,4.81,-0.05,0.0,1.0897706180660223,2.7091880702527833,0.0,0.0,2.0,0.6,0.07815616170653161,0.2,1.0,-160.0,0,0,calibrating,0,0,0,0,0,0.0
3.942906698999991,395,340.45,94.9,8.7,-6.8,1.21,2.74,-0.45,0.27,1.07,-0.04,-149.1,-178.0,-26.0,-0.44,4.87,0.29,0.0,1.1042644610780517,3.0288941876533095,0.0,0.0,2.0,0.6,0.09079700462418971,0.2,1.0,-160.0,0,0,calibrating,0,0,0,0,0,0.0
3.9513026629999786,396,340.46,94.9,8.7,-7.1,0.89,3.12,-0.4,0.21,1.07,-0.02,-150.9,-182.0,-37.0,-0.39,4.99,-0.03,0.0,1.090596167240652,3.269021260255124,0.0,0.0,2.0,0.6,0.07558613657105417,0.2,1.0,-160.0,0,0,calibrating,0,0,0,0,0,0.0
3.9628950709999344,397,340.47,94.9,8.7,-7.4,0.58,3.36,-0.34,0.15,1.04,0.0,-152.8,-185.1,-28.0,-0.34,5.05,0.09,0.0,1.0507616285342742,3.426601815209932,0.0,0.0,2.0,0.6,0.03503656590738302,0.2,1.0,-160.0,0,0,calibrating,0,0,0,0,0,0.0
3.9712356409999074,398,340.48,94.8,8.7,-7.8,0.41,3.52,-0.31,0.11,1.0,0.01,-154.6,-185.1,-5.0,-0.29,5.03,-0.07,0.0,1.006081507632458,3.5573304597689543,0.0,0.0,2.0,0.6,0.00945068389454451,0.2,1.0,-160.0,0,0,calibrating,0,0,0,0,0,0.0
3.9830293349999693,399,340.49,94.8,8.7,-8.2,0.27,3.63,-0.3,0.08,0.97,0.03,-156.5,-184.3,9.0,-0.24,4.98,-0.05,0.0,0.973755616158387,3.6523690941634035,0.0,0.0,2.0,0.6,0.04094104386124331,0.2,1.0,-160.0,0,0,calibrating,0,0,0,0,0,0.0
3.991349731000014,400,340.5,94.8,8.7,-8.5,0.24,3.67,-0.34,0.06,0.93,0.04,-158.3,-182.3,15.0,-0.19,4.92,0.04,0.0,0.9327915093953204,3.6935213550215193,0.0,0.0,2.0,0.6,0.0802670476118238,0.2,1.0,-160.0,0,0,calibrating,0,0,0,0,0,0.0
4.003070755999943,401,340.51,94.7,8.7,-8.9,0.22,3.69,-0.4,0.05,0.92,0.05,-159.9,-180.4,19.0,-0.14,4.86,0.13,0.0,0.9227133899537818,3.718131251045342,0.0,0.0,2.0,0.6,0.088538263712295,0.2,1.0,-160.0,0,0,calibrating,0,0,0,0,0,0.0
4.011289862000012,402,340.52,94.7,8.6,-9.3,0.2,3.69,-0.47,0.03,0.91,0.07,-161.9,-176.7,34.0,-0.09,4.75,-0.11,0.0,0.9131812525451889,3.725184559186296,0.0,0.0,2.0,0.6,0.09610899309847032,0.2,1.0,-160.0,0,0,calibrating,0,0,0,0,0,0.0
4.022871151000004,403,340.53,94.7,8.6,-9.7,0.21,3.64,-0.5,0.02,0.93,0.07,-163.6,-169.8,68.0,-0.05,4.5,-0.19,0.0,0.9328451104015072,3.6801766261960855,0.0,0.0,2.0,0.6,0.07491623253730895,0.2,1.0,-160.0,0,0,calibrating,0,0,0,0,0,0.0
4.031346311999982,404,340.54,94.6,8.6,-10.0,0.24,3.56,-0.49,0.01,0.94,0.08,-165.3,-160.7,81.0,0.0,4.25,0.0,0.0,0.9434511116109832,3.6015691024885252,0.0,0.0,2.0,0.6,0.06302402670127627,0.2,1.0,-160.0,0,0,calibrating,0,0,0,0,0,0.0
4.043258025,405,340.55,94.6,8.6,-10.4,0.25,3.51,-0.48,0.02,0.94,0.08,-166.8,-151.8,90.0,0.03,4.0,-0.02,0.0,0.9436100889668358,3.55147856533022,0.0,0.0,2.0,0.6,0.0616077483585149,0.2,1.0,-160.0,0,0,calibrating,0,0,0,0,0,0.0
4.051426349999929,406,340.56,94.6,8.6,-10.7,0.18,3.45,-0.48,0.03,0.95,0.08,-168.3,-143.0,87.0,0.06,3.78,0.05,0.0,0.9538343671728337,3.4878790116631055,0.0,0.0,2.0,0.6,0.05035580074946677,0.2,1.0,-160.0,0,0,calibrating,0,0,0,0,0,0.0
4.062957035999943,407,340.57,94.5,8.5,-11.1,0.11,3.4,-0.48,0.05,0.95,0.08,-169.6,-134.2,92.0,0.1,3.52,0.01,0.0,0.9546727187890098,3.4354766772603766,0.0,0.0,2.0,0.6,0.04852710015062478,0.2,1.0,-160.0,0,0,calibrating,0,0,0,0,0,0.0
4.071256210000001,408,340.58,94.5,8.5,-11.4,0.04,3.39,-0.49,0.04,0.94,0.08,-170.9,-125.2,86.0,0.13,3.31,-0.28,0.0,0.9442457307290301,3.4254634722910127,0.0,0.0,2.0,0.6,0.05777500644639255,0.2,1.0,-160.0,0,0,calibrating,0,0,0,0,0,0.0
4.082860037999922,409,340.59,94.4,8.5,-11.8,-0.03,3.34,-0.47,0.03,0.95,0.07,-172.1,-117.8,77.0,0.17,3.11,0.16,0.0,0.9530477427705287,3.373040171714532,0.0,0.0,2.0,0.6,0.047993534516796,0.2,1.0,-160.0,0,0,calibrating,0,0,0,0,0,0.0
4.091372259999957,410,340.6,94.4,8.5,-12.1,-0.11,3.3,-0.43,0.02,0.95,0.07,-173.2,-109.7,76.0,0.2,2.9,0.03,0.0,0.9527853903162034,3.3297147024932934,0.0,0.0,2.0,0.6,0.04729076923169906,0.2,1.0,-160.0,0,0,calibrating,0,0,0,0,0,0.0
4.102989173999958,411,340.61,94.3,8.5,-12.5,-0.1,3.25,-0.37,0.02,0.96,0.07,-174.3,-103.7,66.0,0.22,2.73,-0.02,0.0,0.9627564593395361,3.272521963257084,0.0,0.0,2.0,0.6,0.03657330620419896,0.2,1.0,-160.0,0,0,calibrating,0,0,0,0,0,0.0
4.111228601999983,412,340.62,94.3,8.5,-12.8,-0.07,3.22,-0.3,0.02,0.97,0.07,-175.3,-98.1,55.0,0.25,2.6,-0.09,0.0,0.9727281223445737,3.2347024592688585,0.0,0.0,2.0,0.6,0.026069610335178184,0.2,1.0,-160.0,0,0,calibrating,0,0,0,0,0,0.0
4.12291965299994,413,340.63,94.2,8.5,-13.1,-0.05,3.17,-0.23,0.01,0.99,0.06,-176.2,-94.1,40.0,0.28,2.53,0.08,0.0,0.9918669265581951,3.1787261599577903,0.0,0.0,2.0,0.6,0.006792189999125675,0.2,1.0,-160.0,0,0,calibrating,0,0,0,0,0,0.0
4.131163227999991,414,340.64,94.2,8.5,-13.4,-0.08,3.14,-0.16,0.01,1.02,0.05,-177.2,-91.0,45.0,0.3,2.39,-0.01,0.0,1.0212737145349429,3.145091413615827,0.0,0.0,2.0,0.6,0.022162306018069677,0.2,1.0,-160.0,0,0,calibrating,0,0,0,0,0,0.0
4.143243146999907,415,340.65,94.1,8.5,-13.7,-0.16,3.09,-0.13,0.01,1.04,0.05,-178.0,-84.2,62.0,0.32,2.2,-0.1,0.0,1.0412492496996097,3.096869386977759,0.0,0.0,2.0,0.6,0.0412950843590818,0.2,1.0,-160.0,0,0,calibrating,0,0,0,0,0,0.0
4.151277778999997,416,340.66,94.0,8.5,-14.1,-0.27,3.01,-0.16,0.01,1.04,0.04,-178.8,-73.8,101.0,0.34,1.84,-0.16,0.0,1.0408169867945085,3.02631789473611,0.0,0.0,2.0,0.6,0.040045565024900975,0.2,1.0,-160.0,0,0,calibrating,0,0,0,0,0,0.0
4.162983213999951,417,340.67,94.0,8.5,-14.4,-0.42,2.92,-0.25,0.02,1.04,0.03,-179.4,-60.2,133.0,0.36,1.43,-0.08,0.0,1.0406248123122954,2.9606249340299757,0.0,0.0,2.0,0.6,0.039056322731834126,0.2,1.0,-160.0,0,0,calibrating,0,0,0,0,0,0.0
4.171298733999947,418,340.68,93.9,8.5,-14.6,-0.54,2.84,-0.35,0.02,1.04,0.03,-179.9,-44.4,153.0,0.37,0.99,-0.07,0.0,1.0406248123122954,2.911992445045145,0.0,0.0,2.0,0.6,0.03827519627719744,0.2,1.0,-160.0,0,0,calibrating,0,0,0,0,0,0.0
4.182988057999978,419,340.69,93.8,8.4,-14.9,-0.68,2.77,-0.43,0.01,1.03,0.03,-180.2,-25.7,183.0,0.38,0.44,0.0,0.0,1.0304853225543777,2.884475688925112,0.0,0.0,2.0,0.6,0.027572992388894102,0.2,1.0,-160.0,0,0,calibrating,0,0,0,0,0,0.0
4.191355683999973,420,340.7,93.6,8.4,-15.2,-0.78,2.68,-0.44,0.01,1.03,0.03,-180.4,-4.6,201.0,0.38,-0.12,0.0,0.0,1.0304853225543777,2.825668062600418,0.0,0.0,2.0,0.6,0.027021532541116278,0.2,1.0,-160.0,0,0,calibrating,0,0,0,0,0,0.0
4.203222424999922,421,340.71,93.5,8.4,-15.5,-0.82,2.56,-0.43,0.02,1.01,0.03,-180.3,11.1,151.0,0.37,-0.43,-0.24,0.0,1.010643359449811,2.722296824374594,0.0,0.0,2.0,0.6,0.007035978047818636,0.2,1.0,-160.0,0,0,calibrating,0,0,0,0,0,0.0
4.211381964999987,422,340.72,93.4,8.4,-15.7,-0.66,2.38,-0.47,0.02,0.99,0.04,-180.1,20.7,115.0,0.37,-0.7,-0.1,0.0,0.9910095862301231,2.5141400120120596,0.0,0.0,2.0,0.6,0.012345839268432135,0.2,1.0,-160.0,0,0,calibrating,0,0,0,0,0,0.0
4.222968250000008,423,340.73,93.3,8.3,-16.0,-0.34,2.11,-0.6,0.03,0.99,0.04,-179.8,33.8,131.0,0.36,-1.09,-0.2,0.0,0.9912618221237011,2.2198423367437607,0.0,0.0,2.0,0.6,0.011851731307357172,0.2,1.0,-160.0,0,0,calibrating,0,0,0,0,0,0.0
4.231308962999947,424,340.74,93.3,8.3,-16.2,-0.15,1.87,-0.73,0.03,1.01,0.03,-179.4,49.7,157.0,0.34,-1.55,0.0,0.0,1.0108906963663282,2.013032538236777,0.0,0.0,2.0,0.6,0.007621600076564539,0.2,1.0,-160.0,0,0,calibrating,0,0,0,0,0,0.0
4.243239079999967,425,340.75,93.2,8.2,-16.3,-0.15,1.68,-0.87,0.02,1.03,0.01,-178.8,67.6,183.0,0.32,-2.1,-0.07,0.0,1.0302426898551622,1.8978408784721652,0.0,0.0,2.0,0.6,0.02643412169409065,0.2,1.0,-160.0,0,0,calibrating,0,0,0,0,0,0.0
4.251270851999948,426,340.76,93.2,8.1,-16.5,-0.35,1.54,-0.96,0.01,1.04,0.03,-177.9,89.1,206.0,0.3,-2.69,-0.35,0.0,1.0404806581575652,1.8481612483763423,0.0,0.0,2.0,0.6,0.03593864819656378,0.2,1.0,-160.0,0,0,calibrating,0,0,0,0,0,0.0
4.262892595999915,427,340.77,93.1,8.0,-16.7,-0.49,1.41,-1.02,0.0,1.03,0.02,-176.9,112.8,231.0,0.27,-3.36,0.16,0.0,1.030194156457898,1.8079269896762977,0.0,0.0,2.0,0.6,0.025139103566958587,0.2,1.0,-160.0,0,0,calibrating,0,0,0,0,0,0.0
4.271419433999995,428,340.78,93.0,7.9,-16.8,-0.58,1.31,-1.07,0.0,1.02,0.01,-175.6,136.2,229.0,0.23,-3.99,-0.01,0.0,1.0200490184299968,1.78812751223172,0.0,0.0,2.0,0.6,0.014694086228276282,0.2,1.0,-160.0,0,0,calibrating,0,0,0,0,0,0.0
4.282963183999982,429,340.79,93.0,7.8,-16.9,-0.63,1.24,-1.09,0.02,1.0,0.0,-174.1,159.1,230.0,0.19,-4.6,-0.12,0.0,1.000199980003999,1.7670880000724356,0.0,0.0,2.0,0.6,0.005051853153767327,0.2,1.0,-160.0,0,0,calibrating,0,0,0,0,0,0.0
4.291363085999933,430,340.8,92.9,7.7,-17.1,-0.62,1.23,-1.09,0.03,0.98,0.0,-172.3,182.5,239.0,0.13,-5.27,-0.14,0.0,0.9804590761474953,1.7565306715227036,0.0,0.0,2.0,0.6,0.0242969018700655,0.2,1.0,-160.0,0,0,calibrating,0,0,0,0,0,0.0
4.303066512999976,431,340.81,92.8,7.5,-17.2,-0.58,1.26,-1.08,0.04,0.96,-0.02,-170.3,206.0,228.0,0.08,-5.86,0.03,0.0,0.9610411021387171,1.7579533554676587,0.0,0.0,2.0,0.6,0.04284057836126687,0.2,1.0,-160.0,0,0,calibrating,0,0,0,0,0,0.0
4.311337895999941,432,340.82,92.7,7.4,-17.3,-0.51,1.31,-1.08,0.06,0.95,-0.03,-168.1,227.2,211.0,0.02,-6.41,-0.01,0.0,0.9523654760647301,1.7727379953055669,0.0,0.0,2.0,0.6,0.05048588034654877,0.2,1.0,-160.0,0,0,calibrating,0,0,0,0,0,0.0
4.32305433199997,433,340.83,92.6,7.3,-17.5,-0.42,1.36,-1.07,0.07,0.95,-0.05,-165.7,248.8,226.0,-0.04,-7.07,-0.09,0.0,0.9538867857350787,1.780702108720041,0.0,0.0,2.0,0.6,0.04798527926267615,0.2,1.0,-160.0,0,0,calibrating,0,0,0,0,0,0.0
4.331346097999926,434,340.84,92.6,7.1,-17.6,-0.34,1.43,-1.03,0.07,0.95,-0.06,-163.0,274.7,251.0,-0.12,-7.78,-0.14,0.0,0.9544631999192007,1.794825896849051,0.0,0.0,2.0,0.6,0.04646068777698309,0.2,1.0,-160.0,0,0,calibrating,0,0,0,0,0,0.0
4.343310826999982,435,340.85,92.5,7.0,-17.8,-0.27,1.47,-0.98,0.06,0.95,-0.07,-160.1,298.0,219.0,-0.2,-8.33,-0.21,0.0,0.9544631999192007,1.787232497466404,0.0,0.0,2.0,0.6,0.04553147402144342,0.2,1.0,-160.0,0,0,calibrating,0,0,0,0,0,0.0
4.351296430999923,436,340.86,92.5,6.9,-17.9,-0.17,1.5,-0.92,0.05,0.96,-0.07,-157.0,316.8,203.0,-0.29,-8.86,-0.14,0.0,0.9638464608017192,1.7678518037437414,0.0,0.0,2.0,0.6,0.03542524887614629,0.2,1.0,-160.0,0,0,calibrating,0,0,0,0,0,0.0
4.3629820789999485,437,340.87,92.5,6.8,-18.1,-0.13,1.49,-0.87,0.04,0.97,-0.06,-153.7,337.9,212.0,-0.38,-9.46,-0.14,0.0,0.9726767191621274,1.7302889932031584,0.0,0.0,2.0,0.6,0.026063090705423342,0.2,1.0,-160.0,0,0,calibrating,0,0,0,0,0,0.0
4.371340351999947,438,340.88,92.5,6.6,-18.2,-0.15,1.48,-0.82,0.03,0.98,-0.07,-150.2,359.7,208.0,-0.48,-10.02,-0.01,0.0,0.9829547293746543,1.698617084572035,0.0,0.0,2.0,0.6,0.015469378883038454,0.2,1.0,-160.0,0,0,calibrating,0,0,0,0,0,0.0
4.382894850999946,439,340.89,92.5,6.5,-18.4,-0.18,1.48,-0.75,0.01,0.99,-0.07,-146.4,381.7,231.0,-0.58,-10.68,-0.16,0.0,0.9925220400575495,1.6689218076350971,0.0,0.0,2.0,0.6,0.005784026836140432,0.2,1.0,-160.0,0,0,calibrating,0,0,0,0,0,0.0
4.391394893999973,440,340.9,92.4,6.4,-18.5,-0.26,1.47,-0.67,0.0,0.99,-0.06,-142.4,402.6,185.0,-0.69,-11.1,-0.12,0.0,0.9918165152889924,1.636276260293475,0.0,0.0,2.0,0.6,0.006359760572603568,0.2,1.0,-160.0,0,0,calibrating,0,0,0,0,0,0.0
4.403094798999973,441,340.91,92.4,6.3,-18.7,-0.34,1.44,-0.57,0.0,1.0,-0.06,-138.3,417.6,185.0,-0.81,-11.62,-0.12,0.0,1.0017983829094554,1.5855913723276878,0.0,0.0,2.0,0.6,0.003549664906902339,0.2,1.0,-160.0,0,0,calibrating,0,0,0,0,0,0.0
4.411402040999974,442,340.92,92.4,6.2,-18.8,-0.49,1.38,-0.47,0.0,1.01,-0.06,-134.0,439.9,196.0,-0.93,-12.16,-0.09,0.0,1.0117806086301517,1.537985695642193,0.0,0.0,2.0,0.6,0.013261252815046642,0.2,1.0,-160.0,0,0,calibrating,0,0,0,0,0,0.0
4.422885152999925,443,340.93,92.3,6.1,-19.0,-0.74,1.3,-0.33,0.0,1.01,-0.06,-129.5,453.4,166.0,-1.05,-12.58,-0.1,0.0,1.0117806086301517,1.5318289721767244,0.0,0.0,2.0,0.6,0.012996027758745754,0.2,1.0,-160.0,0,0,calibrating,0,0,0,0,0,0.0
4.431350242999997,444,340.94,92.2,6.0,-19.1,-1.03,1.21,-0.15,-0.01,1.01,-0.05,-124.8,477.3,205.0,-1.18,-13.19,0.16,0.0,1.0112863096077194,1.5960889699512368,0.0,0.0,2.0,0.6,0.012251694161587112,0.2,1.0,-160.0,0,0,calibrating,0,0,0,0,0,0.0
4.443184771999995,445,340.95,92.1,5.9,-19.2,-1.24,1.09,0.02,-0.03,1.0,-0.04,-119.9,485.8,78.0,-1.32,-13.17,0.07,0.0,1.0012492197250393,1.6510905486980416,0.0,0.0,2.0,0.6,0.0021703121933289715,0.2,1.0,-160.0,0,0,calibrating,0,0,0,0,0,0.0
4.451341787999922,446,340.96,91.9,5.9,-19.3,-1.35,0.93,0.19,-0.05,1.0,-0.04,-115.1,480.7,-42.0,-1.45,-12.87,0.17,0.0,1.0020479030465559,1.6503030024816654,0.0,0.0,2.0,0.6,0.00290961560454861,0.2,1.0,-160.0,0,0,calibrating,0,0,0,0,0,0.0
4.463023970999984,447,340.97,91.8,5.9,-19.4,-1.42,0.67,0.36,-0.06,0.99,-0.03,-110.4,461.8,-148.0,-1.57,-12.31,0.14,0.0,0.9922701245124737,1.6108693305169106,0.0,0.0,2.0,0.6,0.006730799670942922,0.2,1.0,-160.0,0,0,calibrating,0,0,0,0,0,0.0
4.471334128999956,448,340.98,91.6,6.0,-19.4,-1.43,0.39,0.48,-0.04,0.98,-0.02,-106.0,433.3,-298.0,-1.69,-11.23,-0.01,0.0,0.9810198774744576,1.5580115532305914,0.0,0.0,2.0,0.6,0.017621425774779764,0.2,1.0,-160.0,0,0,calibrating,0,0,0,0,0,0.0
4.482883169999923,449,340.99,91.5,6.0,-19.5,-1.4,0.12,0.52,0.0,0.97,-0.03,-102.0,388.1,-382.0,-1.79,-10.07,0.25,0.0,0.9704638066409277,1.4982656640262433,0.0,0.0,2.0,0.6,0.027613946676143475,0.2,1.0,-160.0,0,0,calibrating,0,0,0,0,0,0.0
4.491259316999958,450,341.0,91.4,6.0,-19.5,-1.28,-0.08,0.52,0.04,0.97,-0.03,-98.6,354.1,-455.0,-1.89,-9.03,0.1,0.0,0.9712878049270464,1.3839075113604955,0.0,0.0,2.0,0.6,0.02625414942222437,0.2,1.0,-160.0,0,0,calibrating,0,0,0,0,0,0.0
4.503135749999956,451,341.01,91.3,6.0,-19.4,-1.16,-0.21,0.49,0.07,0.97,-0.04,-94.8,310.1,-419.0,-1.98,-7.96,0.04,0.0,0.973344748791506,1.2766362050325848,0.0,0.0,2.0,0.6,0.023713261446609346,0.2,1.0,-160.0,0,0,calibrating,0,0,0,0,0,0.0
4.511389516999998,452,341.02,91.2,6.1,-19.4,-1.17,-0.28,0.48,0.08,0.97,-0.05,-91.9,276.9,-320.0,-2.05,-7.26,0.15,0.0,0.9745768312452333,1.2952605915413313,0.0,0.0,2.0,0.6,0.022031555413024373,0.2,1.0,-160.0,0,0,calibrating,0,0,0,0,0,0.0
4.522954515999913,453,341.03,91.1,6.1,-19.4,-1.23,-0.28,0.52,0.08,0.95,-0.06,-89.3,255.3,-246.0,-2.12,-6.68,-0.13,0.0,0.95524865872714,1.3644412775931398,0.0,0.0,2.0,0.6,0.040532533372495294,0.2,1.0,-160.0,0,0,calibrating,0,0,0,0,0,0.0
4.531164797999963,454,341.04,91.0,6.1,-19.3,-1.05,-0.29,0.57,0.06,0.94,-0.06,-86.9,234.1,-234.0,-2.18,-6.07,1.21,0.0,0.9438220171197533,1.229430762588931,0.0,0.0,2.0,0.6,0.050919991480284366,0.2,1.0,-160.0,0,0,calibrating,0,0,0,0,0,0.0
4.54325200400001,455,341.05,90.9,6.2,-19.3,-0.84,-0.34,0.62,0.03,0.94,-0.06,-84.7,208.6,-256.0,-2.24,-5.34,0.01,0.0,0.9423905772024675,1.0979981785048645,0.0,0.0,2.0,0.6,0.051304402769618784,0.2,1.0,-160.0,0,0,calibrating,0,0,0,0,0,0.0
4.551151550999975,456,341.06,90.9,6.2,-19.3,-0.68,-0.46,0.68,0.01,0.95,-0.06,-82.8,182.4,-252.0,-2.29,-4.66,0.08,0.0,0.951945376584182,1.0660206376989145,0.0,0.0,2.0,0.6,0.04091461132014629,0.2,1.0,-160.0,0,0,calibrating,0,0,0,0,0,0.0
4.562988122999968,457,341.07,90.8,6.2,-19.2,-0.6,-0.61,0.72,0.0,0.96,-0.05,-81.1,158.7,-233.0,-2.33,-4.05,0.17,0.0,0.9613012014972206,1.1182575731914361,0.0,0.0,2.0,0.6,0.030927610678965434,0.2,1.0,-160.0,0,0,calibrating,0,0,0,0,0,0.0
4.571365207999975,458,341.08,90.8,6.2,-19.1,-0.62,-0.79,0.75,0.0,0.97,-0.05,-79.7,139.1,-198.0,-2.37,-3.57,0.06,0.0,0.9712878049270462,1.2533953885346796,0.0,0.0,2.0,0.6,0.020522187104156986,0.2,1.0,-160.0,0,0,calibrating,0,0,0,0,0,0.0
4.582943283999953,459,341.09,90.8,6.2,-19.0,-0.65,-1.0,0.75,0.0,0.97,-0.05,-78.4,122.9,-164.0,-2.4,-3.17,0.16,0.0,0.9712878049270462,1.408900280360537,0.0,0.0,2.0,0.6,0.020111743362073886,0.2,1.0,-160.0,0,0,calibrating,0,0,0,0,0,0.0
4.591347621999944,460,341.1,90.7,6.3,-18.9,-0.62,-1.22,0.76,0.0,0.96,-0.05,-77.3,109.9,-138.0,-2.43,-2.83,-0.08,0.0,0.9613012014972206,1.5653753543479596,0.0,0.0,2.0,0.6,0.02949637985606146,0.2,1.0,-160.0,0,0,calibrating,0,0,0,0,0,0.0
4.603254968999977,461,341.11,90.7,6.4,-18.8,-0.55,-1.41,0.77,-0.01,0.95,-0.05,-76.3,96.4,-136.0,-2.45,-2.46,0.13,0.0,0.9513674369033238,1.6980871591293538,0.0,0.0,2.0,0.6,0.038641541560959,0.2,1.0,-160.0,0,0,calibrating,0,0,0,0,0,0.0
4.611409891999983,462,341.12,90.7,6.4,-18.6,-0.45,-1.62,0.77,-0.01,0.95,-0.04,-75.4,84.2,-124.0,-2.48,-2.15,-0.1,0.0,0.9508943158942533,1.8492701262930735,0.0,0.0,2.0,0.6,0.038332369318629045,0.2,1.0,-160.0,0,0,calibrating,0,0,0,0,0,0.0
4.623221911999963,463,341.13,90.6,6.5,-18.5,-0.32,-1.86,0.78,-0.01,0.94,-0.04,-74.6,72.4,-125.0,-2.5,-1.8,0.07,0.0,0.9409038208021051,2.04215572373901,0.0,0.0,2.0,0.6,0.04735640712256173,0.2,1.0,-160.0,0,0,calibrating,0,0,0,0,0,0.0
4.631411486999923,464,341.14,90.6,6.6,-18.3,-0.2,-2.11,0.79,-0.01,0.94,-0.04,-74.0,56.9,-158.0,-2.51,-1.31,0.05,0.0,0.9409038208021051,2.261901854634723,0.0,0.0,2.0,0.6,0.04640927898011049,0.2,1.0,-160.0,0,0,calibrating,0,0,0,0,0,0.0
4.6428802409999435,465,341.15,90.6,6.7,-18.0,-0.08,-2.36,0.81,0.0,0.94,-0.05,-73.6,37.6,-185.0,-2.52,-0.76,0.2,0.0,0.9413288479590965,2.4964174330427995,0.0,0.0,2.0,0.6,0.04506456678665671,0.2,1.0,-160.0,0,0,calibrating,0,0,0,0,0,0.0
4.651206129000002,466,341.16,90.7,6.8,-17.8,0.01,-2.57,0.82,0.0,0.94,-0.07,-73.4,15.2,-222.0,-2.52,-0.09,0.11,0.0,0.9426027795418386,2.6976656575639613,0.0,0.0,2.0,0.6,0.04291482249983636,0.2,1.0,-160.0,0,0,calibrating,0,0,0,0,0,0.0
4.662906356000008,467,341.17,90.7,6.8,-17.5,0.1,-2.73,0.85,0.01,0.94,-0.08,-73.4,-4.8,-159.0,-2.52,0.21,0.07,0.0,0.9434511116109832,2.861013806328099,0.0,0.0,2.0,0.6,0.04122516062207793,0.2,1.0,-160.0,0,0,calibrating,0,0,0,0,0,0.0
4.671545136999953,468,341.18,90.8,6.9,-17.2,0.19,-2.86,0.89,0.03,0.94,-0.09,-73.4,-6.9,-49.0,-2.52,0.17,-0.1,0.0,0.9447751055145346,3.0012997184553223,0.0,0.0,2.0,0.6,0.03910314338415599,0.2,1.0,-160.0,0,0,calibrating,0,0,0,0,0,0.0
4.682950384999913,469,341.19,90.8,7.0,-16.9,0.25,-2.98,0.98,0.03,0.94,-0.11,-73.5,-8.2,-43.0,-2.52,0.29,-0.05,0.0,0.9468896451012652,3.146950905241453,0.0,0.0,2.0,0.6,0.03624883172147686,0.2,1.0,-160.0,0,0,calibrating,0,0,0,0,0,0.0
4.691476899000008,470,341.2,90.9,7.1,-16.6,0.32,-3.09,1.03,0.02,0.94,-0.12,-73.6,-13.8,-50.0,-2.51,0.45,0.01,0.0,0.9478396488858228,3.2728275237170688,0.0,0.0,2.0,0.6,0.0345928513781808,0.2,1.0,-160.0,0,0,calibrating,0,0,0,0,0,0.0
4.70292825599995,471,341.21,91.0,7.2,-16.3,0.33,-3.2,1.09,0.02,0.95,-0.12,-73.8,-23.2,-105.0,-2.51,0.81,0.0,0.0,0.9577577981932592,3.396615962984335,0.0,0.0,2.0,0.6,0.024181208029329437,0.2,1.0,-160.0,0,0,calibrating,0,0,0,0,0,0.0
4.715346296999996,472,341.22,91.0,7.3,-16.0,0.42,-3.34,1.11,0.04,0.95,-0.11,-74.2,-37.1,-111.0,-2.5,1.12,-0.07,0.0,0.957183368012629,3.5445874231001837,0.0,0.0,2.0,0.6,0.024260525445760517,0.2,1.0,-160.0,0,0,calibrating,0,0,0,0,0,0.0
4.723460226999919,473,341.23,91.1,7.4,-15.6,0.72,-3.49,1.0,0.07,0.96,-0.11,-74.6,-43.2,-58.0,-2.48,1.19,-0.08,0.0,0.9688137075826291,3.70114847040753,0.0,0.0,2.0,0.6,0.012377582158245248,0.2,1.0,-160.0,0,0,calibrating,0,0,0,0,0,0.0
4.731428924999932,474,341.24,91.3,7.5,-15.2,1.15,-3.53,0.75,0.1,0.98,-0.11,-75.0,-46.4,-59.0,-2.47,1.35,0.01,0.0,0.9912113800799505,3.787598183545873,0.0,0.0,2.0,0.6,0.009819688532294646,0.2,1.0,-160.0,0,0,calibrating,0,0,0,0,0,0.0
4.743048580999925,475,341.25,91.5,7.5,-14.9,1.17,-3.39,0.45,0.08,1.02,-0.13,-75.6,-57.2,-110.0,-2.46,1.74,0.19,0.0,1.0313583276436953,3.614346413945404,0.0,0.0,2.0,0.6,0.0489673033741187,0.2,1.0,-160.0,0,0,calibrating,0,0,0,0,0,0.0
4.751451971999927,476,341.26,91.7,7.5,-14.6,0.8,-3.16,0.23,0.05,1.03,-0.13,-76.2,-74.1,-161.0,-2.43,2.26,0.0,0.0,1.0393748120865733,3.2677974233419063,0.0,0.0,2.0,0.6,0.05584411206065709,0.2,1.0,-160.0,0,0,calibrating,0,0,0,0,0,0.0
4.76304595199997,477,341.27,91.8,7.5,-14.3,0.55,-3.01,0.09,0.06,1.01,-0.1,-77.1,-94.9,-183.0,-2.41,2.79,0.15,0.0,1.0167103815738285,3.0611599108834544,0.0,0.0,2.0,0.6,0.03251608791695382,0.2,1.0,-160.0,0,0,calibrating,0,0,0,0,0,0.0
4.771387980999975,478,341.28,91.9,7.5,-13.9,0.76,-3.01,0.01,0.08,0.97,-0.07,-78.2,-110.6,-159.0,-2.38,3.18,0.17,0.0,0.9758073580374356,3.104480632891756,0.0,0.0,2.0,0.6,0.008219196907050419,0.2,1.0,-160.0,0,0,calibrating,0,0,0,0,0,0.0
4.782994344999906,479,341.29,92.1,7.5,-13.6,1.24,-3.08,-0.12,0.1,0.96,-0.07,-79.4,-125.2,-153.0,-2.34,3.58,-0.07,0.0,0.9677293009927931,3.3224087647368137,0.0,0.0,2.0,0.6,0.015971308872659074,0.2,1.0,-160.0,0,0,calibrating,0,0,0,0,0,0.0
4.791404483999941,480,341.3,92.3,7.4,-13.3,1.45,-3.11,-0.33,0.12,0.99,-0.07,-80.8,-139.7,-144.0,-2.3,3.96,0.02,0.0,0.9996999549864949,3.4472452770291815,0.0,0.0,2.0,0.6,0.015679358218621875,0.2,1.0,-160.0,0,0,calibrating,0,0,0,0,0,0.0
4.802987665999922,481,341.31,92.5,7.4,-13.0,1.51,-2.94,-0.57,0.13,1.02,-0.06,-82.2,-152.5,-127.0,-2.26,4.28,-0.14,0.0,1.03,3.3538932600785016,0.0,0.0,2.0,0.6,0.045059815167484474,0.2,1.0,-160.0,0,0,calibrating,0,0,0,0,0,0.0
4.81134354400001,482,341.32,92.7,7.3,-12.7,1.5,-2.68,-0.84,0.15,1.05,-0.05,-83.8,-162.1,-97.0,-2.22,4.49,0.14,0.0,1.061838029079765,3.1840226129850273,0.0,0.0,2.0,0.6,0.07535988736230459,0.2,1.0,-160.0,0,0,calibrating,0,0,0,0,0,0.0
4.822997643999997,483,341.33,92.9,7.2,-12.5,1.44,-2.33,-1.04,0.17,1.09,-0.06,-85.5,-166.3,-34.0,-2.17,4.48,-0.05,0.0,1.1048076755707303,2.9298634780480817,0.0,0.0,2.0,0.6,0.11596294317620448,0.2,1.0,-160.0,0,0,calibrating,0,0,0,0,0,0.0
4.831415123999932,484,341.34,93.0,7.1,-12.3,1.25,-1.95,-1.22,0.18,1.11,-0.03,-87.1,-160.6,44.0,-2.13,4.23,-0.02,0.0,1.1248999955551604,2.617899921692959,0.0,0.0,2.0,0.6,0.13333415789742187,0.2,1.0,-160.0,0,0,calibrating,0,0,0,0,0,0.0
4.842920453999909,485,341.35,93.2,7.0,-12.1,1.48,-1.68,-1.45,0.17,1.12,0.0,-88.6,-146.7,126.0,-2.09,3.76,0.14,0.0,1.1328283188550683,2.6674519677025113,0.0,0.0,2.0,0.6,0.13843723157338317,0.2,1.0,-160.0,0,0,calibrating,0,0,0,0,0,0.0
4.851364719999992,486,341.36,93.3,6.8,-12.0,1.71,-1.39,-1.67,0.17,1.16,0.02,-90.0,-127.5,165.0,-2.06,3.25,0.01,0.0,1.1725612990372827,2.764977395929305,0.0,0.0,2.0,0.6,0.17460680752048563,0.2,1.0,-160.0,0,0,calibrating,0,0,0,0,0,0.0
4.862909522999985,487,341.37,93.4,6.6,-11.9,1.54,-1.15,-1.75,0.15,1.19,0.03,-91.1,-109.1,176.0,-2.03,2.75,0.02,0.0,1.1997916485790354,2.5993460716110888,0.0,0.0,2.0,0.6,0.1978004139209939,0.2,1.0,-160.0,0,0,calibrating,0,0,0,0,0,0.0
4.871369514999969,488,341.38,93.5,6.5,-11.8,1.12,-0.96,-1.65,0.09,1.2,0.01,-92.1,-92.4,165.0,-2.0,2.32,0.06,0.0,1.2034118164618461,2.2132555207205518,0.0,0.0,2.0,0.6,0.19739217016772836,0.2,1.0,-160.0,0,0,calibrating,0,0,0,0,0,0.0
4.8830653299999085,489,341.39,93.6,6.3,-11.7,0.63,-0.87,-1.34,0.0,1.18,0.02,-92.9,-79.4,139.0,-1.98,1.98,-0.09,0.0,1.1801694793545543,1.7173817280965813,0.0,0.0,2.0,0.6,0.17066683639922786,0.2,1.0,-160.0,0,0,calibrating,0,0,0,0,0,0.0
4.891305648999946,490,341.4,93.7,6.2,-11.6,0.45,-1.08,-0.95,-0.08,1.16,0.06,-93.6,-66.1,130.0,-1.96,1.66,-0.07,0.0,1.1643023662262308,1.5071164520368026,0.0,0.0,2.0,0.6,0.15170372880548633,0.2,1.0,-160.0,0,0,calibrating,0,0,0,0,0,0.0
4.902887115999988,491,341.41,93.7,6.1,-11.5,0.51,-1.58,-0.58,-0.15,1.14,0.12,-94.2,-56.4,103.0,-1.95,1.41,0.08,0.0,1.1560709320798614,1.7586642658563345,0.0,0.0,2.0,0.6,0.14060284876593454,0.2,1.0,-160.0,0,0,calibrating,0,0,0,0,0,0.0
4.915434655000013,492,341.42,93.8,6.0,-11.3,0.63,-2.29,-0.31,-0.19,1.12,0.12,-94.7,-48.1,82.0,-1.94,1.23,-0.17,0.0,1.142322196230118,2.3952244153732236,0.0,0.0,2.0,0.6,0.12431703065786737,0.2,1.0,-160.0,0,0,calibrating,0,0,0,0,0,0.0
4.923397028999943,493,341.43,93.9,6.0,-11.0,0.55,-2.92,-0.04,-0.19,1.13,0.11,-95.2,-43.1,59.0,-1.92,1.12,0.04,0.0,1.1511298797268708,2.9716157221282833,0.0,0.0,2.0,0.6,0.13046221987152773,0.2,1.0,-160.0,0,0,calibrating,0,0,0,0,0,0.0
4.931308184999921,494,341.44,94.0,6.0,-10.7,0.22,-3.51,0.26,-0.17,1.12,0.12,-95.6,-40.6,33.0,-1.91,1.08,0.09,0.0,1.1391663618629195,3.526485502593198,0.0,0.0,2.0,0.6,0.11612872796742502,0.2,1.0,-160.0,0,0,calibrating,0,0,0,0,0,0.0
4.942884188999983,495,341.45,94.0,6.0,-10.3,-0.03,-4.06,0.56,-0.12,1.08,0.12,-96.0,-38.5,25.0,-1.9,1.02,0.08,0.0,1.0932520294973158,4.098548523562945,0.0,0.0,2.0,0.6,0.0688101076897849,0.2,1.0,-160.0,0,0,calibrating,0,0,0,0,0,0.0
4.9514195519999475,496,341.46,94.0,6.0,-9.9,-0.19,-4.51,0.79,-0.06,1.04,0.12,-96.4,-37.5,9.0,-1.89,1.02,-0.07,0.0,1.0486181383134663,4.582608427522474,0.0,0.0,2.0,0.6,0.02369269217581671,0.2,1.0,-160.0,0,0,calibrating,0,0,0,0,0,0.0
4.962844358999973,497,341.47,94.1,6.1,-9.4,-0.27,-4.84,0.95,0.01,1.0,0.12,-96.7,-37.9,6.0,-1.88,1.01,-0.03,0.0,1.0072239075796403,4.93973683509557,0.0,0.0,2.0,0.6,0.017347507786849015,0.2,1.0,-160.0,0,0,calibrating,0,0,0,0,0,0.0
4.971173080999961,498,341.48,94.1,6.2,-8.9,-0.39,-5.05,1.02,0.08,0.96,0.11,-97.1,-38.1,4.0,-1.87,1.01,0.01,0.0,0.9695875411740809,5.166720429827803,0.0,0.0,2.0,0.6,0.05388419670856037,0.2,1.0,-160.0,0,0,calibrating,0,0,0,0,0,0.0
4.982953976999966,499,341.49,94.1,6.2,-8.4,-0.58,-5.12,1.03,0.14,0.91,0.08,-97.5,-35.7,16.0,-1.86,0.94,0.07,0.0,0.9241753080449617,5.254683625110079,0.0,0.0,2.0,0.6,0.09731050124092577,0.2,1.0,-160.0,0,0,calibrating,0,0,0,0,0,0.0
4.991323594999926,500,341.5,94.1,6.3,-7.8,-0.7,-5.06,0.95,0.18,0.86,0.08,-97.8,-32.5,25.0,-1.85,0.86,-0.01,0.0,0.882269800004511,5.195777131478986,0.0,0.0,2.0,0.6,0.1364316890957491,0.2,1.0,-160.0,0,0,calibrating,0,0,0,0,0,0.0
5.002867765000019,501,341.51,94.1,6.3,-7.3,-0.76,-4.89,0.8,0.21,0.83,0.07,-98.1,-29.7,45.0,-1.85,0.68,0.0,0.0,0.8590110593001699,5.012953221405522,0.0,0.0,2.0,0.6,0.15649662120408858,0.2,1.0,-160.0,0,0,calibrating,0,0,0,0,0,0.0
5.011435037999945,502,341.52,94.0,6.4,-6.8,-0.72,-4.63,0.58,0.22,0.8,0.05,-98.4,-22.1,56.0,-1.84,0.54,0.09,0.0,0.8312039460926542,4.7214086880929935,0.0,0.0,2.0,0.6,0.18061765972337207,0.2,1.0,-160.0,0,0,calibrating,0,0,0,0,0,0.0
5.022823856999935,503,341.53,94.0,6.4,-6.4,-0.58,-4.29,0.34,0.23,0.79,0.05,-98.5,-17.0,64.0,-1.84,0.34,-0.02,0.0,0.8243178998420452,4.342361108889955,0.0,0.0,2.0,0.6,0.18375363185450155,0.2,1.0,-160.0,0,0,calibrating,0,0,0,0,0,0.0
5.031215439999983,504,341.54,94.0,6.4,-6.0,-0.46,-3.89,0.12,0.24,0.81,0.03,-98.7,-7.1,90.0,-1.83,0.06,0.16,0.0,0.8453401682163223,3.9189411835341446,0.0,0.0,2.0,0.6,0.15947673621061986,0.2,1.0,-160.0,0,0,calibrating,0,0,0,0,0,0.0
5.042837205999945,505,341.55,94.0,6.4,-5.6,-0.31,-3.45,-0.01,0.24,0.84,0.02,-98.7,0.8,59.0,-1.83,-0.03,0.25,0.0,0.873842090998139,3.4639139712181075,0.0,0.0,2.0,0.6,0.12835531716022697,0.2,1.0,-160.0,0,0,calibrating,0,0,0,0,0,0.0
5.051463813999931,506,341.56,94.0,6.3,-5.3,-0.14,-3.06,-0.08,0.24,0.89,0.03,-98.7,0.0,12.0,-1.83,0.0,0.16,0.0,0.9222797840135064,3.064245420980506,0.0,0.0,2.0,0.6,0.07831927166196251,0.2,1.0,-160.0,0,0,calibrating,0,0,0,0,0,0.0
5.0627878519999285,507,341.57,94.1,6.3,-5.0,-0.11,-2.75,-0.07,0.23,0.92,0.02,-98.7,0.1,5.0,-1.83,0.0,-0.13,0.0,0.9485251709891519,2.753089174000726,0.0,0.0,2.0,0.6,0.051032406992590595,0.2,1.0,-160.0,0,0,calibrating,0,0,0,0,0,0.0
5.071445480999955,508,341.58,94.1,6.3,-4.7,-0.04,-2.49,-0.07,0.22,0.94,0.01,-98.7,0.1,0.0,-1.83,0.0,0.06,0.0,0.9654532614269838,2.491304878974069,0.0,0.0,2.0,0.6,0.03342223022366364,0.2,1.0,-160.0,0,0,calibrating,0,0,0,0,0,0.0
5.082906130999959,509,341.59,94.1,6.2,-4.5,0.02,-2.2,-0.05,0.21,0.96,0.0,-98.7,0.0,0.0,-1.83,0.0,0.06,0.0,0.982700361249552,2.200658992211197,0.0,0.0,2.0,0.6,0.015851627793073586,0.2,1.0,-160.0,0,0,calibrating,0,0,0,0,0,0.0
5.091188640999917,510,341.6,94.1,6.2,-4.3,0.07,-1.94,-0.04,0.2,0.97,0.0,-98.7,-0.2,0.0,-1.83,0.0,0.06,0.0,0.9904039579888602,1.9416745350341287,0.0,0.0,2.0,0.6,0.007985070432690033,0.2,1.0,-160.0,0,0,calibrating,0,0,0,0,0,0.0
5.102726759999996,511,341.61,94.2,6.2,-4.1,0.16,-1.75,-0.04,0.2,0.99,0.0,-98.7,-0.1,-2.0,-1.83,0.0,0.04,0.0,1.01,1.7577542490348301,0.0,0.0,2.0,0.6,0.011378752146880777,0.2,1.0,-160.0,0,0,calibrating,0,0,0,0,0,0.0
5.111292068000012,512,341.62,94.2,6.2,-4.0,0.22,-1.59,0.0,0.19,1.0,-0.01,-98.7,-0.5,-1.0,-1.83,0.01,0.13,0.0,1.0179390944452424,1.6051479682571324,0.0,0.0,2.0,0.6,0.018931489660280798,0.2,1.0,-160.0,0,0,calibrating,0,0,0,0,0,0.0
