host_time_s,seq,device_time_s,roll,pitch,yaw,gyro_x,gyro_y,gyro_z,accel_x,accel_y,accel_z
3.0708444130000316,3,1470.78,-83.9,6.4,-84.8,0.0,0.0,0.0,0.11,-0.98,0.1
3.082653998999831,4,1470.79,-83.9,6.4,-84.8,0.0,0.0,0.0,0.11,-0.98,0.1
3.0927379119998477,5,1470.8,-83.9,6.4,-84.8,0.0,0.0,0.0,0.11,-0.98,0.1
3.102682712999922,6,1470.81,-83.9,6.4,-84.8,0.0,0.0,0.0,0.11,-0.98,0.1
3.112752010999884,7,1470.82,-83.9,6.4,-84.8,-0.03,0.0,0.01,0.11,-0.98,0.1
3.122706626999843,8,1470.83,-83.9,6.4,-84.8,-0.04,0.0,0.01,0.11,-0.98,0.1
3.1327431259996956,9,1470.84,-83.9,6.4,-84.8,-0.05,0.0,0.01,0.11,-0.98,0.1
3.1426082200000565,10,1470.85,-83.9,6.4,-84.8,-0.06,0.01,0.01,0.11,-0.98,0.1
3.1527027489996726,11,1470.86,-84.0,6.4,-84.8,-0.06,0.02,0.01,0.11,-0.98,0.1
3.1626681019997704,12,1470.87,-84.0,6.4,-84.8,-0.06,0.02,0.01,0.11,-0.98,0.1
3.172775802999695,13,1470.88,-84.0,6.4,-84.8,-0.06,0.02,0.01,0.11,-0.98,0.1
3.182677465999859,14,1470.89,-84.0,6.4,-84.8,-0.05,0.01,0.01,0.11,-0.98,0.1
3.1927648840000984,15,1470.9,-84.0,6.4,-84.8,-0.04,0.0,0.01,0.11,-0.98,0.1
3.2026293179997083,16,1470.91,-84.0,6.4,-84.8,-0.03,0.0,0.01,0.11,-0.98,0.1
3.212750200999835,17,1470.92,-84.0,6.4,-84.8,0.0,0.0,0.0,0.11,-0.98,0.1
3.2227400060000946,18,1470.93,-84.0,6.4,-84.8,0.0,0.0,0.0,0.11,-0.98,0.1
3.2327089739997064,19,1470.94,-84.0,6.4,-84.8,0.0,0.0,0.0,0.11,-0.98,0.1
3.2426467969999067,20,1470.95,-84.0,6.4,-84.8,-0.03,0.0,0.0,0.11,-0.98,0.1
3.252738575999956,21,1470.96,-84.0,6.4,-84.8,-0.05,0.0,0.01,0.11,-0.99,0.1
3.262704101000054,22,1470.97,-84.0,6.4,-84.8,-0.06,0.0,0.0,0.11,-0.98,0.1
3.272676489999867,23,1470.98,-84.0,6.4,-84.8,-0.06,0.0,0.0,0.11,-0.98,0.1
3.2827322329999333,24,1470.99,-84.0,6.4,-84.8,-0.04,0.0,0.0,0.11,-0.98,0.1
3.292713631999959,25,1471.0,-84.0,6.4,-84.8,-0.04,0.0,0.0,0.11,-0.98,0.1
3.302638850999756,26,1471.01,-84.0,6.4,-84.8,-0.03,0.0,0.0,0.11,-0.98,0.1
3.312683726999694,27,1471.02,-84.0,6.4,-84.8,0.0,0.0,0.0,0.11,-0.98,0.1
3.3226290369998424,28,1471.03,-84.0,6.4,-84.8,0.0,0.0,0.0,0.11,-0.98,0.1
3.332744511999863,29,1471.04,-84.0,6.4,-84.8,0.03,0.0,0.0,0.11,-0.98,0.1
3.342637638999804,30,1471.05,-84.0,6.4,-84.8,0.04,0.0,0.0,0.11,-0.98,0.1
3.3527130659999784,31,1471.06,-84.0,6.4,-84.8,0.03,0.0,0.0,0.11,-0.98,0.1
3.362648154999988,32,1471.07,-84.0,6.4,-84.8,0.0,0.0,0.0,0.11,-0.98,0.1
3.3726256889999604,33,1471.08,-84.0,6.4,-84.8,0.0,0.0,0.0,0.11,-0.98,0.1
3.3826600069996857,34,1471.09,-84.0,6.4,-84.8,0.0,0.0,0.0,0.11,-0.99,0.1
3.3926502290000826,35,1471.1,-84.0,6.4,-84.8,0.0,0.0,0.0,0.11,-0.99,0.1
3.4026127009997253,36,1471.11,-84.0,6.4,-84.8,0.0,0.0,0.0,0.11,-0.99,0.1
3.4128160519999255,37,1471.12,-84.0,6.4,-84.8,0.0,0.0,0.0,0.11,-0.99,0.1
3.422673098999894,38,1471.13,-84.0,6.4,-84.8,0.0,0.0,0.0,0.11,-0.99,0.1
3.432710385000064,39,1471.14,-84.0,6.4,-84.8,0.0,0.0,0.0,0.11,-0.98,0.1
3.4427432349998526,40,1471.15,-84.0,6.4,-84.8,-0.04,0.0,-0.02,0.1,-0.99,0.1
3.452712887999951,41,1471.16,-84.0,6.4,-84.8,-0.06,-0.03,-0.07,0.1,-1.0,0.1
3.462747795999803,42,1471.17,-84.0,6.4,-84.8,-0.04,-0.03,-0.13,0.1,-1.0,0.09
3.4727460569997675,43,1471.18,-84.0,6.4,-84.8,-0.04,0.0,-0.16,0.1,-0.99,0.09
3.4826890639997146,44,1471.19,-84.0,6.4,-84.8,-0.07,0.03,-0.13,0.11,-0.98,0.09
3.4926019290001022,45,1471.2,-84.0,6.4,-84.8,-0.11,0.05,-0.05,0.11,-0.99,0.1
3.502629099999922,46,1471.21,-84.0,6.4,-84.8,-0.19,0.02,0.0,0.11,-0.99,0.1
3.512765878999744,47,1471.22,-84.1,6.4,-84.8,-0.27,0.0,0.06,0.11,-1.0,0.1
3.522686922000048,48,1471.23,-84.1,6.4,-84.8,-0.34,0.02,0.09,0.1,-1.01,0.09
3.5327094119998037,49,1471.24,-84.1,6.4,-84.8,-0.39,0.03,0.11,0.1,-1.01,0.1
3.542628438000065,50,1471.25,-84.2,6.4,-84.8,-0.44,0.0,0.13,0.11,-1.01,0.11
3.5526815779999197,51,1471.26,-84.2,6.4,-84.8,-0.48,-0.09,0.16,0.11,-1.02,0.12
3.562581436000073,52,1471.27,-84.2,6.4,-84.8,-0.51,-0.18,0.13,0.12,-1.04,0.1
3.572654620999856,53,1471.28,-84.3,6.4,-84.8,-0.62,-0.16,0.05,0.12,-1.06,0.08
3.582627594999849,54,1471.29,-84.4,6.4,-84.8,-0.86,-0.15,0.0,0.12,-1.06,0.09
3.5927033799998753,55,1471.3,-84.5,6.4,-84.9,-1.08,-0.19,-0.03,0.13,-1.05,0.1
3.6026402279999274,56,1471.31,-84.6,6.4,-84.9,-1.29,-0.23,-0.03,0.13,-1.04,0.11
3.6127569459999904,57,1471.32,-84.7,6.4,-84.9,-1.46,-0.3,-0.02,0.13,-1.02,0.11
3.622661314999732,58,1471.33,-84.9,6.4,-84.9,-1.63,-0.29,-0.01,0.13,-1.01,0.11
3.6327523830000246,59,1471.34,-85.0,6.4,-85.0,-1.73,-0.26,0.0,0.13,-1.0,0.11
3.642607348999718,60,1471.35,-85.2,6.4,-85.0,-1.82,-0.19,-0.02,0.12,-1.0,0.11
3.6526513240000895,61,1471.36,-85.4,6.5,-85.0,-1.88,-0.13,-0.05,0.12,-1.0,0.11
3.663001938999969,62,1471.37,-85.5,6.5,-85.0,-1.92,-0.06,-0.08,0.11,-1.0,0.11
3.673297504999937,63,1471.38,-85.7,6.5,-85.0,-1.98,-0.01,-0.11,0.11,-1.0,0.11
3.683152974999757,64,1471.39,-85.9,6.5,-85.0,-1.96,0.07,-0.11,0.1,-0.99,0.11
3.6932576119997975,65,1471.4,-86.1,6.5,-85.0,-1.94,0.09,-0.09,0.1,-1.0,0.12
3.7032498449998457,66,1471.41,-86.2,6.5,-85.0,-1.93,0.13,-0.08,0.1,-1.0,0.12
3.713169099999959,67,1471.42,-86.4,6.5,-84.9,-2.01,0.14,-0.07,0.11,-1.01,0.13
3.7231633440001133,68,1471.43,-86.5,6.5,-84.9,-2.1,0.17,-0.06,0.11,-1.01,0.13
3.7333490239998355,69,1471.44,-86.7,6.5,-84.9,-2.27,0.18,-0.07,0.12,-1.01,0.13
3.74311375499974,70,1471.45,-86.9,6.5,-84.9,-2.39,0.14,-0.09,0.12,-1.01,0.15
3.7532364759999837,71,1471.46,-87.1,6.5,-84.9,-2.48,0.09,-0.11,0.11,-1.0,0.14
3.763478957999723,72,1471.47,-87.3,6.5,-84.8,-2.5,0.08,-0.14,0.12,-1.0,0.14
3.7732413449998603,73,1471.48,-87.5,6.6,-84.8,-2.51,0.1,-0.15,0.11,-1.0,0.15
3.7831285639999805,74,1471.49,-87.7,6.6,-84.8,-2.61,0.05,-0.11,0.11,-0.99,0.16
3.793190461999984,75,1471.5,-87.9,6.6,-84.8,-2.73,0.0,-0.07,0.11,-1.0,0.16
3.8032339490000595,76,1471.51,-88.1,6.6,-84.8,-2.82,-0.03,-0.08,0.11,-1.01,0.14
3.8131983129997025,77,1471.52,-88.3,6.6,-84.8,-2.89,-0.03,-0.09,0.12,-1.02,0.13
3.8232537929998216,78,1471.53,-88.5,6.6,-84.8,-2.98,-0.05,-0.09,0.12,-1.03,0.14
3.8334060980000686,79,1471.54,-88.8,6.6,-84.8,-3.1,-0.14,-0.04,0.12,-1.03,0.14
3.8431363439999586,80,1471.55,-89.0,6.6,-84.8,-3.23,-0.22,0.0,0.12,-1.04,0.13
3.8532318669999768,81,1471.56,-89.3,6.6,-84.8,-3.37,-0.26,0.05,0.13,-1.05,0.13
3.8632704179999564,82,1471.57,-89.6,6.6,-84.8,-3.54,-0.32,0.08,0.13,-1.07,0.14
3.873158977000003,83,1471.58,-89.9,6.6,-84.9,-3.74,-0.42,0.09,0.13,-1.08,0.16
3.883308389999911,84,1471.59,-90.3,6.6,-84.9,-3.86,-0.57,0.14,0.14,-1.1,0.15
3.8931566309997834,85,1471.6,-90.7,6.6,-85.0,-3.9,-0.52,0.16,0.13,-1.14,0.1
3.9031127369999012,86,1471.61,-91.0,6.6,-85.0,-3.94,-0.39,0.2,0.12,-1.2,0.06
3.913490728999932,87,1471.62,-91.4,6.5,-85.0,-4.06,-0.17,0.2,0.11,-1.25,0.02
3.9232720619997963,88,1471.63,-91.8,6.5,-85.0,-4.41,0.05,0.17,0.11,-1.3,-0.01
3.933152869999958,89,1471.64,-92.3,6.5,-85.0,-4.91,0.22,0.15,0.12,-1.34,-0.03
3.943240580999827,90,1471.65,-92.8,6.4,-85.0,-5.41,0.21,0.19,0.14,-1.36,-0.06
3.9533278959997915,91,1471.66,-93.3,6.4,-85.0,-5.99,0.08,0.25,0.17,-1.38,-0.1
3.9631705809997584,92,1471.67,-94.0,6.4,-85.0,-6.65,-0.09,0.25,0.19,-1.37,-0.13
3.9732697889999145,93,1471.68,-94.7,6.4,-85.0,-7.15,-0.28,0.12,0.21,-1.31,-0.14
3.9834471909998683,94,1471.69,-95.5,6.4,-85.0,-7.26,-0.47,-0.05,0.23,-1.24,-0.17
3.9930524839996906,95,1471.7,-96.2,6.5,-85.1,-7.0,-0.63,-0.25,0.24,-1.17,-0.19
4.003441936999934,96,1471.71,-96.9,6.5,-85.2,-6.54,-0.87,-0.43,0.23,-1.1,-0.22
4.013287795999986,97,1471.72,-97.5,6.6,-85.3,-5.86,-1.07,-0.5,0.2,-1.04,-0.25
4.023167917999672,98,1471.73,-98.1,6.6,-85.4,-5.0,-1.25,-0.48,0.17,-1.02,-0.3
4.033262267999817,99,1471.74,-98.5,6.6,-85.6,-4.1,-1.29,-0.42,0.15,-1.02,-0.33
4.043109480000112,100,1471.75,-98.9,6.6,-85.7,-3.21,-1.24,-0.36,0.12,-1.05,-0.34
4.0534525749999375,101,1471.76,-99.2,6.6,-85.8,-2.56,-1.16,-0.3,0.1,-1.09,-0.33
4.063111575999756,102,1471.77,-99.5,6.7,-85.9,-2.2,-1.05,-0.17,0.09,-1.12,-0.34
4.073325167999883,103,1471.78,-99.7,6.6,-86.0,-2.08,-0.85,0.0,0.1,-1.16,-0.34
4.083442189999914,104,1471.79,-100.0,6.6,-86.1,-2.29,-0.61,0.18,0.12,-1.19,-0.31
4.093009365999933,105,1471.8,-100.2,6.6,-86.2,-2.64,-0.47,0.34,0.13,-1.21,-0.29
4.103269320999971,106,1471.81,-100.6,6.5,-86.2,-2.99,-0.41,0.43,0.14,-1.21,-0.27
4.113271522000105,107,1471.82,-100.9,6.5,-86.2,-3.17,-0.42,0.45,0.14,-1.2,-0.29
4.123175638999783,108,1471.83,-101.3,6.4,-86.3,-3.2,-0.39,0.41,0.15,-1.2,-0.32
4.133266664000075,109,1471.84,-101.6,6.4,-86.3,-3.15,-0.35,0.31,0.15,-1.18,-0.31
4.143153443999836,110,1471.85,-102.0,6.4,-86.3,-3.13,-0.42,0.19,0.16,-1.16,-0.3
4.15320239599987,111,1471.86,-102.3,6.4,-86.4,-3.14,-0.52,0.09,0.17,-1.13,-0.3
4.163484143999995,112,1471.87,-102.7,6.4,-86.4,-3.09,-0.64,0.03,0.18,-1.1,-0.3
4.173297461999937,113,1471.88,-103.0,6.4,-86.5,-2.95,-0.71,0.02,0.18,-1.07,-0.31
4.183442408999781,114,1471.89,-103.3,6.4,-86.6,-2.72,-0.79,0.04,0.18,-1.04,-0.3
4.193172241999946,115,1471.9,-103.6,6.4,-86.7,-2.46,-0.9,0.11,0.17,-1.03,-0.29
4.203220702999715,116,1471.91,-103.9,6.4,-86.8,-2.2,-0.99,0.2,0.16,-1.04,-0.28
4.213276128999951,117,1471.92,-104.1,6.3,-86.9,-2.05,-1.04,0.25,0.15,-1.05,-0.28
4.223206645000118,118,1471.93,-104.3,6.3,-87.0,-2.02,-1.04,0.24,0.13,-1.05,-0.28
4.233488106000095,119,1471.94,-104.5,6.3,-87.1,-2.03,-0.98,0.2,0.11,-1.03,-0.28
4.243111880000015,120,1471.95,-104.8,6.2,-87.1,-1.96,-0.83,0.17,0.1,-1.0,-0.29
4.253237268999783,121,1471.96,-105.0,6.2,-87.2,-1.82,-0.68,0.2,0.1,-0.97,-0.29
4.263377657000092,122,1471.97,-105.2,6.1,-87.3,-1.61,-0.57,0.24,0.11,-0.95,-0.28
4.27319326099996,123,1471.98,-105.3,6.1,-87.3,-1.44,-0.47,0.3,0.13,-0.93,-0.27
4.283119121999789,124,1471.99,-105.5,6.1,-87.3,-1.26,-0.43,0.39,0.13,-0.91,-0.25
4.293108896999911,125,1472.0,-105.6,6.0,-87.4,-1.1,-0.39,0.46,0.13,-0.9,-0.23
4.303381981999792,126,1472.01,-105.7,6.0,-87.4,-0.93,-0.4,0.48,0.13,-0.89,-0.23
4.313283881999723,127,1472.02,-105.8,6.0,-87.4,-0.71,-0.36,0.45,0.12,-0.88,-0.22
4.323266058999707,128,1472.03,-105.8,5.9,-87.4,-0.38,-0.38,0.37,0.12,-0.87,-0.19
4.333484115999909,129,1472.04,-105.8,5.9,-87.5,-0.03,-0.43,0.25,0.1,-0.85,-0.19
4.343191850000039,130,1472.05,-105.7,5.9,-87.5,0.38,-0.38,0.15,0.09,-0.82,-0.21
4.353263185999822,131,1472.06,-105.7,5.9,-87.5,0.8,-0.27,0.05,0.07,-0.82,-0.22
4.363285287000053,132,1472.07,-105.6,5.9,-87.5,1.2,-0.13,-0.04,0.06,-0.8,-0.22
4.3732875549999335,133,1472.08,-105.4,5.8,-87.6,1.59,-0.04,-0.1,0.05,-0.79,-0.22
4.383454883000013,134,1472.09,-105.3,5.8,-87.6,1.95,0.0,-0.12,0.04,-0.78,-0.23
4.393067497999709,135,1472.1,-105.1,5.8,-87.6,2.33,0.03,-0.12,0.06,-0.77,-0.23
4.403319173,136,1472.11,-104.8,5.8,-87.6,2.6,-0.02,-0.05,0.08,-0.75,-0.19
4.41323872599969,137,1472.12,-104.5,5.8,-87.6,2.79,-0.4,0.04,0.09,-0.75,-0.14
4.423281140999734,138,1472.13,-104.2,5.8,-87.6,2.93,-0.97,0.13,0.1,-0.76,-0.14
4.4333437269997376,139,1472.14,-103.9,5.8,-87.8,2.93,-1.61,0.2,0.14,-0.79,-0.16
4.443262973999936,140,1472.15,-103.6,5.7,-88.0,2.47,-2.24,0.04,0.21,-0.85,-0.18
4.453187666999838,141,1472.16,-103.5,5.7,-88.2,1.52,-2.81,-0.28,0.28,-0.84,-0.16
4.463204695000059,142,1472.17,-103.4,5.7,-88.5,0.67,-3.51,-0.6,0.31,-0.78,-0.11
4.473325784999815,143,1472.18,-103.4,5.6,-88.9,0.26,-4.17,-0.85,0.3,-0.7,-0.11
4.483450472999721,144,1472.19,-103.4,5.6,-89.4,0.32,-4.69,-1.04,0.25,-0.62,-0.12
4.493068419999872,145,1472.2,-103.4,5.6,-89.9,0.78,-4.94,-1.2,0.15,-0.57,-0.15
4.5033436599997,146,1472.21,-103.4,5.7,-90.4,1.5,-4.96,-1.28,0.05,-0.56,-0.18
4.513329725999938,147,1472.22,-103.2,5.7,-90.9,2.33,-4.87,-1.3,-0.02,-0.58,-0.24
4.523119292000047,148,1472.23,-103.0,5.7,-91.4,2.84,-4.56,-1.27,-0.08,-0.63,-0.29
4.533226217999982,149,1472.24,-102.8,5.7,-91.9,2.72,-4.28,-1.19,-0.11,-0.66,-0.3
4.5432337970000845,150,1472.25,-102.6,5.7,-92.3,2.25,-3.94,-1.01,-0.15,-0.66,-0.32
4.553128805999677,151,1472.26,-102.4,5.7,-92.7,1.64,-3.42,-0.72,-0.17,-0.65,-0.32
4.563119759000074,152,1472.27,-102.3,5.7,-93.0,1.01,-2.94,-0.41,-0.18,-0.63,-0.29
4.573323188999893,153,1472.28,-102.3,5.7,-93.3,0.55,-2.48,-0.13,-0.18,-0.62,-0.26
4.583390692999728,154,1472.29,-102.3,5.6,-93.5,0.4,-2.04,0.05,-0.2,-0.61,-0.25
4.593111839999892,155,1472.3,-102.2,5.6,-93.7,0.64,-1.56,0.22,-0.21,-0.61,-0.24
4.603161726000053,156,1472.31,-102.1,5.5,-93.8,1.15,-0.97,0.34,-0.21,-0.65,-0.23
4.6132432569997945,157,1472.32,-102.0,5.5,-93.8,1.72,-0.42,0.37,-0.21,-0.72,-0.21
4.623174844999994,158,1472.33,-101.8,5.4,-93.8,2.11,0.07,0.28,-0.19,-0.8,-0.21
4.63336011399997,159,1472.34,-101.6,5.4,-93.8,2.26,0.57,0.11,-0.18,-0.88,-0.22
4.643204752999736,160,1472.35,-101.3,5.4,-93.7,2.15,1.04,-0.13,-0.16,-0.96,-0.21
4.653121492000082,161,1472.36,-101.1,5.5,-93.6,1.77,1.58,-0.4,-0.14,-1.0,-0.21
4.663465924999855,162,1472.37,-101.0,5.6,-93.4,1.36,1.87,-0.56,-0.12,-0.98,-0.17
4.6733412129997305,163,1472.38,-100.8,5.7,-93.2,1.19,2.11,-0.64,-0.12,-0.96,-0.17
4.6832509860000755,164,1472.39,-100.7,5.8,-93.0,1.21,2.47,-0.67,-0.12,-0.94,-0.17
4.693060285999763,165,1472.4,-100.5,5.9,-92.8,1.45,2.74,-0.7,-0.12,-0.92,-0.15
4.703188671999669,166,1472.41,-100.3,6.0,-92.5,1.74,3.04,-0.72,-0.13,-0.92,-0.14
4.71317548099978,167,1472.42,-100.1,6.2,-92.2,2.04,3.3,-0.76,-0.14,-0.92,-0.12
4.723419178999848,168,1472.43,-99.8,6.3,-91.9,2.48,3.55,-0.82,-0.15,-0.93,-0.11
4.733479860999978,169,1472.44,-99.5,6.5,-91.5,2.91,3.85,-0.88,-0.13,-0.93,-0.13
4.743141741999807,170,1472.45,-99.2,6.6,-91.1,3.26,4.15,-0.92,-0.11,-0.92,-0.12
4.753264386999945,171,1472.46,-98.8,6.8,-90.7,3.5,4.3,-0.87,-0.1,-0.92,-0.1
4.76343765799993,172,1472.47,-98.4,6.9,-90.3,3.56,4.36,-0.77,-0.1,-0.92,-0.11
4.773208659999909,173,1472.48,-98.0,7.0,-89.9,3.74,4.46,-0.6,-0.12,-0.91,-0.19
4.782942191000075,174,1472.49,-97.5,7.1,-89.4,4.48,4.81,-0.22,-0.08,-0.92,-0.3
4.7925562360001095,175,1472.5,-97.0,7.2,-88.9,5.04,5.16,0.25,0.0,-0.98,-0.34
4.8027625019999505,176,1472.51,-96.4,7.2,-88.4,5.06,5.16,0.97,0.14,-1.05,-0.4
4.812950546999673,177,1472.52,-95.8,7.1,-87.9,4.86,5.22,2.08,0.39,-1.13,-0.54
4.8228276340000775,178,1472.53,-95.3,6.9,-87.3,3.38,5.14,3.26,0.68,-1.25,-0.36
4.832770984000035,179,1472.54,-95.1,6.6,-86.8,-0.97,3.93,4.1,0.76,-1.25,-0.07
4.8426864289999685,180,1472.55,-95.4,6.1,-86.5,-4.36,2.53,4.48,0.53,-1.06,0.02
4.852797973999714,181,1472.56,-95.9,5.7,-86.2,-6.05,1.98,4.08,0.19,-0.93,-0.08
4.863022327999715,182,1472.57,-96.5,5.4,-85.9,-5.63,2.46,3.01,-0.05,-0.83,-0.14
4.873252883000077,183,1472.58,-96.9,5.2,-85.6,-2.84,3.59,1.86,-0.24,-0.7,-0.17
4.883416210999712,184,1472.59,-96.9,5.1,-85.2,2.22,5.06,1.03,-0.34,-0.67,-0.18
4.893173364999711,185,1472.6,-96.3,5.1,-84.6,6.69,5.8,0.65,-0.28,-0.86,-0.11
4.903179191999698,186,1472.61,-95.5,5.1,-84.0,7.29,5.4,0.38,-0.12,-1.2,-0.05
4.91324834299985,187,1472.62,-94.9,5.1,-83.5,4.08,4.21,0.24,0.1,-1.46,-0.1
4.923368637999829,188,1472.63,-94.7,5.2,-83.2,-0.65,3.47,0.16,0.28,-1.56,-0.19
4.933171948000108,189,1472.64,-95.0,5.2,-82.8,-4.75,3.82,-0.15,0.39,-1.38,-0.21
4.943265657999746,190,1472.65,-95.5,5.3,-82.4,-6.15,4.52,-0.31,0.43,-1.07,-0.19
4.953276738000113,191,1472.66,-96.1,5.3,-81.9,-5.24,5.05,-0.43,0.43,-0.86,-0.11
4.963147301999925,192,1472.67,-96.4,5.5,-81.4,-3.26,4.76,-0.61,0.39,-0.75,0.02
4.973256047999712,193,1472.68,-96.6,5.6,-81.0,-0.86,3.98,-0.75,0.31,-0.69,0.05
4.983440573999815,194,1472.69,-96.5,5.7,-80.6,0.88,3.52,-0.84,0.21,-0.76,-0.01
4.9931509949997235,195,1472.7,-96.4,5.8,-80.3,1.32,3.39,-1.02,0.14,-0.86,-0.05
5.003267160999712,196,1472.71,-96.2,6.0,-80.0,1.04,3.52,-1.07,0.1,-0.91,-0.05
5.013215123000009,197,1472.72,-96.0,6.1,-79.6,0.56,3.51,-0.99,0.11,-0.94,-0.03
5.023193299000013,198,1472.73,-95.9,6.3,-79.3,-0.02,3.46,-0.9,0.14,-0.95,-0.03
5.033513152000069,199,1472.74,-95.9,6.4,-78.9,-0.46,3.36,-0.79,0.19,-0.94,-0.03
5.043227850999756,200,1472.75,-95.9,6.5,-78.6,-0.68,3.3,-0.66,0.23,-0.91,-0.03
5.0532020089999605,201,1472.76,-96.0,6.6,-78.3,-0.61,3.15,-0.48,0.26,-0.88,0.0
5.06344537699988,202,1472.77,-96.0,6.7,-78.0,-0.39,2.82,-0.25,0.29,-0.85,0.02
5.073388732999774,203,1472.78,-96.0,6.7,-77.7,-0.05,2.35,0.02,0.3,-0.83,0.05
5.083123505000003,204,1472.79,-95.9,6.7,-77.5,0.24,1.88,0.34,0.32,-0.84,0.04
5.093292734999977,205,1472.8,-95.9,6.7,-77.4,0.23,1.47,0.6,0.32,-0.86,0.03
5.103267159000097,206,1472.81,-95.9,6.6,-77.2,0.15,0.99,0.81,0.33,-0.86,0.06
5.113220822999665,207,1472.82,-95.8,6.6,-77.1,0.18,0.38,0.98,0.33,-0.86,0.07
5.123445237999931,208,1472.83,-95.8,6.5,-77.1,0.25,-0.27,1.07,0.33,-0.86,0.06
5.133270691999769,209,1472.84,-95.8,6.3,-77.2,0.39,-0.86,1.1,0.32,-0.85,0.04
5.1431368739999925,210,1472.85,-95.7,6.2,-77.3,0.68,-1.44,1.05,0.32,-0.85,0.04
5.153322660999947,211,1472.86,-95.7,6.1,-77.5,1.19,-2.06,1.02,0.33,-0.85,0.06
5.163258682000105,212,1472.87,-95.5,6.0,-77.7,1.7,-2.61,1.04,0.34,-0.86,0.05
5.173196321999967,213,1472.88,-95.4,5.8,-78.0,1.96,-3.06,1.11,0.34,-0.88,0.04
5.183164503999706,214,1472.89,-95.2,5.7,-78.3,2.18,-3.48,1.22,0.34,-0.89,0.04
5.1933180959999845,215,1472.9,-95.0,5.5,-78.6,2.38,-3.8,1.32,0.32,-0.91,0.03
5.203113075999681,216,1472.91,-94.8,5.4,-79.0,2.63,-3.97,1.37,0.31,-0.93,0.02
5.213257535999674,217,1472.92,-94.6,5.2,-79.4,2.92,-4.11,1.39,0.28,-0.94,0.02
5.223268573000041,218,1472.93,-94.3,5.0,-79.8,3.23,-4.21,1.42,0.24,-0.95,0.01
5.2334750429999985,219,1472.94,-94.0,4.8,-80.2,3.52,-4.32,1.4,0.21,-0.98,0.02
5.243125950999911,220,1472.95,-93.7,4.7,-80.7,3.63,-4.46,1.33,0.19,-0.99,0.02
5.253173586999765,221,1472.96,-93.3,4.5,-81.1,3.61,-4.63,1.28,0.19,-0.98,0.01
5.263462982999954,222,1472.97,-93.0,4.4,-81.6,3.55,-4.8,1.24,0.21,-0.97,0.0
5.2732084790000044,223,1472.98,-92.7,4.2,-82.1,3.64,-5.07,1.09,0.24,-0.99,-0.01
5.283433023999805,224,1472.99,-92.3,4.1,-82.6,4.01,-5.36,0.82,0.24,-1.01,-0.05
5.293228178999925,225,1473.0,-91.9,4.0,-83.1,4.73,-5.75,0.57,0.22,-1.06,-0.07
5.303161958999681,226,1473.01,-91.5,4.0,-83.7,5.5,-6.22,0.31,0.19,-1.15,-0.1
5.313500779999686,227,1473.02,-91.0,4.0,-84.4,5.81,-6.94,-0.15,0.13,-1.33,-0.14
5.323285328000111,228,1473.03,-90.5,4.0,-85.1,4.9,-7.38,-0.65,0.0,-1.45,-0.23
5.333209038999939,229,1473.04,-90.2,4.1,-85.9,2.8,-7.73,-1.04,-0.15,-1.51,-0.27
5.343455280999933,230,1473.05,-90.1,4.2,-86.7,0.09,-7.7,-1.22,-0.25,-1.53,-0.32
5.353329160999692,231,1473.06,-90.3,4.3,-87.4,-2.8,-7.2,-1.45,-0.21,-1.51,-0.29
5.363161734999721,232,1473.07,-90.8,4.5,-88.1,-5.51,-6.5,-1.83,-0.15,-1.29,-0.21
5.3732700729997305,233,1473.08,-91.5,4.7,-88.7,-7.12,-5.65,-1.92,-0.04,-0.99,-0.17
5.383443672999874,234,1473.09,-92.3,4.8,-89.3,-7.68,-4.83,-1.63,0.05,-0.72,-0.1
5.393218962999981,235,1473.1,-93.1,4.9,-89.7,-6.85,-4.21,-1.04,0.08,-0.54,-0.08
5.403277235999667,236,1473.11,-93.7,5.0,-90.1,-4.73,-3.58,-0.38,0.07,-0.49,-0.02
5.413252180999734,237,1473.12,-94.0,5.0,-90.4,-1.28,-3.19,0.25,0.0,-0.57,0.02
5.423124904999895,238,1473.13,-94.0,4.9,-90.7,2.25,-2.69,0.72,-0.09,-0.82,-0.03
5.433230068999819,239,1473.14,-93.6,4.8,-91.0,4.21,-2.33,0.87,-0.15,-1.1,-0.05
5.443140893999953,240,1473.15,-93.3,4.7,-91.2,3.62,-2.09,0.78,-0.19,-1.35,-0.05
5.453394486999969,241,1473.16,-93.0,4.6,-91.4,1.04,-2.11,0.86,-0.22,-1.4,0.01
5.463169749999906,242,1473.17,-93.1,4.5,-91.6,-1.7,-2.34,1.16,-0.21,-1.3,0.07
5.473357948999819,243,1473.18,-93.4,4.4,-91.8,-3.52,-2.36,1.44,-0.17,-1.1,0.02
5.483509217000119,244,1473.19,-93.8,4.2,-92.1,-3.47,-2.05,1.61,-0.12,-0.93,0.0
5.49331590499969,245,1473.2,-94.1,4.0,-92.2,-2.09,-1.72,1.72,-0.08,-0.83,0.01
5.503272010999808,246,1473.21,-94.2,3.8,-92.4,-0.26,-1.52,1.69,-0.05,-0.83,0.02
5.513347851999697,247,1473.22,-94.2,3.7,-92.5,0.96,-1.39,1.52,-0.04,-0.87,-0.03
5.523142377000113,248,1473.23,-94.1,3.5,-92.6,1.28,-1.16,1.32,-0.04,-0.92,-0.07
5.533300138999948,249,1473.24,-94.0,3.3,-92.7,0.84,-0.8,1.12,-0.05,-0.95,-0.1
5.543290601000081,250,1473.25,-93.9,3.2,-92.8,0.35,-0.3,0.9,-0.07,-0.96,-0.11
5.553134085999773,251,1473.26,-93.9,3.1,-92.8,0.25,0.22,0.65,-0.1,-0.93,-0.11
5.563379003999671,252,1473.27,-93.8,3.1,-92.7,0.55,0.66,0.41,-0.12,-0.9,-0.1
5.573264130000098,253,1473.28,-93.7,3.0,-92.6,1.01,1.04,0.19,-0.15,-0.87,-0.09
5.58338009199997,254,1473.29,-93.6,3.0,-92.5,1.51,1.43,-0.01,-0.18,-0.86,-0.09
5.593267277999985,255,1473.3,-93.4,3.1,-92.3,1.92,1.84,-0.21,-0.2,-0.86,-0.1
5.603256803000022,256,1473.31,-93.2,3.1,-92.1,2.27,2.34,-0.39,-0.22,-0.86,-0.11
5.613101486999767,257,1473.32,-93.0,3.2,-91.9,2.53,2.96,-0.54,-0.23,-0.87,-0.11
5.623237879000044,258,1473.33,-92.7,3.2,-91.5,2.72,3.63,-0.64,-0.23,-0.87,-0.1
5.63350998299984,259,1473.34,-92.4,3.3,-91.1,2.95,4.32,-0.65,-0.22,-0.87,-0.08
5.643155124999794,260,1473.35,-92.0,3.4,-90.7,3.14,4.8,-0.61,-0.21,-0.88,-0.06
5.653308964999724,261,1473.36,-91.7,3.5,-90.2,3.24,5.17,-0.6,-0.2,-0.9,-0.05
5.663434916999904,262,1473.37,-91.3,3.6,-89.6,3.26,5.53,-0.64,-0.2,-0.93,-0.05
5.673340829999688,263,1473.38,-91.0,3.6,-89.1,3.32,5.86,-0.76,-0.21,-0.95,-0.05
5.683193457000016,264,1473.39,-90.6,3.7,-88.5,3.36,6.22,-0.99,-0.21,-0.99,-0.07
5.693216399999983,265,1473.4,-90.2,3.9,-87.8,3.29,6.63,-1.35,-0.22,-1.01,-0.08
5.703202761999819,266,1473.41,-89.8,4.0,-87.1,3.18,7.07,-1.65,-0.24,-0.98,-0.15
5.713332220999746,267,1473.42,-89.4,4.2,-86.4,3.53,7.78,-1.76,-0.23,-1.02,-0.23
5.7232841330001065,268,1473.43,-89.0,4.4,-85.5,3.69,8.58,-1.82,-0.2,-1.1,-0.3
5.73326099399992,269,1473.44,-88.6,4.5,-84.6,3.77,9.53,-1.63,-0.14,-1.17,-0.34
5.743226478999986,270,1473.45,-88.1,4.6,-83.6,2.86,10.03,-1.03,0.0,-1.24,-0.29
5.753348483000082,271,1473.46,-87.9,4.6,-82.6,0.89,10.34,-0.03,0.19,-1.32,-0.32
5.763307832999999,272,1473.47,-87.8,4.5,-81.6,-1.52,10.48,1.35,0.5,-1.38,-0.21
5.77331487299989,273,1473.48,-88.1,4.3,-80.5,-4.67,10.05,2.56,0.7,-1.45,-0.07
5.783446932000061,274,1473.49,-88.7,3.9,-79.6,-8.85,8.81,3.71,0.76,-1.3,0.17
5.793229130999862,275,1473.5,-89.8,3.5,-78.9,-12.16,6.55,4.85,0.59,-1.1,0.25
5.803447547999895,276,1473.51,-91.0,3.0,-78.3,-13.08,4.87,4.92,0.39,-0.99,0.21
5.8133918919997996,277,1473.52,-92.2,2.6,-77.9,-11.71,3.34,3.93,0.25,-0.9,0.16
5.823262029000034,278,1473.53,-93.2,2.3,-77.6,-8.12,2.54,2.19,0.15,-0.83,0.08
5.833246550999775,279,1473.54,-93.7,2.2,-77.3,-2.46,2.4,0.23,0.14,-0.84,0.08
5.843266318999667,280,1473.55,-93.6,2.3,-77.1,2.96,2.07,-1.32,0.17,-1.01,0.1
5.853346504000001,281,1473.56,-93.2,2.5,-77.0,5.33,1.41,-2.45,0.19,-1.3,0.15
5.863461339999958,282,1473.57,-92.7,2.7,-76.9,4.65,0.54,-3.02,0.19,-1.45,0.06
5.873292433999723,283,1473.58,-92.4,3.1,-76.9,1.19,0.37,-2.92,0.18,-1.44,-0.07
5.883204507999835,284,1473.59,-92.5,3.4,-76.8,-3.1,0.89,-2.61,0.18,-1.31,-0.04
5.893218910000087,285,1473.6,-92.9,3.7,-76.7,-5.6,1.41,-2.4,0.16,-1.06,0.01
5.903190701999847,286,1473.61,-93.5,3.9,-76.5,-5.9,1.96,-2.14,0.14,-0.85,0.06
5.913557772999866,287,1473.62,-94.0,4.1,-76.3,-4.48,2.23,-1.91,0.15,-0.76,0.12
5.923202578999735,288,1473.63,-94.3,4.3,-76.1,-2.36,2.21,-1.89,0.16,-0.77,0.12
5.933526956999685,289,1473.64,-94.5,4.6,-75.9,-1.08,2.0,-1.97,0.17,-0.83,0.06
5.943213576999824,290,1473.65,-94.6,4.8,-75.8,-1.12,1.7,-2.03,0.21,-0.89,0.04
5.953218560000096,291,1473.66,-94.7,5.0,-75.6,-1.79,1.13,-2.02,0.27,-0.9,0.1
5.9632587589999275,292,1473.67,-94.9,5.2,-75.6,-2.05,0.29,-1.94,0.32,-0.87,0.13
5.9732979649998015,293,1473.68,-95.1,5.4,-75.6,-1.77,-0.46,-1.79,0.34,-0.81,0.1
5.9834299079998345,294,1473.69,-95.2,5.5,-75.7,-1.19,-0.94,-1.58,0.36,-0.76,0.09
5.99322272299969,295,1473.7,-95.3,5.7,-75.8,-0.42,-1.6,-1.39,0.4,-0.75,0.16
6.003209709999737,296,1473.71,-95.4,5.8,-76.1,0.5,-2.43,-1.2,0.39,-0.75,0.16
6.013285979000102,297,1473.72,-95.3,5.9,-76.4,1.33,-3.04,-0.92,0.35,-0.75,0.11
6.023186043999885,298,1473.73,-95.2,5.9,-76.7,1.82,-3.52,-0.6,0.33,-0.8,0.11
6.033364512999924,299,1473.74,-95.0,5.9,-77.1,1.94,-3.98,-0.34,0.29,-0.84,0.12
6.04319534599972,300,1473.75,-94.9,5.9,-77.5,1.85,-4.38,-0.06,0.25,-0.85,0.09
6.053210778999983,301,1473.76,-94.7,5.8,-77.9,1.59,-4.55,0.24,0.22,-0.85,0.06
6.063448099999732,302,1473.77,-94.6,5.8,-78.4,1.25,-4.61,0.54,0.2,-0.84,0.06
6.073322659000041,303,1473.78,-94.6,5.7,-78.9,1.12,-4.65,0.86,0.19,-0.81,0.05
6.0833982449998985,304,1473.79,-94.5,5.5,-79.3,1.23,-4.67,1.16,0.2,-0.8,0.04
6.093517617000089,305,1473.8,-94.4,5.4,-79.8,1.48,-4.77,1.34,0.24,-0.8,0.04
6.1032922589997725,306,1473.81,-94.3,5.2,-80.3,1.99,-4.98,1.52,0.27,-0.81,0.05
6.113218482999855,307,1473.82,-94.1,5.0,-80.8,2.58,-5.4,1.62,0.29,-0.85,0.07
6.123457930999848,308,1473.83,-93.9,4.8,-81.3,3.04,-5.94,1.62,0.29,-0.88,0.08
6.133389880999857,309,1473.84,-93.6,4.6,-81.9,3.47,-6.55,1.61,0.3,-0.9,0.09
6.1432427310001,310,1473.85,-93.3,4.4,-82.6,3.78,-7.16,1.53,0.33,-0.93,0.05
6.153298493999955,311,1473.86,-92.9,4.2,-83.4,4.13,-7.67,1.29,0.36,-0.99,0.0
6.163243115000114,312,1473.87,-92.5,4.0,-84.2,4.62,-8.14,0.84,0.32,-1.08,-0.11
6.173217662999832,313,1473.88,-92.1,4.0,-85.0,5.2,-8.63,0.11,0.23,-1.26,-0.23
6.183458608999899,314,1473.89,-91.6,4.0,-85.9,5.29,-9.16,-0.87,0.05,-1.4,-0.28
6.193241381000007,315,1473.9,-91.2,4.1,-86.8,4.52,-9.7,-1.89,-0.1,-1.52,-0.35
6.2031194870000945,316,1473.91,-90.9,4.3,-87.8,2.57,-9.82,-3.31,-0.27,-1.68,-0.5
6.213527062999674,317,1473.92,-90.9,4.7,-88.8,-0.8,-9.21,-4.64,-0.53,-1.56,-0.51
6.223284356000022,318,1473.93,-91.2,5.2,-89.7,-3.16,-7.82,-4.86,-0.59,-1.17,-0.39
6.23331736199998,319,1473.94,-91.7,5.6,-90.4,-4.17,-6.08,-4.3,-0.49,-1.05,-0.33
6.243228031999934,320,1473.95,-92.2,6.0,-90.9,-5.05,-4.23,-3.45,-0.39,-0.85,-0.32
6.253276429999914,321,1473.96,-92.7,6.3,-91.2,-3.66,-1.99,-1.98,-0.3,-0.65,-0.23
6.263195971999721,322,1473.97,-92.9,6.4,-91.3,-0.22,-0.21,-0.24,-0.11,-0.71,-0.06
6.273290287999771,323,1473.98,-92.7,6.3,-91.3,2.33,0.29,0.67,0.01,-0.91,-0.01
6.283430290000069,324,1473.99,-92.4,6.2,-91.3,3.7,0.4,1.19,0.1,-1.09,0.0
6.293190653999773,325,1474.0,-92.0,6.1,-91.2,3.3,0.1,1.46,0.19,-1.29,0.02
6.303145996999774,326,1474.01,-91.7,5.9,-91.2,1.47,-0.37,1.49,0.25,-1.38,0.07
6.313557464000041,327,1474.02,-91.7,5.8,-91.3,-0.68,-1.01,1.44,0.23,-1.28,0.11
6.323287359000005,328,1474.03,-91.9,5.6,-91.4,-1.94,-1.66,1.52,0.16,-1.1,0.17
6.333175683999798,329,1474.04,-92.1,5.5,-91.6,-2.17,-2.57,1.51,0.06,-0.98,0.19
6.343337462999898,330,1474.05,-92.3,5.3,-91.9,-1.73,-3.31,1.42,-0.03,-0.89,0.14
6.353251950999947,331,1474.06,-92.5,5.2,-92.3,-1.28,-3.73,1.34,-0.12,-0.82,0.04
6.363145979999899,332,1474.07,-92.7,5.0,-92.7,-0.91,-3.58,1.29,-0.2,-0.83,-0.05
6.3732592829996975,333,1474.08,-92.8,4.9,-93.0,-0.37,-2.86,1.28,-0.24,-0.86,-0.1
6.383419376999882,334,1474.09,-92.8,4.7,-93.2,0.18,-2.06,1.32,-0.24,-0.91,-0.09
6.393156485999953,335,1474.1,-92.8,4.6,-93.4,0.09,-1.3,1.33,-0.23,-0.97,-0.09
6.40320609399987,336,1474.11,-92.8,4.4,-93.4,-0.52,-0.61,1.38,-0.21,-0.96,-0.07
6.413412091999817,337,1474.12,-92.9,4.3,-93.5,-0.99,0.0,1.51,-0.19,-0.94,-0.06
6.4231544340000255,338,1474.13,-93.0,4.1,-93.4,-1.13,0.58,1.53,-0.17,-0.94,-0.06
6.433321407999756,339,1474.14,-93.1,4.0,-93.3,-0.88,1.12,1.4,-0.16,-0.91,-0.05
6.443215105000036,340,1474.15,-93.1,3.9,-93.2,-0.26,1.57,1.22,-0.14,-0.89,-0.03
6.45313003199999,341,1474.16,-93.1,3.8,-93.0,0.36,1.86,1.01,-0.12,-0.89,0.0
6.463461414999983,342,1474.17,-93.0,3.7,-92.8,0.77,2.03,0.77,-0.08,-0.91,0.01
6.473343105999902,343,1474.18,-92.9,3.7,-92.6,0.99,2.09,0.49,-0.05,-0.94,0.03
6.483131617999788,344,1474.19,-92.8,3.6,-92.4,1.08,2.14,0.19,-0.02,-0.96,0.04
6.493218899000112,345,1474.2,-92.7,3.6,-92.2,1.1,2.13,-0.08,-0.01,-0.96,0.05
6.503194474999873,346,1474.21,-92.6,3.7,-91.9,1.26,2.1,-0.28,-0.01,-0.95,0.05
6.513190915999985,347,1474.22,-92.4,3.7,-91.7,1.54,2.04,-0.41,-0.02,-0.94,0.05
6.5232008819998555,348,1474.23,-92.2,3.8,-91.5,1.72,1.97,-0.5,-0.06,-0.94,0.04
6.533222733000002,349,1474.24,-92.0,3.8,-91.3,1.78,2.01,-0.6,-0.08,-0.96,0.02
6.543711929999972,350,1474.25,-91.8,3.9,-91.1,1.67,2.1,-0.69,-0.11,-0.96,0.0
6.553211604999888,351,1474.26,-91.7,4.0,-90.9,1.69,2.26,-0.75,-0.15,-0.96,0.0
6.5633486669999,352,1474.27,-91.5,4.1,-90.7,1.8,2.41,-0.79,-0.16,-0.98,-0.01
6.573243423999884,353,1474.28,-91.3,4.2,-90.4,1.77,2.59,-0.87,-0.17,-1.0,-0.04
6.583126636000088,354,1474.29,-91.1,4.3,-90.2,1.68,2.84,-0.94,-0.18,-1.0,-0.09
6.593236854999759,355,1474.3,-90.9,4.4,-89.9,1.84,3.28,-0.92,-0.18,-1.02,-0.19
6.603237298999829,356,1474.31,-90.7,4.4,-89.5,2.13,3.76,-0.87,-0.12,-1.07,-0.29
6.613288080000075,357,1474.32,-90.4,4.5,-89.1,2.45,4.46,-0.62,-0.04,-1.09,-0.38
6.623252984999908,358,1474.33,-90.1,4.6,-88.6,2.1,5.05,-0.23,0.06,-1.17,-0.41
6.633386182999857,359,1474.34,-89.9,4.6,-88.1,0.96,5.42,0.43,0.2,-1.16,-0.47
6.643136676999802,360,1474.35,-89.8,4.5,-87.5,-0.13,6.13,1.6,0.44,-1.12,-0.51
6.653265786999782,361,1474.36,-89.9,4.2,-86.9,-1.58,6.43,3.02,0.62,-1.13,-0.31
6.6634570520000125,362,1474.37,-90.2,3.9,-86.3,-4.88,5.14,4.14,0.6,-1.08,0.0
6.67325222799991,363,1474.38,-90.8,3.4,-85.9,-7.92,3.33,5.14,0.42,-1.0,0.06
6.683262975999696,364,1474.39,-91.7,2.9,-85.6,-10.31,1.35,5.1,0.27,-0.96,0.16
6.693282315000033,365,1474.4,-92.7,2.4,-85.6,-9.57,-0.16,4.03,0.11,-0.9,0.11
6.703189170999849,366,1474.41,-93.5,2.1,-85.6,-6.22,-0.36,2.08,0.0,-0.92,-0.1
6.713278808999803,367,1474.42,-93.9,2.0,-85.6,-1.2,0.62,0.06,-0.05,-0.92,-0.17
6.723279517999799,368,1474.43,-93.7,2.1,-85.5,3.59,1.26,-1.45,-0.02,-1.01,-0.02
6.733213180999883,369,1474.44,-93.2,2.3,-85.4,5.1,0.87,-2.35,0.0,-1.23,0.17
6.743426385000021,370,1474.45,-92.8,2.5,-85.4,4.25,-0.16,-2.68,0.0,-1.35,0.04
6.753274952000083,371,1474.46,-92.5,2.8,-85.4,1.87,0.0,-2.34,0.02,-1.39,-0.19
6.763173268999708,372,1474.47,-92.5,3.0,-85.3,-1.36,1.08,-1.99,0.08,-1.38,-0.18
6.773289676999866,373,1474.48,-92.8,3.2,-85.2,-3.48,1.91,-1.83,0.14,-1.15,-0.03
6.783246574999794,374,1474.49,-93.1,3.4,-85.0,-3.77,2.54,-1.65,0.15,-0.96,0.02
6.793185227999857,375,1474.5,-93.5,3.6,-84.7,-3.01,2.83,-1.5,0.17,-0.88,0.07
6.80299841499982,376,1474.51,-93.7,3.7,-84.4,-1.74,2.98,-1.53,0.19,-0.87,0.07
6.8130224530000305,377,1474.52,-93.8,3.9,-84.1,-0.49,2.98,-1.65,0.21,-0.91,0.07
6.822668942999826,378,1474.53,-93.8,4.1,-83.8,-0.12,2.89,-1.83,0.22,-0.98,0.05
6.833133553999687,379,1474.54,-93.8,4.3,-83.6,-0.61,2.66,-2.03,0.24,-1.0,0.06
6.843109178999839,380,1474.55,-93.8,4.6,-83.4,-1.14,2.28,-2.15,0.25,-0.95,0.08
6.8532232399998065,381,1474.56,-94.0,4.8,-83.2,-1.16,1.81,-2.11,0.26,-0.86,0.09
6.863210021999748,382,1474.57,-94.0,5.0,-83.0,-0.55,1.33,-1.98,0.26,-0.79,0.09
6.8732589749997715,383,1474.58,-94.0,5.2,-82.9,0.44,0.83,-1.79,0.25,-0.77,0.09
6.883247469999787,384,1474.59,-93.9,5.4,-82.9,1.34,0.39,-1.57,0.25,-0.76,0.07
6.893186472999787,385,1474.6,-93.7,5.5,-82.9,1.9,0.06,-1.26,0.25,-0.78,0.05
6.903225846999703,386,1474.61,-93.5,5.6,-82.9,2.05,-0.19,-0.88,0.25,-0.8,0.05
6.913321908999933,387,1474.62,-93.3,5.7,-82.9,1.97,-0.39,-0.51,0.26,-0.82,0.06
6.923190086999966,388,1474.63,-93.2,5.7,-83.0,1.82,-0.52,-0.13,0.26,-0.83,0.07
6.933517876999758,389,1474.64,-93.0,5.7,-83.0,1.65,-0.7,0.22,0.27,-0.83,0.08
6.943226977999984,390,1474.65,-92.8,5.6,-83.1,1.48,-0.87,0.6,0.26,-0.83,0.08
6.9532949459999145,391,1474.66,-92.7,5.6,-83.2,1.39,-1.07,1.0,0.25,-0.83,0.08
6.963459197999782,392,1474.67,-92.6,5.4,-83.3,1.27,-1.25,1.34,0.25,-0.84,0.06
6.973330450000049,393,1474.68,-92.5,5.3,-83.4,1.24,-1.37,1.63,0.24,-0.84,0.05
6.983182242000112,394,1474.69,-92.4,5.1,-83.6,1.35,-1.51,1.83,0.23,-0.85,0.05
6.993249651000042,395,1474.7,-92.2,4.9,-83.7,1.64,-1.7,1.94,0.22,-0.87,0.06
7.003294577999895,396,1474.71,-92.1,4.7,-83.9,2.08,-1.94,2.0,0.21,-0.87,0.05
7.01321017600003,397,1474.72,-91.8,4.5,-84.1,2.53,-2.19,2.06,0.2,-0.89,0.05
7.023043676999805,398,1474.73,-91.6,4.3,-84.3,2.84,-2.42,2.1,0.2,-0.9,0.04
7.03350490999992,399,1474.74,-91.3,4.0,-84.6,3.06,-2.6,2.18,0.21,-0.91,0.03
7.043110312999943,400,1474.75,-91.0,3.8,-84.9,3.24,-2.7,2.22,0.22,-0.94,0.03
7.053296700999908,401,1474.76,-90.7,3.6,-85.1,3.39,-2.78,2.22,0.23,-0.94,0.03
7.063431990000026,402,1474.77,-90.4,3.4,-85.4,3.52,-2.94,2.25,0.23,-0.93,0.05
7.073215081999933,403,1474.78,-90.0,3.1,-85.7,3.62,-3.02,2.22,0.25,-0.96,0.0
7.08337503499979,404,1474.79,-89.7,2.9,-86.0,3.97,-3.05,2.0,0.25,-1.03,-0.06
7.093263967999974,405,1474.8,-89.2,2.8,-86.3,4.8,-3.03,1.61,0.22,-1.14,-0.11
7.103230654000072,406,1474.81,-88.7,2.6,-86.6,5.78,-3.08,0.97,0.16,-1.32,-0.15
7.113282947999778,407,1474.82,-88.1,2.6,-86.9,5.93,-3.07,0.26,0.06,-1.42,-0.18
7.123257261999697,408,1474.83,-87.6,2.6,-87.2,4.92,-3.02,-0.35,-0.04,-1.56,-0.26
7.133372480999697,409,1474.84,-87.2,2.7,-87.5,2.44,-2.89,-1.04,-0.18,-1.66,-0.31
7.143180474000019,410,1474.85,-87.2,2.8,-87.8,-0.58,-3.16,-1.67,-0.37,-1.62,-0.23
7.15333955899996,411,1474.86,-87.4,3.0,-88.2,-3.52,-3.48,-1.88,-0.49,-1.36,-0.16
7.163439631000074,412,1474.87,-87.9,3.2,-88.5,-5.87,-3.76,-1.9,-0.35,-1.17,-0.1
7.173170880999805,413,1474.88,-88.6,3.5,-88.9,-7.69,-3.69,-2.17,-0.16,-0.99,-0.17
7.183434166000097,414,1474.89,-89.5,3.7,-89.2,-8.06,-2.86,-2.26,0.04,-0.7,-0.2
7.193280310999853,415,1474.9,-90.2,3.9,-89.5,-6.8,-2.1,-1.97,0.19,-0.52,-0.09
7.203232011999717,416,1474.91,-90.8,4.1,-89.6,-3.7,-1.79,-1.48,0.3,-0.51,0.05
7.21351916499998,417,1474.92,-90.9,4.2,-89.8,0.96,-2.02,-0.87,0.36,-0.67,0.14
7.223263224999755,418,1474.93,-90.6,4.2,-90.1,4.01,-2.33,-0.5,0.31,-1.02,0.09
7.2333147989998,419,1474.94,-90.2,4.3,-90.3,4.36,-2.69,-0.3,0.22,-1.31,0.04
7.243183731000045,420,1474.95,-89.9,4.3,-90.6,2.52,-2.8,-0.09,0.07,-1.43,0.03
7.25321355899996,421,1474.96,-89.8,4.3,-90.9,-0.14,-2.81,0.44,-0.06,-1.4,0.09
7.2632111449997865,422,1474.97,-89.9,4.2,-91.2,-2.61,-2.89,0.95,-0.17,-1.28,0.13
7.273316390999753,423,1474.98,-90.3,4.1,-91.5,-3.93,-3.13,1.23,-0.21,-1.1,0.12
7.2834418509996794,424,1474.99,-90.7,4.0,-91.8,-3.95,-3.26,1.42,-0.22,-0.93,0.11
7.293155458000001,425,1475.0,-91.1,3.8,-92.1,-3.2,-3.33,1.55,-0.2,-0.82,0.09
7.303111233999971,426,1475.01,-91.4,3.6,-92.4,-1.88,-3.12,1.62,-0.18,-0.8,0.02
7.31350163199977,427,1475.02,-91.5,3.5,-92.7,-0.38,-2.52,1.62,-0.17,-0.84,-0.04
7.323154088999672,428,1475.03,-91.5,3.3,-92.9,0.46,-1.84,1.53,-0.15,-0.93,-0.08
7.333470490999844,429,1475.04,-91.5,3.2,-93.1,0.4,-1.22,1.44,-0.13,-0.99,-0.08
7.343224103000011,430,1475.05,-91.5,3.0,-93.2,-0.29,-0.71,1.43,-0.13,-0.98,-0.06
7.353524626999842,431,1475.06,-91.5,2.9,-93.2,-0.9,-0.2,1.48,-0.13,-0.96,-0.05
7.363436919999913,432,1475.07,-91.7,2.7,-93.2,-1.2,0.34,1.49,-0.13,-0.94,-0.05
7.3733574269999735,433,1475.08,-91.8,2.6,-93.1,-1.16,0.94,1.36,-0.14,-0.92,-0.04
7.383301922000101,434,1475.09,-91.9,2.4,-93.0,-0.96,1.47,1.19,-0.15,-0.91,-0.04
7.393190189000052,435,1475.1,-91.9,2.3,-92.8,-0.74,1.93,0.98,-0.15,-0.92,-0.02
7.403197450999869,436,1475.11,-92.0,2.3,-92.6,-0.66,2.28,0.71,-0.14,-0.93,-0.01
7.41325922399983,437,1475.12,-92.1,2.2,-92.3,-0.71,2.54,0.39,-0.13,-0.94,0.0
7.423420463999719,438,1475.13,-92.1,2.2,-92.1,-0.81,2.72,0.04,-0.12,-0.94,0.0
7.4332831309998255,439,1475.14,-92.2,2.2,-91.8,-0.86,2.91,-0.3,-0.12,-0.93,0.0
7.443114549999791,440,1475.15,-92.3,2.3,-91.5,-0.83,3.11,-0.64,-0.12,-0.91,0.0
7.453222321999874,441,1475.16,-92.3,2.4,-91.2,-0.68,3.34,-0.91,-0.12,-0.89,-0.01
7.463424489999852,442,1475.17,-92.4,2.5,-90.8,-0.35,3.58,-1.08,-0.11,-0.87,-0.03
7.473396932000014,443,1475.18,-92.4,2.6,-90.5,0.07,3.81,-1.16,-0.09,-0.87,-0.03
7.483405232999758,444,1475.19,-92.3,2.8,-90.1,0.57,3.99,-1.15,-0.08,-0.87,-0.01
7.493219193999721,445,1475.2,-92.2,2.9,-89.7,1.05,4.1,-1.05,-0.08,-0.88,0.0
7.503304128999844,446,1475.21,-92.1,3.0,-89.3,1.47,4.21,-0.94,-0.07,-0.91,0.01
7.513225371999852,447,1475.22,-91.9,3.1,-88.8,1.79,4.29,-0.82,-0.05,-0.94,0.03
7.523474413999793,448,1475.23,-91.7,3.2,-88.4,1.94,4.29,-0.75,-0.03,-0.97,0.03
7.533337629000016,449,1475.24,-91.4,3.3,-88.0,2.0,4.25,-0.75,-0.03,-0.99,0.03
7.543153289999736,450,1475.25,-91.2,3.4,-87.6,2.06,4.21,-0.82,-0.04,-0.99,0.02
7.553282042999854,451,1475.26,-91.0,3.4,-87.1,2.16,4.17,-1.0,-0.05,-1.0,-0.02
7.563453192999987,452,1475.27,-90.7,3.5,-86.7,2.53,4.39,-1.16,-0.06,-1.01,-0.08
7.573238184999809,453,1475.28,-90.4,3.7,-86.3,2.73,4.52,-1.31,-0.07,-1.03,-0.13
7.583218287999898,454,1475.29,-90.1,3.8,-85.8,2.91,4.78,-1.31,-0.06,-1.08,-0.19
7.593322502999854,455,1475.3,-89.8,3.9,-85.3,2.97,4.94,-1.16,0.01,-1.12,-0.21
7.603160004000074,456,1475.31,-89.5,4.0,-84.8,2.57,4.9,-0.77,0.09,-1.13,-0.26
7.613287696000043,457,1475.32,-89.2,4.0,-84.3,1.99,4.85,0.02,0.19,-1.14,-0.3
7.623271951999868,458,1475.33,-89.0,4.0,-83.8,1.2,4.71,0.83,0.33,-1.23,-0.29
7.633276485999886,459,1475.34,-88.9,3.9,-83.4,-0.22,4.61,1.53,0.4,-1.24,-0.26
7.6431474819996765,460,1475.35,-89.0,3.7,-82.9,-2.1,4.19,2.15,0.38,-1.2,-0.15
7.653239740000117,461,1475.36,-89.3,3.4,-82.6,-3.71,3.51,2.65,0.26,-1.12,-0.05
7.663464937999834,462,1475.37,-89.7,3.2,-82.3,-4.56,2.74,2.69,0.09,-1.07,-0.03
7.673285497000052,463,1475.38,-90.2,2.9,-82.0,-4.92,2.49,2.2,-0.07,-1.0,-0.1
7.683449512999687,464,1475.39,-90.7,2.7,-81.7,-4.84,2.75,1.36,-0.15,-0.92,-0.12
7.693313325999952,465,1475.4,-91.1,2.7,-81.4,-4.03,3.46,0.19,-0.14,-0.86,-0.07
7.703023538999787,466,1475.41,-91.4,2.7,-81.0,-2.3,3.86,-0.65,-0.06,-0.8,0.05
7.713501475999692,467,1475.42,-91.5,2.8,-80.7,-0.31,3.65,-1.01,0.02,-0.87,0.13
7.72325971600003,468,1475.43,-91.5,2.9,-80.3,0.65,3.25,-1.1,0.13,-1.03,0.1
7.733128298999873,469,1475.44,-91.4,3.0,-80.0,0.73,2.94,-1.09,0.23,-1.2,0.01
7.743462921999708,470,1475.45,-91.3,3.2,-79.7,-0.11,2.93,-1.1,0.29,-1.33,-0.03
7.753185002999999,471,1475.46,-91.4,3.3,-79.4,-1.66,3.08,-1.19,0.3,-1.34,0.0
7.763157424999918,472,1475.47,-91.6,3.4,-79.1,-3.03,3.28,-1.25,0.27,-1.16,0.04
7.773354647999895,473,1475.48,-91.9,3.5,-78.8,-3.39,3.43,-1.23,0.21,-1.01,0.06
7.783396817999801,474,1475.49,-92.2,3.7,-78.4,-2.74,3.4,-1.27,0.17,-0.92,0.09
7.793203299999732,475,1475.5,-92.4,3.8,-78.1,-1.42,3.22,-1.34,0.17,-0.89,0.11
7.803298901999824,476,1475.51,-92.5,4.0,-77.8,-0.35,2.86,-1.43,0.19,-0.92,0.1
7.8132498579998355,477,1475.52,-92.5,4.1,-77.6,-0.18,2.43,-1.55,0.21,-0.98,0.08
7.823132310999881,478,1475.53,-92.5,4.3,-77.4,-0.62,1.93,-1.62,0.24,-1.01,0.09
7.833325196999795,479,1475.54,-92.6,4.5,-77.2,-1.15,1.38,-1.63,0.26,-0.99,0.09
7.843216860999746,480,1475.55,-92.7,4.6,-77.1,-1.37,0.91,-1.57,0.27,-0.93,0.08
7.853217810999922,481,1475.56,-92.8,4.8,-77.0,-1.11,0.55,-1.47,0.28,-0.88,0.06
7.863471778000076,482,1475.57,-92.9,4.9,-77.0,-0.62,0.25,-1.37,0.29,-0.85,0.07
7.873351692999677,483,1475.58,-92.9,5.1,-77.0,-0.15,-0.07,-1.24,0.28,-0.82,0.08
7.883102951999717,484,1475.59,-92.9,5.2,-77.0,0.28,-0.46,-1.05,0.27,-0.81,0.09
7.8932132869999805,485,1475.6,-92.9,5.3,-77.1,0.71,-0.86,-0.84,0.27,-0.81,0.1
7.903199046999816,486,1475.61,-92.8,5.3,-77.2,0.97,-1.26,-0.58,0.27,-0.82,0.11
7.913175686999693,487,1475.62,-92.7,5.4,-77.4,1.07,-1.62,-0.31,0.27,-0.83,0.11
7.923217554000075,488,1475.63,-92.6,5.4,-77.6,0.99,-2.0,0.0,0.28,-0.83,0.11
7.933480830999997,489,1475.64,-92.6,5.4,-77.8,0.83,-2.4,0.3,0.29,-0.82,0.1
7.94316948300002,490,1475.65,-92.5,5.3,-78.0,0.77,-2.75,0.65,0.31,-0.8,0.09
7.9532882710000194,491,1475.66,-92.4,5.2,-78.3,0.87,-3.11,0.99,0.32,-0.79,0.09
7.963462290999814,492,1475.67,-92.4,5.1,-78.7,1.15,-3.48,1.27,0.3,-0.8,0.1
7.973335026999848,493,1475.68,-92.3,4.9,-79.0,1.6,-3.94,1.46,0.28,-0.82,0.12
7.983237767999981,494,1475.69,-92.1,4.7,-79.4,2.18,-4.42,1.6,0.25,-0.85,0.13
7.993271768999875,495,1475.7,-91.9,4.6,-79.9,2.65,-4.83,1.68,0.22,-0.88,0.12
8.003301905999706,496,1475.71,-91.7,4.4,-80.4,2.9,-5.09,1.73,0.2,-0.91,0.09
8.013249203999749,497,1475.72,-91.4,4.2,-80.9,3.08,-5.2,1.78,0.19,-0.93,0.08
8.023239509999712,498,1475.73,-91.1,4.0,-81.4,3.19,-5.27,1.8,0.2,-0.93,0.07
8.033321558999887,499,1475.74,-90.8,3.8,-82.0,3.3,-5.42,1.82,0.2,-0.91,0.07
8.043000281999866,500,1475.75,-90.5,3.6,-82.5,3.58,-5.58,1.9,0.21,-0.87,0.07
8.053336736999881,501,1475.76,-90.2,3.4,-83.1,3.95,-5.74,2.05,0.25,-0.85,0.06
8.063238003999686,502,1475.77,-89.8,3.2,-83.7,4.48,-5.91,2.15,0.3,-0.89,0.01
8.073307907000071,503,1475.78,-89.3,3.0,-84.3,5.15,-6.03,1.98,0.3,-0.99,-0.07
8.083294556000055,504,1475.79,-88.8,2.8,-84.9,5.95,-6.04,1.6,0.26,-1.11,-0.15
8.093288122000104,505,1475.8,-88.2,2.7,-85.5,6.62,-6.07,1.02,0.16,-1.27,-0.2
8.10302145500009,506,1475.81,-87.6,2.7,-86.1,6.69,-6.08,0.35,0.05,-1.42,-0.22
8.11335617299983,507,1475.82,-87.0,2.7,-86.7,5.63,-6.15,-0.44,-0.09,-1.57,-0.29
8.12328655400006,508,1475.83,-86.6,2.8,-87.3,3.22,-6.1,-1.3,-0.32,-1.64,-0.31
8.133318237999902,509,1475.84,-86.4,3.0,-87.9,0.1,-6.1,-1.97,-0.55,-1.55,-0.28
8.143564733999938,510,1475.85,-86.6,3.3,-88.5,-2.85,-5.49,-2.23,-0.57,-1.36,-0.27
8.153320595999958,511,1475.86,-87.1,3.5,-89.0,-5.49,-4.67,-2.51,-0.35,-1.2,-0.17
8.163164659999893,512,1475.87,-87.8,3.8,-89.4,-7.16,-3.62,-2.6,-0.14,-0.9,-0.17
8.173232513999665,513,1475.88,-88.5,4.1,-89.7,-6.55,-2.48,-2.24,0.05,-0.64,-0.09
8.183353048999834,514,1475.89,-89.1,4.3,-89.9,-4.42,-1.89,-1.63,0.18,-0.57,0.04
8.193214675000036,515,1475.9,-89.3,4.4,-90.1,-1.16,-1.76,-1.04,0.29,-0.64,0.14
8.203243089999887,516,1475.91,-89.3,4.5,-90.3,2.06,-1.99,-0.58,0.31,-0.83,0.12
8.213451569999961,517,1475.92,-89.0,4.5,-90.5,3.65,-2.11,-0.28,0.24,-1.06,0.07
8.223156474000007,518,1475.93,-88.6,4.6,-90.7,3.18,-2.16,-0.05,0.11,-1.24,0.09
8.233244007999929,519,1475.94,-88.4,4.6,-90.9,1.44,-2.22,0.25,-0.01,-1.31,0.16
8.243155684999692,520,1475.95,-88.4,4.5,-91.1,-0.24,-2.45,0.68,-0.12,-1.28,0.18
8.253247215000101,521,1475.96,-88.5,4.4,-91.4,-1.35,-2.69,1.03,-0.19,-1.2,0.16
8.263221781000084,522,1475.97,-88.7,4.3,-91.7,-1.82,-2.84,1.2,-0.2,-1.09,0.14
8.273352125999736,523,1475.98,-88.9,4.2,-92.0,-1.83,-2.96,1.26,-0.17,-1.02,0.15
8.283425627999804,524,1475.99,-89.1,4.1,-92.3,-1.57,-2.91,1.2,-0.15,-0.97,0.11
8.293039355000019,525,1476.0,-89.2,4.0,-92.5,-1.05,-2.61,1.16,-0.13,-0.94,0.06
8.303228150999985,526,1476.01,-89.3,3.9,-92.8,-0.54,-2.21,1.16,-0.11,-0.95,0.01
8.313261604999752,527,1476.02,-89.4,3.7,-93.0,-0.46,-1.73,1.17,-0.08,-0.97,-0.02
8.323197887999868,528,1476.03,-89.4,3.6,-93.1,-0.91,-1.12,1.27,-0.07,-0.95,-0.04
8.333415146999869,529,1476.04,-89.6,3.5,-93.2,-1.16,-0.56,1.42,-0.06,-0.93,-0.01
8.34319016399968,530,1476.05,-89.7,3.3,-93.2,-1.19,-0.11,1.49,-0.06,-0.93,0.0
8.353189570999803,531,1476.06,-89.8,3.1,-93.2,-1.04,0.27,1.42,-0.08,-0.92,0.0
8.363233978999688,532,1476.07,-89.9,2.9,-93.2,-0.71,0.62,1.25,-0.1,-0.92,0.01
8.373358536000069,533,1476.08,-89.9,2.8,-93.1,-0.28,0.91,1.03,-0.12,-0.91,0.02
8.383235893999881,534,1476.09,-89.9,2.7,-93.0,0.13,1.17,0.81,-0.12,-0.9,0.03
8.393511882999974,535,1476.1,-89.9,2.6,-92.9,0.47,1.45,0.63,-0.12,-0.91,0.04
8.403213280999807,536,1476.11,-89.8,2.6,-92.7,0.67,1.69,0.45,-0.12,-0.93,0.05
8.413313743999879,537,1476.12,-89.7,2.6,-92.5,0.71,1.91,0.25,-0.11,-0.94,0.06
8.423134157999812,538,1476.13,-89.7,2.5,-92.3,0.61,2.15,0.02,-0.1,-0.96,0.06
8.433380036000017,539,1476.14,-89.6,2.6,-92.1,0.47,2.38,-0.22,-0.1,-0.96,0.05
8.443111244999727,540,1476.15,-89.6,2.6,-91.8,0.4,2.6,-0.43,-0.1,-0.95,0.05
8.453238987000077,541,1476.16,-89.5,2.6,-91.6,0.45,2.8,-0.64,-0.09,-0.95,0.05
8.46346043299991,542,1476.17,-89.4,2.7,-91.3,0.63,2.97,-0.84,-0.1,-0.95,0.05
8.473215339000035,543,1476.18,-89.3,2.8,-91.0,0.92,3.15,-0.99,-0.1,-0.95,0.04
8.483044465999683,544,1476.19,-89.2,2.9,-90.6,1.17,3.35,-1.07,-0.09,-0.96,0.04
8.492885593999745,545,1476.2,-89.1,3.0,-90.3,1.31,3.48,-1.07,-0.07,-0.97,0.06
8.502741964000052,546,1476.21,-88.9,3.1,-89.9,1.22,3.52,-1.1,-0.05,-1.0,0.07
8.512922138999784,547,1476.22,-88.8,3.2,-89.6,0.92,3.52,-1.17,-0.04,-1.0,0.09
8.523081339999862,548,1476.23,-88.7,3.3,-89.2,0.73,3.4,-1.29,-0.04,-1.0,0.08
8.533334980999825,549,1476.24,-88.6,3.5,-88.9,0.64,3.27,-1.43,-0.05,-1.0,0.05
8.543132198999956,550,1476.25,-88.5,3.5,-88.6,0.65,3.27,-1.59,-0.05,-0.99,0.0
8.553339359999882,551,1476.26,-88.4,3.7,-88.2,0.74,3.4,-1.75,-0.06,-1.01,-0.07
8.563461080999787,552,1476.27,-88.3,3.9,-87.9,1.23,3.51,-1.83,-0.04,-1.05,-0.1
8.57326104699996,553,1476.28,-88.1,4.0,-87.5,1.69,3.38,-1.81,0.01,-1.13,-0.1
8.583464876000107,554,1476.29,-88.0,4.2,-87.2,1.77,2.94,-1.64,0.1,-1.19,-0.09
8.593301255999904,555,1476.3,-87.8,4.3,-86.9,1.36,2.14,-1.17,0.19,-1.21,-0.16
8.603037054999731,556,1476.31,-87.7,4.4,-86.8,0.26,1.53,-0.54,0.32,-1.28,-0.32
8.613522785999976,557,1476.32,-87.7,4.4,-86.6,-1.05,1.54,0.01,0.54,-1.34,-0.39
8.62321116799967,558,1476.33,-87.9,4.4,-86.5,-2.9,1.72,0.21,0.62,-1.3,-0.33
8.633324075000019,559,1476.34,-88.3,4.4,-86.3,-4.67,1.8,0.58,0.48,-1.04,-0.25
8.643438763999711,560,1476.35,-88.8,4.2,-86.1,-5.67,1.86,1.39,0.29,-0.81,-0.13
8.65335553199975,561,1476.36,-89.4,4.1,-85.9,-6.35,1.37,1.84,0.02,-0.72,-0.01
8.66327509599978,562,1476.37,-90.0,3.9,-85.8,-6.16,0.89,1.72,-0.23,-0.7,-0.01
8.673244816000079,563,1476.38,-90.6,3.8,-85.7,-4.88,1.39,0.98,-0.39,-0.72,-0.09
8.683310083999913,564,1476.39,-90.9,3.7,-85.5,-2.2,2.31,0.12,-0.39,-0.75,0.0
8.693252590999691,565,1476.4,-90.9,3.7,-85.2,1.28,3.19,-0.55,-0.31,-0.84,0.04
8.703178328999911,566,1476.41,-90.7,3.8,-84.9,3.37,3.46,-0.75,-0.11,-1.05,0.12
8.713513446999968,567,1476.42,-90.3,3.9,-84.6,3.13,3.12,-0.71,0.1,-1.3,0.04
8.723164837999775,568,1476.43,-90.1,4.0,-84.3,0.9,3.04,-0.56,0.29,-1.47,-0.1
8.733497025999895,569,1476.44,-90.1,4.0,-83.9,-2.11,3.35,-0.47,0.39,-1.46,-0.07
8.74318283599996,570,1476.45,-90.4,4.1,-83.6,-4.23,3.76,-0.46,0.4,-1.23,0.0
8.753125814999748,571,1476.46,-90.9,4.1,-83.2,-4.46,3.97,-0.52,0.34,-1.01,0.06
8.763153542000055,572,1476.47,-91.2,4.2,-82.8,-3.11,3.74,-0.66,0.25,-0.88,0.15
8.773350110999672,573,1476.48,-91.4,4.3,-82.5,-1.24,3.29,-0.92,0.18,-0.85,0.15
8.783305145999748,574,1476.49,-91.4,4.4,-82.2,0.13,2.99,-1.26,0.13,-0.88,0.11
8.793239213000106,575,1476.5,-91.3,4.6,-81.9,0.55,2.9,-1.58,0.1,-0.93,0.07
8.803153371999997,576,1476.51,-91.2,4.8,-81.6,0.32,2.89,-1.77,0.11,-0.98,0.05
8.81330587399998,577,1476.52,-91.1,5.0,-81.3,-0.26,2.8,-1.79,0.14,-0.98,0.05
8.823152719000063,578,1476.53,-91.2,5.1,-81.0,-0.85,2.64,-1.67,0.18,-0.94,0.06
8.833015588999842,579,1476.54,-91.3,5.3,-80.8,-1.1,2.36,-1.42,0.22,-0.89,0.07
8.842656931999954,580,1476.55,-91.3,5.4,-80.5,-1.08,2.03,-1.12,0.27,-0.85,0.08
8.853202365000016,581,1476.56,-91.4,5.5,-80.4,-0.88,1.59,-0.79,0.31,-0.82,0.1
8.863377095000033,582,1476.57,-91.5,5.6,-80.2,-0.5,1.05,-0.43,0.34,-0.79,0.12
8.873245366999981,583,1476.58,-91.5,5.6,-80.2,-0.09,0.52,-0.1,0.36,-0.79,0.13
8.88315121200003,584,1476.59,-91.5,5.6,-80.1,0.29,-0.07,0.21,0.36,-0.78,0.14
8.893296601999737,585,1476.6,-91.4,5.6,-80.2,0.62,-0.6,0.52,0.35,-0.78,0.14
8.903193377999742,586,1476.61,-91.4,5.5,-80.3,0.85,-1.09,0.83,0.34,-0.78,0.14
8.913157534999755,587,1476.62,-91.3,5.4,-80.4,0.99,-1.57,1.12,0.32,-0.8,0.14
8.923435277999943,588,1476.63,-91.2,5.3,-80.6,1.14,-2.02,1.38,0.29,-0.81,0.13
8.933308200999818,589,1476.64,-91.1,5.1,-80.8,1.33,-2.35,1.6,0.25,-0.82,0.1
8.943171255999914,590,1476.65,-91.0,4.9,-81.0,1.62,-2.59,1.74,0.22,-0.83,0.1
8.953289511000094,591,1476.66,-90.8,4.8,-81.3,2.05,-2.79,1.83,0.18,-0.85,0.1
8.963274686999739,592,1476.67,-90.6,4.6,-81.6,2.49,-3.0,1.85,0.16,-0.88,0.11
8.973203669999748,593,1476.68,-90.4,4.4,-81.9,2.8,-3.1,1.83,0.16,-0.91,0.08
8.983440077000068,594,1476.69,-90.1,4.2,-82.2,2.96,-3.14,1.76,0.17,-0.96,0.07
8.99332661399967,595,1476.7,-89.8,4.0,-82.5,3.07,-3.18,1.69,0.17,-0.99,0.06
9.003235752999899,596,1476.71,-89.5,3.9,-82.9,3.25,-3.28,1.63,0.16,-0.99,0.07
9.013274759000069,597,1476.72,-89.2,3.7,-83.2,3.4,-3.32,1.6,0.15,-0.99,0.06
9.023233436999817,598,1476.73,-88.9,3.6,-83.5,3.41,-3.23,1.56,0.16,-0.98,0.05
9.033312165000098,599,1476.74,-88.5,3.5,-83.9,3.42,-3.13,1.56,0.17,-0.96,0.06
9.043384389000039,600,1476.75,-88.2,3.4,-84.2,3.6,-3.05,1.57,0.19,-0.96,0.06
9.053360079999948,601,1476.76,-87.8,3.2,-84.5,3.79,-3.0,1.54,0.19,-0.98,0.04
9.063178485999742,602,1476.77,-87.5,3.1,-84.8,3.76,-2.85,1.53,0.19,-0.98,0.0
9.073336865999863,603,1476.78,-87.1,3.0,-85.1,3.82,-2.73,1.46,0.19,-1.04,-0.02
9.08346716899996,604,1476.79,-86.7,2.8,-85.3,4.09,-2.68,1.21,0.18,-1.14,-0.06
9.093271103999996,605,1476.8,-86.3,2.8,-85.6,4.46,-2.67,0.82,0.14,-1.22,-0.09
9.103068587000053,606,1476.81,-85.9,2.7,-85.9,4.42,-2.67,0.44,0.08,-1.28,-0.1
9.113258479999786,607,1476.82,-85.5,2.7,-86.2,3.5,-2.74,0.2,0.02,-1.32,-0.15
9.123226295999757,608,1476.83,-85.2,2.7,-86.4,1.91,-2.95,-0.19,-0.05,-1.49,-0.26
9.133176154000012,609,1476.84,-85.2,2.8,-86.7,0.07,-3.03,-0.6,-0.2,-1.46,-0.25
9.14344663599968,610,1476.85,-85.3,2.9,-87.0,-1.82,-3.2,-0.58,-0.27,-1.37,-0.16
9.15335658999993,611,1476.86,-85.6,3.0,-87.4,-4.03,-3.46,-0.73,-0.25,-1.35,-0.15
9.163143884999954,612,1476.87,-86.1,3.1,-87.7,-6.32,-3.24,-1.07,-0.1,-1.12,-0.16
9.173305120999885,613,1476.88,-86.9,3.2,-88.0,-7.36,-2.81,-1.24,0.05,-0.87,-0.12
9.183426206999684,614,1476.89,-87.6,3.4,-88.2,-7.27,-2.29,-1.28,0.18,-0.68,-0.03
9.193228737000027,615,1476.9,-88.3,3.5,-88.4,-6.33,-1.93,-1.2,0.28,-0.55,0.05
9.203299516999778,616,1476.91,-88.8,3.6,-88.6,-3.8,-1.91,-0.97,0.33,-0.51,0.17
9.213506124000105,617,1476.92,-89.0,3.7,-88.8,-0.03,-2.0,-0.61,0.28,-0.6,0.15
9.223069445999954,618,1476.93,-88.8,3.7,-89.0,3.29,-1.75,-0.24,0.17,-0.86,0.1
9.233357751999847,619,1476.94,-88.4,3.8,-89.2,4.88,-1.7,-0.01,0.06,-1.14,0.14
9.243097789999865,620,1476.95,-87.9,3.8,-89.4,4.17,-1.94,0.19,-0.06,-1.35,0.16
9.253021551000074,621,1476.96,-87.6,3.7,-89.6,1.86,-2.26,0.55,-0.14,-1.41,0.15
9.263064880999991,622,1476.97,-87.6,3.7,-89.8,-0.9,-2.38,0.92,-0.18,-1.34,0.16
9.273304127999836,623,1476.98,-87.8,3.6,-90.1,-2.75,-2.55,1.17,-0.15,-1.14,0.17
9.283237150999867,624,1476.99,-88.1,3.4,-90.3,-2.8,-2.63,1.4,-0.11,-0.95,0.17
9.293194261999815,625,1477.0,-88.4,3.3,-90.6,-1.69,-2.66,1.55,-0.08,-0.87,0.15
9.303239164999923,626,1477.01,-88.5,3.1,-90.9,-0.06,-2.58,1.59,-0.07,-0.86,0.13
9.313245348999772,627,1477.02,-88.4,3.0,-91.1,1.2,-2.39,1.53,-0.06,-0.92,0.07
9.323128016999817,628,1477.03,-88.3,2.8,-91.4,1.53,-2.01,1.41,-0.05,-0.99,0.02
9.33348146599974,629,1477.04,-88.2,2.6,-91.5,1.03,-1.57,1.36,-0.04,-1.0,0.01
9.343140957999822,630,1477.05,-88.1,2.4,-91.7,0.35,-1.16,1.38,-0.05,-1.0,0.03
9.353276679999908,631,1477.06,-88.1,2.2,-91.8,-0.07,-0.87,1.32,-0.07,-1.0,0.03
9.363455141000031,632,1477.07,-88.1,2.1,-91.9,-0.2,-0.54,1.14,-0.1,-0.98,0.02
9.373354685999857,633,1477.08,-88.1,2.0,-91.9,-0.16,-0.15,0.89,-0.14,-0.95,0.01
9.383074061000116,634,1477.09,-88.2,1.9,-91.9,-0.02,0.24,0.65,-0.17,-0.93,0.0
9.393272180999702,635,1477.1,-88.1,1.8,-91.8,0.14,0.66,0.43,-0.2,-0.92,0.01
9.403168900999844,636,1477.11,-88.1,1.8,-91.7,0.27,1.15,0.22,-0.21,-0.92,0.0
9.41321507099974,637,1477.12,-88.1,1.8,-91.6,0.26,1.67,0.0,-0.21,-0.93,0.0
9.423241197999687,638,1477.13,-88.1,1.8,-91.4,0.07,2.2,-0.22,-0.2,-0.92,0.0
9.433323678999841,639,1477.14,-88.1,1.8,-91.2,-0.15,2.7,-0.4,-0.18,-0.91,0.01
9.44306794799968,640,1477.15,-88.1,1.8,-90.9,-0.23,3.05,-0.52,-0.16,-0.9,0.02
9.453371377999702,641,1477.16,-88.1,1.9,-90.5,-0.19,3.4,-0.64,-0.13,-0.91,0.01
9.463438613000108,642,1477.17,-88.1,2.0,-90.2,-0.07,3.73,-0.76,-0.1,-0.91,0.02
9.473230753999815,643,1477.18,-88.1,2.0,-89.8,0.06,4.02,-0.88,-0.07,-0.92,0.03
9.483247621999908,644,1477.19,-88.0,2.0,-89.4,0.22,4.25,-1.0,-0.05,-0.93,0.05
9.493285360999835,645,1477.2,-88.0,2.0,-88.9,0.46,4.42,-1.04,-0.04,-0.93,0.06
9.503142908999962,646,1477.21,-87.9,2.1,-88.5,0.82,4.55,-1.02,-0.02,-0.94,0.08
9.513279658000101,647,1477.22,-87.7,2.1,-88.0,1.23,4.6,-0.92,0.0,-0.96,0.11
9.523242846999892,648,1477.23,-87.5,2.2,-87.6,1.48,4.42,-0.85,0.03,-0.99,0.15
9.533265866999955,649,1477.24,-87.2,2.2,-87.1,1.5,4.08,-0.81,0.04,-1.02,0.17
9.543107344999953,650,1477.25,-87.0,2.3,-86.7,1.4,3.65,-0.8,0.03,-1.04,0.18
9.553273966999768,651,1477.26,-86.8,2.3,-86.4,1.23,3.24,-0.82,0.01,-1.05,0.17
9.563141812999675,652,1477.27,-86.6,2.4,-86.1,1.1,2.94,-0.91,0.0,-1.05,0.14
9.573115828000027,653,1477.28,-86.5,2.5,-85.8,0.83,2.67,-1.07,-0.01,-1.05,0.11
9.583296460999918,654,1477.29,-86.4,2.5,-85.5,0.76,2.49,-1.21,-0.05,-1.03,0.07
9.593246859999908,655,1477.3,-86.3,2.6,-85.3,1.04,2.31,-1.27,-0.05,-1.06,0.0
9.603126227999837,656,1477.31,-86.1,2.7,-85.0,1.23,2.05,-1.29,-0.03,-1.12,-0.01
9.613316095999835,657,1477.32,-86.0,2.8,-84.8,1.37,1.6,-1.24,0.02,-1.2,-0.01
9.623052844000085,658,1477.33,-85.9,2.9,-84.7,1.3,0.91,-1.07,0.14,-1.28,-0.1
9.633145050999701,659,1477.34,-85.8,3.0,-84.6,1.17,0.54,-0.63,0.32,-1.38,-0.27
9.64317207699969,660,1477.35,-85.7,3.0,-84.6,0.14,0.49,-0.14,0.55,-1.48,-0.31
9.653518731000077,661,1477.36,-85.8,3.0,-84.6,-2.48,0.17,0.4,0.6,-1.38,-0.22
9.663422362999881,662,1477.37,-86.2,2.9,-84.6,-4.62,-0.37,1.29,0.45,-1.12,-0.09
9.673373611999978,663,1477.38,-86.8,2.7,-84.7,-5.77,-1.03,1.8,0.23,-1.01,-0.13
9.683424838000064,664,1477.39,-87.4,2.6,-84.8,-6.56,-1.15,1.68,-0.01,-0.86,-0.12
9.693195032999938,665,1477.4,-88.0,2.4,-84.9,-6.21,-0.95,1.08,-0.24,-0.75,-0.19
9.703184787999817,666,1477.41,-88.6,2.4,-84.9,-4.98,-0.01,0.32,-0.4,-0.66,-0.21
9.713575209999817,667,1477.42,-89.0,2.4,-84.9,-2.75,1.48,-0.44,-0.47,-0.63,-0.22
9.723438360999808,668,1477.43,-89.1,2.4,-84.6,-0.58,3.33,-1.13,-0.47,-0.68,-0.16
9.733318659999895,669,1477.44,-89.1,2.6,-84.2,1.17,4.73,-1.32,-0.37,-0.67,0.02
9.743189024999992,670,1477.45,-88.9,2.7,-83.7,2.16,5.15,-0.96,-0.2,-0.79,0.12
9.753292142999726,671,1477.46,-88.6,2.7,-83.2,1.67,5.21,-0.52,0.02,-1.04,0.05
9.763221154999883,672,1477.47,-88.5,2.8,-82.7,-0.15,4.77,0.0,0.27,-1.19,0.08
9.773337155999798,673,1477.48,-88.6,2.7,-82.2,-1.87,4.26,0.29,0.45,-1.28,0.07
9.783127069999864,674,1477.49,-88.9,2.7,-81.8,-3.33,4.12,0.25,0.54,-1.26,0.11
9.793256350999854,675,1477.5,-89.2,2.7,-81.4,-3.88,3.79,0.0,0.54,-1.13,0.2
9.80318639699999,676,1477.51,-89.5,2.7,-81.1,-2.56,3.28,-0.31,0.49,-1.0,0.27
9.813168661999953,677,1477.52,-89.7,2.7,-80.8,-0.61,2.39,-0.66,0.41,-0.94,0.29
9.82302946999971,678,1477.53,-89.6,2.8,-80.6,0.95,1.71,-1.04,0.31,-0.93,0.18
9.833373086999927,679,1477.54,-89.5,2.9,-80.4,1.69,1.43,-1.31,0.23,-0.98,0.1
9.843170148999889,680,1477.55,-89.3,3.1,-80.3,1.36,1.16,-1.47,0.16,-1.02,0.08
9.853168944000117,681,1477.56,-89.2,3.2,-80.2,0.49,0.89,-1.47,0.12,-1.02,0.07
9.863457466,682,1477.57,-89.1,3.4,-80.1,-0.15,0.58,-1.32,0.1,-0.99,0.06
9.873324718999811,683,1477.58,-89.2,3.6,-80.0,-0.43,0.42,-1.16,0.1,-0.97,0.03
9.88313688199969,684,1477.59,-89.2,3.7,-80.0,-0.48,0.35,-1.04,0.12,-0.92,0.04
9.893265168999733,685,1477.6,-89.2,3.9,-80.0,-0.27,0.29,-0.89,0.15,-0.88,0.05
9.903095538999878,686,1477.61,-89.2,3.9,-79.9,-0.02,0.22,-0.75,0.19,-0.87,0.07
9.913303990999793,687,1477.62,-89.2,4.0,-79.9,0.21,0.1,-0.63,0.22,-0.86,0.08
9.923211145000096,688,1477.63,-89.2,4.1,-79.9,0.43,-0.02,-0.5,0.24,-0.86,0.09
9.933397973999945,689,1477.64,-89.1,4.1,-79.9,0.61,-0.25,-0.3,0.25,-0.87,0.1
9.943136344999857,690,1477.65,-89.1,4.1,-80.0,0.67,-0.57,-0.12,0.25,-0.88,0.12
9.953298898999947,691,1477.66,-89.0,4.1,-80.1,0.55,-0.87,0.04,0.24,-0.87,0.12
9.963244160999693,692,1477.67,-89.0,4.1,-80.2,0.39,-1.04,0.27,0.23,-0.85,0.09
9.973195854000096,693,1477.68,-88.9,4.1,-80.3,0.32,-1.15,0.56,0.24,-0.83,0.09
9.983329023999886,694,1477.69,-88.9,4.0,-80.4,0.42,-1.36,0.86,0.24,-0.83,0.11
9.99330453499988,695,1477.7,-88.9,3.9,-80.6,0.68,-1.67,1.16,0.25,-0.83,0.12
