host_time_s,seq,device_time_s,roll,pitch,yaw,gyro_x,gyro_y,gyro_z,accel_x,accel_y,accel_z,belt_length,belt_velocity,belt_acceleration,motor_pos,motor_vel,motor_iq_meas,motor_iq_set,acc_mag,gyro_mag,acc_residual,threshold,heel_strike,hs_count,torque_cmd_nm
2.065947466999205,1,186.88,102.6,5.5,-22.4,0.12,-0.19,0.04,0.08,0.96,-0.21,-24.6,0.0,0.0,-3.85,0.0,-0.09,0.0,0.9859513172565875,0.22825424421026655,0.0,0.35,0,0,0.0
2.074230735999663,2,186.89,102.7,5.5,-22.4,0.11,-0.22,0.06,0.08,0.97,-0.22,-24.6,-0.1,-2.0,-3.85,0.0,0.0,0.0,0.9978476837674174,0.25317977802344327,0.011658439180613378,0.35,0,0,0.0
2.0822170289993664,3,186.9,102.7,5.5,-22.3,0.1,-0.23,0.09,0.08,0.96,-0.22,-24.6,0.0,1.0,-3.85,0.0,-0.01,0.0,0.98812954616285,0.2664582518894846,0.0019014955445250115,0.35,0,0,0.0
2.090289825999207,4,186.91,102.7,5.5,-22.3,0.1,-0.26,0.09,0.08,0.96,-0.22,-24.6,-0.1,0.0,-3.85,0.0,0.0,0.0,0.98812954616285,0.29274562336608895,0.0018634656336344868,0.35,0,0,0.0
2.101641739000115,5,186.92,102.7,5.5,-22.3,0.09,-0.28,0.1,0.08,0.96,-0.21,-24.6,0.1,0.0,-3.85,0.0,-0.08,0.0,0.9859513172565875,0.31064449134018135,0.0003084680071754331,0.35,0,0,0.0
2.110267448999366,6,186.93,102.7,5.5,-22.3,0.06,-0.31,0.11,0.08,0.96,-0.22,-24.6,-0.1,2.0,-3.85,0.0,-0.01,0.0,0.98812954616285,0.3343650699460098,0.0018323656811053413,0.35,0,0,0.0
2.121733874000711,7,186.94,102.7,5.5,-22.2,0.05,-0.35,0.11,0.08,0.96,-0.21,-24.6,0.0,1.0,-3.85,0.0,-0.17,0.0,0.9859513172565875,0.37027017163147236,0.0003389459606539802,0.35,0,0,0.0
2.1302632249989983,8,186.95,102.7,5.5,-22.2,0.07,-0.36,0.09,0.08,0.96,-0.22,-24.6,0.0,-4.0,-3.85,0.02,0.0,0.0,0.98812954616285,0.3776241517699841,0.0018024972866963473,0.35,0,0,0.0
2.1417529579994152,9,186.96,102.7,5.5,-22.1,0.09,-0.36,0.06,0.09,0.96,-0.21,-24.6,0.0,5.0,-3.85,-0.01,-0.01,0.0,0.9868130522039116,0.37589892258425,0.0004762832612027479,0.35,0,0,0.0
2.1502125290007825,10,186.97,102.8,5.5,-22.1,0.11,-0.38,0.03,0.09,0.95,-0.21,-24.6,0.0,0.0,-3.85,0.0,-0.01,0.0,0.9770875088752287,0.39673668849754745,0.009064274866130595,0.35,0,0,0.0
2.1616710929993133,11,186.98,102.8,5.5,-22.1,0.11,-0.38,0.03,0.09,0.95,-0.21,-24.6,0.1,0.0,-3.85,0.0,0.06,0.0,0.9770875088752287,0.39673668849754745,0.008882989368807936,0.35,0,0,0.0
2.170238288999826,12,186.99,102.8,5.5,-22.0,0.13,-0.39,0.02,0.09,0.94,-0.21,-24.6,-0.1,0.0,-3.85,0.0,-0.01,0.0,0.9673675619949224,0.41158231254513356,0.018230877524131994,0.35,0,0,0.0
2.181769468999846,13,187.0,102.8,5.5,-21.9,0.22,-0.44,0.0,0.08,0.95,-0.22,-24.6,0.1,5.0,-3.85,-0.02,0.06,0.0,0.978417088975862,0.4919349550499537,0.007037723532328455,0.35,0,0,0.0
2.1901418329998705,14,187.01,102.9,5.5,-21.9,0.21,-0.41,0.0,0.08,0.96,-0.22,-24.6,-0.1,-2.0,-3.85,0.0,-0.01,0.0,0.98812954616285,0.4606517122512408,0.0026212389815662984,0.35,0,0,0.0
2.201688686000125,15,187.02,102.9,5.4,-21.9,0.14,-0.38,-0.02,0.09,0.97,-0.22,-24.6,0.1,0.0,-3.85,0.0,0.0,0.0,0.9986991538997116,0.4054626986542659,0.012927029784059352,0.35,0,0,0.0
2.2101905759991496,16,187.03,102.9,5.4,-21.8,0.09,-0.36,-0.03,0.09,0.97,-0.22,-24.6,-0.1,0.0,-3.85,0.0,-0.02,0.0,0.9986991538997116,0.3722902093797257,0.012668489188378151,0.35,0,0,0.0
2.221740723000039,17,187.04,102.9,5.4,-21.8,0.08,-0.33,-0.03,0.1,0.97,-0.22,-24.6,0.0,0.0,-3.85,0.0,-0.01,0.0,0.9996499387285531,0.34088121098118623,0.013346888536875268,0.35,0,0,0.0
2.2302159539995046,18,187.05,102.9,5.4,-21.8,0.11,-0.27,-0.03,0.1,0.97,-0.23,-24.6,0.0,1.0,-3.85,0.0,0.13,0.0,1.0018981984213766,0.2930870177950569,0.015283245265104828,0.35,0,0,0.0
2.2417543810006464,19,187.06,102.9,5.4,-21.7,0.11,-0.22,-0.05,0.1,0.98,-0.22,-24.6,0.1,0.0,-3.85,0.0,-0.09,0.0,1.0093562304756434,0.25099800796022265,0.02228645177298416,0.35,0,0,0.0
2.2501359100006084,20,187.07,103.0,5.4,-21.7,0.09,-0.18,-0.08,0.1,0.97,-0.22,-24.6,0.0,0.0,-3.85,0.0,-0.01,0.0,0.9996499387285531,0.21656407827707713,0.012328556825376036,0.35,0,0,0.0
2.2617815300000075,21,187.08,103.0,5.4,-21.7,0.08,-0.16,-0.12,0.1,0.97,-0.22,-24.6,0.0,0.0,-3.85,0.0,0.05,0.0,0.9996499387285531,0.21540659228538014,0.012081985688868535,0.35,0,0,0.0
2.2702658380003413,22,187.09,103.0,5.4,-21.7,0.06,-0.13,-0.13,0.11,0.97,-0.22,-24.6,0.0,-1.0,-3.85,0.0,-0.01,0.0,1.00069975517135,0.19339079605813717,0.012869166089031991,0.35,0,0,0.0
2.2818210009991162,23,187.1,103.0,5.4,-21.7,0.06,-0.08,-0.15,0.11,0.97,-0.22,-24.6,0.0,1.0,-3.85,0.0,0.07,0.0,1.00069975517135,0.18027756377319948,0.01261178276725139,0.35,0,0,0.0
2.2902213750003284,24,187.11,103.0,5.4,-21.7,0.12,0.0,-0.17,0.11,0.96,-0.22,-24.6,-0.2,-3.0,-3.85,0.01,0.14,0.0,0.9910095862301231,0.20808652046684814,0.002863181549504157,0.35,0,0,0.0
2.3017189359998156,25,187.12,103.0,5.4,-21.7,0.13,0.03,-0.19,0.11,0.97,-0.22,-24.6,-0.1,0.0,-3.85,0.01,0.0,0.0,1.00069975517135,0.232163735324878,0.012302283480916332,0.35,0,0,0.0
2.3101856899993436,26,187.13,103.0,5.4,-21.7,0.13,0.07,-0.22,0.11,0.97,-0.22,-24.6,-0.2,0.0,-3.85,0.0,0.07,0.0,1.00069975517135,0.2649528259898354,0.012056237811298054,0.35,0,0,0.0
2.321568274999663,27,187.14,103.0,5.4,-21.7,0.1,0.11,-0.26,0.11,0.97,-0.22,-24.6,-0.5,0.0,-3.85,0.0,0.0,0.0,1.00069975517135,0.29949958263743875,0.011815113055072102,0.35,0,0,0.0
2.3301550639989728,28,187.15,103.0,5.3,-21.7,0.04,0.14,-0.28,0.11,0.97,-0.21,-24.6,-0.1,-1.0,-3.85,0.0,-0.01,0.0,0.9985489472229191,0.31559467676119,0.009471019004508419,0.35,0,0,0.0
2.341809158000615,29,187.16,103.0,5.3,-21.8,0.0,0.17,-0.3,0.11,0.97,-0.21,-24.6,-0.7,-1.0,-3.85,0.01,0.0,0.0,0.9985489472229191,0.34481879299133333,0.009281598624418241,0.35,0,0,0.0
2.3500191010007256,30,187.17,103.0,5.3,-21.8,-0.04,0.2,-0.31,0.1,0.96,-0.21,-24.6,-0.2,3.0,-3.85,0.0,0.0,0.0,0.9877752780870759,0.37107950630558945,0.0014622291011964217,0.35,0,0,0.0
2.361828630999298,31,187.18,103.0,5.3,-21.8,-0.08,0.23,-0.32,0.09,0.97,-0.21,-24.6,-0.2,1.0,-3.85,0.01,0.07,0.0,0.9965440281292142,0.402119385257662,0.007160390522123028,0.35,0,0,0.0
2.3702722729995003,32,187.19,103.0,5.3,-21.8,-0.09,0.25,-0.34,0.09,0.97,-0.2,-24.6,-0.4,-1.0,-3.85,0.01,-0.08,0.0,0.9944847912361455,0.4315089802078284,0.004999130556473275,0.35,0,0,0.0
2.3818833980003546,33,187.2,102.9,5.2,-21.9,-0.15,0.25,-0.35,0.1,0.98,-0.19,-24.6,-1.0,-3.0,-3.85,0.02,0.08,0.0,1.0032447358446492,0.4555216789572149,0.01348389366167746,0.35,0,0,0.0
2.390242395000314,34,187.21,102.9,5.2,-21.9,-0.27,0.26,-0.34,0.1,0.98,-0.2,-24.6,-0.9,-1.0,-3.85,0.03,0.14,0.0,1.005186549850325,0.5060632371551999,0.015117193514006089,0.35,0,0,0.0
2.4018230799993034,35,187.22,102.9,5.2,-22.0,-0.32,0.31,-0.36,0.11,0.98,-0.2,-24.6,-1.3,-3.0,-3.85,0.06,0.0,0.0,1.0062305898749053,0.5728001396647875,0.015838008867814724,0.35,0,0,0.0
2.41023906800001,36,187.23,102.8,5.2,-22.0,-0.35,0.34,-0.38,0.11,0.98,-0.2,-24.6,-1.8,-4.0,-3.85,0.04,0.0,0.0,1.0062305898749053,0.6184658438426491,0.015521248690458456,0.35,0,0,0.0
2.4218288419997407,37,187.24,102.8,5.2,-22.0,-0.41,0.37,-0.39,0.12,0.98,-0.2,-24.7,-2.2,-6.0,-3.85,0.07,-0.02,0.0,1.0073728207570423,0.6760917097554148,0.01633020998114354,0.35,0,0,0.0
2.430262538999159,38,187.25,102.7,5.2,-22.1,-0.47,0.41,-0.39,0.11,0.98,-0.21,-24.7,-4.6,-26.0,-3.84,0.18,0.1,0.0,1.008265837961398,0.7355949972641195,0.016878762641789335,0.35,0,0,0.0
2.4416945279990614,39,187.26,102.6,5.1,-22.1,-0.52,0.45,-0.41,0.11,0.98,-0.2,-24.8,-8.8,-33.0,-3.84,0.28,0.0,0.0,1.0062305898749053,0.8006247560499238,0.014546644264190722,0.35,0,0,0.0
2.4502298989991687,40,187.27,102.6,5.1,-22.2,-0.61,0.48,-0.43,0.11,0.98,-0.2,-24.9,-11.3,-24.0,-3.84,0.34,-0.02,0.0,1.0062305898749053,0.8873556220591606,0.01425571137890691,0.35,0,0,0.0
2.4618225670001266,41,187.28,102.5,5.1,-22.3,-0.66,0.52,-0.43,0.12,0.98,-0.2,-25.0,-12.1,4.0,-3.84,0.27,0.13,0.0,1.0073728207570423,0.9438749917229505,0.015089983415823016,0.35,0,0,0.0
2.4702123699989897,42,187.29,102.4,5.1,-22.3,-0.68,0.57,-0.43,0.12,0.98,-0.2,-25.1,-6.9,33.0,-3.83,0.13,0.02,0.0,1.0073728207570423,0.9860020283954796,0.014788183747506567,0.35,0,0,0.0
2.481689971000378,43,187.3,102.3,5.1,-22.4,-0.68,0.62,-0.44,0.12,0.98,-0.19,-25.1,-5.8,1.0,-3.83,0.19,-0.12,0.0,1.0054352291420865,1.02,0.012593580289899764,0.35,0,0,0.0
2.490188189000037,44,187.31,102.2,5.1,-22.5,-0.65,0.68,-0.44,0.12,0.97,-0.19,-25.2,-7.2,5.0,-3.83,0.15,0.06,0.0,0.9956907150315303,1.0385085459446157,0.00279208485575666,0.35,0,0,0.0
2.5016892370003916,45,187.32,102.2,5.1,-22.5,-0.63,0.72,-0.45,0.12,0.96,-0.18,-25.3,-4.0,24.0,-3.83,0.05,-0.09,0.0,0.9840731680114034,1.0572606112023657,0.008648952921082809,0.35,0,0,0.0
2.5101722399995197,46,187.33,102.1,5.1,-22.6,-0.58,0.76,-0.46,0.12,0.95,-0.18,-25.3,-1.5,20.0,-3.83,0.02,0.12,0.0,0.9743202758846805,1.0609429767899874,0.018033808146849628,0.35,0,0,0.0
2.521572383999228,47,187.34,102.0,5.0,-22.7,-0.56,0.78,-0.47,0.11,0.96,-0.18,-25.3,-0.2,14.0,-3.83,0.01,0.21,0.0,0.9829038610159184,1.0690650120549265,0.009261218555299489,0.35,0,0,0.0
2.5302713950004545,48,187.35,101.9,5.0,-22.8,-0.54,0.8,-0.48,0.11,0.96,-0.19,-25.3,0.0,2.0,-3.83,0.0,0.0,0.0,0.9847842403288144,1.0779610382569493,0.007233222457555422,0.35,0,0,0.0
2.5417519170005107,49,187.36,101.9,5.0,-22.9,-0.58,0.82,-0.47,0.11,0.97,-0.19,-25.3,0.0,0.0,-3.83,0.0,0.03,0.0,0.9945350672550466,1.1089183919477572,0.002467252379303231,0.35,0,0,0.0
2.55024375100038,50,187.37,101.8,5.0,-23.0,-0.63,0.83,-0.44,0.1,0.97,-0.19,-25.3,0.1,2.0,-3.83,0.0,0.21,0.0,0.9934787365615834,1.1311056537742175,0.0013827032521231963,0.35,0,0,0.0
2.5618022580001707,51,187.38,101.7,5.0,-23.1,-0.67,0.82,-0.42,0.1,0.97,-0.18,-25.3,0.0,-1.0,-3.83,0.02,0.0,0.0,0.9916148445843275,1.1391663618629193,0.00047156495063005455,0.35,0,0,0.0
2.5700724979997176,52,187.39,101.6,5.0,-23.2,-0.69,0.8,-0.42,0.1,0.97,-0.18,-25.3,-0.2,3.0,-3.83,0.0,-0.02,0.0,0.9916148445843275,1.1368817000902072,0.0004621336516174024,0.35,0,0,0.0
2.5817169479996664,53,187.4,101.5,5.0,-23.3,-0.7,0.79,-0.41,0.1,0.97,-0.18,-25.3,0.1,2.0,-3.83,0.0,0.02,0.0,0.9916148445843275,1.1323427043081966,0.0004528909785850299,0.35,0,0,0.0
2.5901933149998513,54,187.41,101.4,4.9,-23.3,-0.74,0.81,-0.4,0.11,0.97,-0.18,-25.3,-0.3,-2.0,-3.83,0.0,-0.15,0.0,0.9926731586982696,1.1677756633874505,0.0005933146726498917,0.35,0,0,0.0
2.6016699749998224,55,187.42,101.4,4.9,-23.4,-0.76,0.82,-0.39,0.11,0.97,-0.18,-25.3,0.2,3.0,-3.83,0.0,0.08,0.0,0.9926731586982696,1.184103036057251,0.000581448379196936,0.35,0,0,0.0
2.610169571998995,56,187.43,101.3,4.9,-23.5,-0.74,0.8,-0.39,0.11,0.97,-0.18,-25.3,0.1,1.0,-3.83,0.0,0.15,0.0,0.9926731586982696,1.1574541027617467,0.0005698194116130484,0.35,0,0,0.0
2.622255046000646,57,187.44,101.2,4.9,-23.6,-0.75,0.77,-0.35,0.12,0.97,-0.18,-25.3,-0.2,-6.0,-3.83,0.0,0.06,0.0,0.9938309715439542,1.1304423912787418,0.0016930796121517044,0.35,0,0,0.0
2.630171897000764,58,187.45,101.1,4.9,-23.7,-0.8,0.79,-0.36,0.12,0.97,-0.19,-25.3,-0.1,7.0,-3.83,-0.02,-0.09,0.0,0.9956907150315303,1.180550718944341,0.0034817666377332523,0.35,0,0,0.0
2.6417183640005533,59,187.46,101.0,4.9,-23.8,-0.82,0.82,-0.36,0.12,0.97,-0.18,-25.3,0.3,-6.0,-3.83,0.0,-0.06,0.0,0.9938309715439542,1.2142487389328431,0.0015895826871540342,0.35,0,0,0.0
2.650223212000128,60,187.47,100.9,4.9,-23.9,-0.85,0.85,-0.36,0.12,0.96,-0.18,-25.3,0.0,0.0,-3.83,0.0,-0.2,0.0,0.9840731680114034,1.2548306658669128,0.008004856428488805,0.35,0,0,0.0
2.661776450999241,61,187.48,100.8,4.9,-24.0,-0.81,0.88,-0.36,0.12,0.95,-0.18,-25.3,0.0,2.0,-3.83,0.0,0.09,0.0,0.9743202758846805,1.2490396310766123,0.01740259358410745,0.35,0,0,0.0
2.6700988199991116,62,187.49,100.7,4.9,-24.1,-0.75,0.91,-0.36,0.12,0.95,-0.18,-25.3,0.0,0.0,-3.83,0.0,0.18,0.0,0.9743202758846805,1.2329639086364208,0.017054541712425264,0.35,0,0,0.0
2.681732645000011,63,187.5,100.7,4.9,-24.2,-0.67,0.96,-0.37,0.11,0.95,-0.18,-25.3,0.1,0.0,-3.83,0.0,0.18,0.0,0.973139250056229,1.227762191957384,0.017870856190059237,0.35,0,0,0.0
2.6903001529990433,64,187.51,100.6,4.9,-24.3,-0.58,0.98,-0.36,0.11,0.95,-0.17,-25.3,0.0,-3.0,-3.83,0.0,-0.11,0.0,0.9713392816107047,1.1943198901466892,0.019277408142871932,0.35,0,0,0.0
2.701824858000691,65,187.52,100.5,4.9,-24.4,-0.56,0.96,-0.33,0.1,0.95,-0.16,-25.3,-0.1,1.0,-3.83,0.0,0.06,0.0,0.9685556256612213,1.1593532679903913,0.021619842810508216,0.35,0,0,0.0
2.7102233989990054,66,187.53,100.4,4.9,-24.5,-0.54,0.92,-0.31,0.1,0.95,-0.17,-25.3,0.3,-1.0,-3.83,0.0,0.15,0.0,0.9702576977277738,1.1109005356016353,0.01951941532907664,0.35,0,0,0.0
2.7219933579999633,67,187.54,100.4,4.9,-24.6,-0.52,0.87,-0.26,0.1,0.96,-0.17,-25.3,0.0,0.0,-3.83,0.0,0.21,0.0,0.9800510190801294,1.0463746938836012,0.009531572097186691,0.35,0,0,0.0
2.730206743999588,68,187.55,100.3,4.9,-24.6,-0.56,0.82,-0.22,0.1,0.97,-0.17,-25.3,0.2,-2.0,-3.83,0.0,-0.02,0.0,0.9898484732523458,1.0170545708072896,0.0002605644335291757,0.35,0,0,0.0
2.7417078399994352,69,187.56,100.2,4.9,-24.7,-0.6,0.74,-0.19,0.1,0.97,-0.17,-25.3,0.1,3.0,-3.83,0.0,-0.11,0.0,0.9898484732523458,0.9714422267947795,0.0002553531448585833,0.35,0,0,0.0
2.7502131139990524,70,187.57,100.2,4.9,-24.8,-0.62,0.71,-0.18,0.1,0.97,-0.18,-25.3,0.4,1.0,-3.83,-0.01,-0.02,0.0,0.9916148445843275,0.9596353474106715,0.001981289987303403,0.35,0,0,0.0
2.761846481000248,71,187.58,100.1,5.0,-24.9,-0.58,0.68,-0.18,0.09,0.97,-0.17,-25.3,0.9,5.0,-3.83,0.0,-0.12,0.0,0.9888882646689665,0.9117017056033185,0.0007303841294964419,0.35,0,0,0.0
2.7702603660000023,72,187.59,100.1,4.9,-24.9,-0.51,0.67,-0.2,0.08,0.96,-0.17,-25.3,0.3,-4.0,-3.83,0.0,-0.03,0.0,0.9782126558167197,0.8654478609367523,0.011177873122108384,0.35,0,0,0.0
2.7818495400006213,73,187.6,100.0,4.9,-25.0,-0.45,0.65,-0.22,0.08,0.96,-0.17,-25.3,0.9,6.0,-3.83,-0.04,0.06,0.0,0.9782126558167197,0.8206095295571457,0.010954315659666203,0.35,0,0,0.0
2.790231852999568,74,187.61,100.0,4.9,-25.1,-0.4,0.67,-0.22,0.09,0.96,-0.17,-25.2,1.1,0.0,-3.83,-0.01,0.06,0.0,0.979081201943945,0.810740402348372,0.009884054141792054,0.35,0,0,0.0
2.8018325159991946,75,187.62,99.9,4.9,-25.2,-0.29,0.7,-0.24,0.09,0.95,-0.17,-25.2,1.0,0.0,-3.83,-0.02,0.02,0.0,0.9692780818733084,0.7947955712005446,0.019293430728180017,0.35,0,0,0.0
2.8102759220000735,76,187.63,99.9,4.9,-25.2,-0.18,0.73,-0.24,0.09,0.97,-0.17,-25.2,0.9,3.0,-3.83,-0.03,-0.03,0.0,0.9888882646689665,0.7892401408950256,0.00031041702612844,0.35,0,0,0.0
2.821727975000613,77,187.64,99.9,4.9,-25.3,-0.16,0.74,-0.21,0.09,0.97,-0.16,-25.2,1.1,1.0,-3.83,-0.03,-0.26,0.0,0.9872183142547548,0.7856844150166147,0.0013323427203215665,0.35,0,0,0.0
2.8301551650001784,78,187.65,99.8,4.9,-25.4,-0.18,0.77,-0.19,0.09,0.97,-0.16,-25.2,1.9,4.0,-3.83,-0.04,0.01,0.0,0.9872183142547548,0.8132650244538984,0.001305695865915113,0.35,0,0,0.0
2.8416957360004744,79,187.66,99.8,4.9,-25.5,-0.19,0.81,-0.16,0.09,0.97,-0.16,-25.2,1.4,-1.0,-3.83,-0.06,0.06,0.0,0.9872183142547548,0.8472307831990054,0.0012795819485967863,0.35,0,0,0.0
2.850238429999081,80,187.67,99.8,4.9,-25.6,-0.17,0.83,-0.13,0.08,0.96,-0.14,-25.2,2.6,13.0,-3.83,-0.12,0.02,0.0,0.9734474818910366,0.8571464285639881,0.014749406026068668,0.35,0,0,0.0
2.8620059940003557,81,187.68,99.7,4.9,-25.6,-0.11,0.81,-0.12,0.07,0.96,-0.14,-25.1,6.6,45.0,-3.84,-0.32,0.04,0.0,0.9726767191621274,0.826196102629394,0.015209765379878282,0.35,0,0,0.0
2.87026013600007,82,187.69,99.7,4.9,-25.7,-0.09,0.79,-0.1,0.07,0.96,-0.14,-25.0,16.6,85.0,-3.84,-0.59,0.04,0.0,0.9726767191621274,0.801373820385967,0.014905570072280772,0.35,0,0,0.0
2.881815495999035,83,187.7,99.7,4.9,-25.8,-0.09,0.77,-0.1,0.07,0.96,-0.15,-24.7,25.5,85.0,-3.85,-0.84,-0.07,0.0,0.9741663102366043,0.7816648898345121,0.01314765941784779,0.35,0,0,0.0
2.890211071999147,84,187.71,99.7,4.9,-25.9,-0.1,0.8,-0.13,0.07,0.96,-0.15,-24.4,36.3,96.0,-3.86,-1.12,-0.2,0.0,0.9741663102366043,0.8166394553289721,0.012884706229490783,0.35,0,0,0.0
2.9018341259998124,85,187.72,99.6,4.9,-26.0,-0.12,0.83,-0.16,0.06,0.96,-0.15,-24.0,45.5,99.0,-3.87,-1.38,0.03,0.0,0.9734988443752771,0.8537564055396597,0.01328112864900155,0.35,0,0,0.0
2.9101212339992344,86,187.73,99.6,4.9,-26.1,-0.1,0.91,-0.21,0.07,0.96,-0.16,-23.5,56.5,107.0,-3.89,-1.7,-0.09,0.0,0.9757561170702441,0.9392550239418472,0.010803378834953858,0.35,0,0,0.0
2.9218257459997403,87,187.74,99.6,4.9,-26.2,-0.11,1.03,-0.26,0.07,0.95,-0.16,-22.8,68.1,119.0,-3.91,-2.03,-0.37,0.0,0.96591925128346,1.067988763985839,0.020227439729303187,0.35,0,0,0.0
2.9301864089993614,88,187.75,99.6,4.8,-26.3,-0.15,1.22,-0.31,0.07,0.95,-0.17,-22.0,82.5,141.0,-3.93,-2.45,0.02,0.0,0.9676259607927021,1.267675037223657,0.01815031561565983,0.35,0,0,0.0
2.9416652509989945,89,187.76,99.6,4.8,-26.4,-0.2,1.42,-0.33,0.08,0.95,-0.18,-21.1,97.0,142.0,-3.96,-2.86,-0.12,0.0,0.9702061636580134,1.4714958375748128,0.015258710495341665,0.35,0,0,0.0
2.950227569999697,90,187.77,99.5,4.8,-26.6,-0.22,1.69,-0.3,0.08,0.96,-0.18,-20.0,111.7,152.0,-3.99,-3.28,0.0,0.0,0.98,1.7304623659588785,0.005355576670287965,0.35,0,0,0.0
2.9618945750007697,91,187.78,99.5,4.8,-26.8,-0.21,1.93,-0.25,0.08,0.96,-0.18,-18.8,129.2,167.0,-4.03,-3.77,-0.04,0.0,0.98,1.9574217736604442,0.005248465136882152,0.35,0,0,0.0
2.970246856999438,92,187.79,99.5,4.8,-27.0,-0.23,2.11,-0.18,0.07,0.96,-0.17,-17.4,146.8,176.0,-4.07,-4.27,-0.04,0.0,0.9774456506629922,2.1301173676584115,0.0076467581844121835,0.35,0,0,0.0
2.9817893050003477,93,187.8,99.4,4.8,-27.2,-0.25,2.25,-0.11,0.06,0.97,-0.16,-15.8,166.6,196.0,-4.11,-4.82,-0.26,0.0,0.9849365461794988,2.266517151931571,0.0001527454145474616,0.35,0,0,0.0
2.990239634000318,94,187.81,99.4,4.9,-27.4,-0.27,2.29,-0.09,0.05,0.97,-0.15,-14.0,185.9,191.0,-4.17,-5.34,-0.12,0.0,0.9828021163998376,2.3076178193106416,0.0022414316903244247,0.35,0,0,0.0
3.0018099110002368,95,187.82,99.3,4.9,-27.6,-0.08,2.31,-0.19,0.06,0.98,-0.15,-12.0,204.8,185.0,-4.22,-5.83,-0.11,0.0,0.9932270636667125,2.319180889883323,0.008019845265019532,0.35,0,0,0.0
3.010240255000099,96,187.83,99.3,4.9,-27.9,0.15,2.36,-0.36,0.06,1.01,-0.17,-9.8,223.0,189.0,-4.28,-6.34,-0.07,0.0,1.0259629622944486,2.3920075250717754,0.039940629014900475,0.35,0,0,0.0
3.0217922869996983,97,187.84,99.3,4.9,-28.1,0.21,2.49,-0.56,0.05,1.03,-0.18,-7.4,243.0,199.0,-4.35,-6.91,0.07,0.0,1.0468046618161384,2.560820181113856,0.05956668196585846,0.35,0,0,0.0
3.030165226999088,98,187.85,99.3,4.8,-28.4,0.07,2.58,-0.78,0.05,1.04,-0.18,-4.9,263.9,205.0,-4.43,-7.45,-0.08,0.0,1.0566456359631644,2.696238120048005,0.06801950299062676,0.35,0,0,0.0
3.0416914300003555,99,187.86,99.3,4.7,-28.7,-0.08,2.68,-0.9,0.04,1.04,-0.19,-2.1,279.5,169.0,-4.5,-7.89,-0.14,0.0,1.0579697538209683,2.8282149847562863,0.06795674843146193,0.35,0,0,0.0
3.050266169000679,100,187.87,99.3,4.7,-28.9,-0.19,2.73,-0.9,0.05,1.02,-0.2,0.7,299.0,180.0,-4.59,-8.36,-0.23,0.0,1.0406248123122954,2.8807985004161605,0.0495995707843333,0.35,0,0,0.0
3.062028325999563,101,187.88,99.3,4.6,-29.2,-0.13,2.82,-0.86,0.04,0.99,-0.21,3.8,309.7,84.0,-4.67,-8.27,0.16,0.0,1.0128178513434685,2.9510845463998483,0.0213567576191962,0.35,0,0,0.0
3.070236555999145,102,187.89,99.3,4.6,-29.5,-0.06,2.87,-0.8,0.02,0.99,-0.21,6.7,279.2,-302.0,-4.74,-6.74,0.14,0.0,1.0122252713699653,2.980016778476256,0.02034889409277918,0.35,0,0,0.0
3.081624041999021,103,187.9,99.3,4.5,-29.8,-0.03,2.88,-0.76,0.02,1.01,-0.2,9.2,234.8,-296.0,-4.8,-6.09,0.03,0.0,1.029805806936434,2.9787413449307745,0.03717084106606283,0.35,0,0,0.0
3.0901478300002054,104,187.91,99.3,4.4,-30.1,-0.2,2.88,-0.67,0.01,1.02,-0.21,11.4,216.8,-214.0,-4.86,-5.56,0.26,0.0,1.0414413089560064,2.9636632737205484,0.047830216223922584,0.35,0,0,0.0
3.101674706000267,105,187.92,99.2,4.4,-30.4,-0.37,2.94,-0.58,0.0,1.01,-0.2,13.4,191.2,-278.0,-4.91,-4.69,0.14,0.0,1.0296115772464878,3.019420474196994,0.03528047482411589,0.35,0,0,0.0
3.1102256560006936,106,187.93,99.2,4.3,-30.7,-0.49,2.89,-0.55,0.0,1.0,-0.19,15.0,159.8,-305.0,-4.95,-3.86,0.01,0.0,1.0178899744078433,2.9823983637334566,0.023087694545761983,0.35,0,0,0.0
3.1215955739990022,107,187.94,99.1,4.3,-31.0,-0.58,2.79,-0.47,0.0,0.99,-0.18,16.5,134.0,-219.0,-4.99,-3.5,-0.07,0.0,1.0062305898749053,2.8881481956437067,0.011199743812567498,0.35,0,0,0.0
3.1301925179996033,108,187.95,99.0,4.2,-31.3,-0.74,2.6,-0.4,-0.01,0.97,-0.17,17.8,128.4,-97.0,-5.02,-3.38,0.01,0.0,0.9848350115628506,2.732690981432039,0.009991917809497486,0.35,0,0,0.0
3.141693538000254,109,187.96,99.0,4.2,-31.5,-0.72,2.35,-0.43,-0.01,0.96,-0.17,19.0,111.6,-237.0,-5.05,-2.32,0.12,0.0,0.9749871794028884,2.495155305787598,0.019442954970070536,0.35,0,0,0.0
3.150080937999519,110,187.97,98.9,4.1,-31.8,-0.5,2.19,-0.58,-0.02,0.96,-0.18,19.7,56.1,-494.0,-5.06,-0.39,0.32,0.0,0.976933979345585,2.3200215516240363,0.017146231926826405,0.35,0,0,0.0
3.161914025000442,111,187.98,98.9,4.0,-32.0,-0.37,2.08,-0.79,-0.01,0.98,-0.2,19.8,-7.1,-471.0,-5.06,0.47,-0.05,0.0,1.0002499687578101,2.2555265460641336,0.00604636233569078,0.35,0,0,0.0
3.1702124870007538,112,187.99,98.9,4.0,-32.0,-0.37,2.08,-0.79,-0.01,0.98,-0.2,19.7,-10.4,-76.0,-5.05,0.05,-0.04,0.0,1.0002499687578101,2.2555265460641336,0.005925435088976916,0.35,0,0,0.0
3.181689577000725,113,188.0,98.8,4.0,-32.2,-0.52,2.08,-0.92,-0.01,1.02,-0.21,19.7,1.2,33.0,-5.06,-0.16,-0.02,0.0,1.0414413089560064,2.33306665142683,0.046174439781429655,0.35,0,0,0.0
3.1902364489997126,114,188.01,98.8,3.8,-32.4,-0.76,2.08,-1.02,0.0,0.99,-0.2,19.7,1.2,-37.0,-5.06,0.06,0.03,0.0,1.01,2.438114025225236,0.014438468208914812,0.35,0,0,0.0
3.201830998999867,115,188.02,98.7,3.7,-32.6,-0.81,2.08,-1.14,0.0,0.97,-0.2,19.7,-0.6,3.0,-5.06,-0.03,-0.02,0.0,0.9904039579888602,2.506411777821035,0.005054422326180585,0.35,0,0,0.0
3.2103035599993746,116,188.03,98.6,3.6,-32.9,-0.91,2.11,-1.15,0.0,0.96,-0.21,19.7,0.1,-5.0,-5.06,0.01,0.01,0.0,0.982700361249552,2.569571948788358,0.012502858684178997,0.35,0,0,0.0
3.2217691139994713,117,188.04,98.6,3.5,-33.1,-0.96,2.28,-1.05,0.0,0.94,-0.2,19.7,-0.1,2.0,-5.06,0.0,-0.02,0.0,0.9610411021387171,2.6874709300753374,0.03347887543911365,0.35,0,0,0.0
3.2301749309990555,118,188.05,98.5,3.4,-33.3,-0.85,2.39,-0.94,0.0,0.93,-0.19,19.7,0.0,-1.0,-5.06,0.0,0.03,0.0,0.9492101980067429,2.7052171816695236,0.04440358397966604,0.35,0,0,0.0
3.241607476000354,119,188.06,98.4,3.3,-33.6,-0.73,2.45,-0.82,0.0,0.93,-0.19,19.7,0.0,3.0,-5.06,0.0,0.1,0.0,0.9492101980067429,2.684734623757067,0.04351551230007267,0.35,0,0,0.0
3.25023647099988,120,188.07,98.4,3.2,-33.8,-0.6,2.44,-0.71,0.0,0.95,-0.18,19.7,0.2,-4.0,-5.06,0.0,0.06,0.0,0.966902270139025,2.6110725765478064,0.025306971364434827,0.35,0,0,0.0
3.2619643399993947,121,188.08,98.3,3.2,-34.1,-0.66,2.35,-0.58,-0.01,0.96,-0.18,19.7,0.0,1.0,-5.06,0.0,-0.17,0.0,0.9767804256842988,2.5088842141477956,0.015120239502777744,0.35,0,0,0.0
3.270176793999781,122,188.09,98.3,3.1,-34.3,-0.71,2.3,-0.49,-0.02,0.97,-0.18,19.7,0.1,3.0,-5.06,-0.01,0.06,0.0,0.9867623827447011,2.4564608688110625,0.005035516793527983,0.35,0,0,0.0
3.281611342999895,123,188.1,98.2,3.1,-34.6,-0.76,2.15,-0.4,-0.03,0.97,-0.18,19.7,-0.1,-4.0,-5.06,0.01,-0.2,0.0,0.9870157040290696,2.3151889771679546,0.004686551598976241,0.35,0,0,0.0
3.290243544999612,124,188.11,98.1,3.0,-34.8,-0.79,1.97,-0.33,-0.04,0.97,-0.17,19.7,0.0,0.0,-5.06,0.0,0.01,0.0,0.9855962662266938,2.1479990689011017,0.005983869613324977,0.35,0,0,0.0
3.3018219959994894,125,188.12,98.0,3.0,-34.9,-0.87,1.71,-0.24,-0.05,0.98,-0.17,19.7,-0.1,2.0,-5.06,0.0,0.0,0.0,0.9958915603618699,1.933545965318642,0.004225196031414025,0.35,0,0,0.0
3.3102159749996645,126,188.13,97.9,3.0,-35.1,-0.95,1.46,-0.14,-0.06,0.98,-0.16,19.7,-0.2,-3.0,-5.06,0.01,-0.11,0.0,0.994786409235671,1.7474839055052838,0.003057644007110838,0.35,0,0,0.0
3.3216495659999055,127,188.14,97.8,3.0,-35.2,-1.07,1.15,-0.03,-0.06,0.99,-0.16,19.7,-0.2,3.0,-5.06,0.0,-0.06,0.0,1.0046392387319938,1.5710824294097365,0.012652264033364946,0.35,0,0,0.0
3.330172281999694,128,188.15,97.7,3.1,-35.3,-1.16,0.85,0.07,-0.05,0.99,-0.16,19.7,-0.4,-7.0,-5.06,0.03,0.0,0.0,1.0040916292848974,1.439791651594077,0.011862561494543122,0.35,0,0,0.0
3.3416238150002755,129,188.16,97.6,3.1,-35.4,-1.25,0.63,0.19,-0.04,0.99,-0.17,19.7,-1.0,1.0,-5.06,0.0,-0.15,0.0,1.0052860289489753,1.4126216761751889,0.012795821935448703,0.35,0,0,0.0
3.350254861999929,130,188.17,97.5,3.0,-35.5,-1.4,0.39,0.33,-0.01,0.99,-0.17,19.7,-0.5,0.0,-5.05,0.02,0.01,0.0,1.0045396955820112,1.4903019828209316,0.011808498797114875,0.35,0,0,0.0
3.361788964999505,131,188.18,97.3,3.1,-35.5,-1.52,0.2,0.49,0.0,0.97,-0.17,19.7,-0.8,0.0,-5.05,0.01,-0.14,0.0,0.9847842403288144,1.60950302888811,0.007788017326960217,0.35,0,0,0.0
3.370234504000109,132,188.19,97.2,3.1,-35.5,-1.49,0.05,0.61,0.0,0.95,-0.18,19.7,-0.5,2.0,-5.05,0.01,-0.16,0.0,0.966902270139025,1.6108072510390559,0.025156587766414606,0.35,0,0,0.0
3.3818451980005193,133,188.2,97.1,3.1,-35.5,-1.34,-0.03,0.67,0.01,0.94,-0.19,19.7,-1.6,-6.0,-5.05,0.04,0.04,0.0,0.9590620417887468,1.4984658821608186,0.03233687979435895,0.35,0,0,0.0
3.3902557309993426,134,188.21,97.1,3.2,-35.5,-1.16,-0.05,0.71,0.02,0.95,-0.2,19.6,-2.4,-4.0,-5.05,0.06,0.12,0.0,0.9710303805751909,1.3609555466656507,0.01996117018775656,0.35,0,0,0.0
3.4018453160006175,135,188.22,97.0,3.2,-35.4,-1.15,-0.11,0.8,0.03,0.97,-0.2,19.6,-3.9,-14.0,-5.05,0.12,-0.11,0.0,0.9908582138732059,1.4052046114356442,0.00013067015194667686,0.35,0,0,0.0
3.4098950659990805,136,188.23,96.9,3.3,-35.4,-1.24,-0.18,0.95,0.04,0.96,-0.2,19.6,-4.9,-9.0,-5.05,0.13,0.14,0.0,0.9814275317108238,1.572418519351639,0.009370125268042262,0.35,0,0,0.0
3.4217625469991617,137,188.24,96.8,3.4,-35.4,-1.27,-0.35,1.11,0.03,0.94,-0.19,19.5,-5.9,-7.0,-5.05,0.16,-0.21,0.0,0.9594790253048786,1.7226433176952216,0.030692259040507652,0.35,0,0,0.0
3.4301371239998844,138,188.25,96.8,3.5,-35.3,-1.14,-0.55,1.2,0.02,0.92,-0.19,19.4,-6.3,-10.0,-5.05,0.19,-0.01,0.0,0.9396275858019495,1.744161689752415,0.049532824572568024,0.35,0,0,0.0
3.441826378000769,139,188.26,96.7,3.6,-35.2,-0.93,-0.7,1.21,0.01,0.91,-0.21,19.4,-9.3,-18.0,-5.04,0.26,-0.07,0.0,0.9339700209321496,1.6789877903070052,0.05408658165352054,0.35,0,0,0.0
3.450245186000757,140,188.27,96.6,3.7,-35.1,-0.76,-0.86,1.16,0.0,0.92,-0.22,19.3,-5.1,41.0,-5.04,0.04,-0.06,0.0,0.9459386872308374,1.6318088123306602,0.04127555704773611,0.35,0,0,0.0
3.4619917550007813,141,188.28,96.6,3.8,-35.0,-0.74,-0.97,1.15,0.0,0.93,-0.22,19.3,0.3,24.0,-5.04,0.0,0.14,0.0,0.9556673061269806,1.6766037098849567,0.030915999388561044,0.35,0,0,0.0
3.4701882009994733,142,188.29,96.5,3.9,-34.9,-0.76,-1.17,1.16,0.0,0.93,-0.2,19.3,-0.1,8.0,-5.04,0.0,-0.12,0.0,0.9512623192369181,1.8144145061148513,0.03461456655305106,0.35,0,0,0.0
3.4816797639996366,143,188.3,96.4,4.0,-34.8,-0.66,-1.43,1.17,-0.01,0.91,-0.22,19.3,0.0,4.0,-5.04,0.0,0.08,0.0,0.9362691920596341,1.9619887869200474,0.04861553985572831,0.35,0,0,0.0
3.4902447780004877,144,188.31,96.4,4.1,-34.6,-0.44,-1.62,1.21,-0.01,0.91,-0.23,19.3,0.2,-2.0,-5.04,0.01,-0.18,0.0,0.938669270829721,2.069323560973489,0.045291151863928625,0.35,0,0,0.0
3.501802819999284,145,188.32,96.4,4.2,-34.4,-0.2,-1.77,1.27,-0.03,0.92,-0.23,19.3,-0.1,8.0,-5.04,-0.03,0.11,0.0,0.9487887014504337,2.1876471379086713,0.03446828681835157,0.35,0,0,0.0
3.5102478970002267,146,188.33,96.4,4.3,-34.2,-0.06,-2.0,1.37,-0.05,0.92,-0.23,19.3,-0.1,-12.0,-5.04,0.03,0.14,0.0,0.9496315074806648,2.4249742266671617,0.03295297117235807,0.35,0,0,0.0
3.521784172999105,147,188.34,96.4,4.4,-34.0,0.08,-2.28,1.46,-0.07,0.91,-0.22,19.3,0.0,2.0,-5.04,0.0,-0.15,0.0,0.938829057922687,2.708578963220382,0.0428803123157292,0.35,0,0,0.0
3.530152162999002,148,188.35,96.4,4.6,-33.7,0.43,-2.67,1.4,-0.07,0.91,-0.2,19.3,-1.5,-14.0,-5.04,0.06,0.05,0.0,0.9343446901438462,3.0452914474644293,0.04641738649267857,0.35,0,0,0.0
3.5416411030000745,149,188.36,96.5,4.7,-33.4,0.88,-2.98,1.13,-0.04,0.94,-0.21,19.2,-5.1,-43.0,-5.04,0.23,0.05,0.0,0.9640020746865642,3.306312144973611,0.016424801910961406,0.35,0,0,0.0
3.5502332060004846,150,188.37,96.7,4.7,-33.1,1.36,-3.12,0.69,0.0,0.96,-0.25,19.1,-16.3,-99.0,-5.04,0.6,0.1,0.0,0.9920181449953422,3.472765468614315,0.011359443029860361,0.35,0,0,0.0
3.5619252220003546,151,188.38,96.8,4.7,-32.8,1.57,-3.03,0.21,0.02,0.99,-0.3,18.9,-29.0,-112.0,-5.03,0.93,0.08,0.0,1.0346496991735898,3.4190495755399626,0.052911177263945786,0.35,0,0,0.0
3.570259490999888,152,188.39,97.0,4.7,-32.5,1.45,-2.88,-0.04,0.04,0.99,-0.31,18.5,-40.7,-124.0,-5.02,1.28,0.26,0.0,1.0381714694596458,3.2246705258056982,0.055304288599001716,0.35,0,0,0.0
3.5818314860007376,153,188.4,97.2,4.6,-32.2,1.28,-2.82,-0.06,0.04,0.96,-0.26,18.0,-53.9,-130.0,-5.0,1.64,-0.11,0.0,0.9953893710503443,3.0974828490243493,0.012271746385906224,0.35,0,0,0.0
3.5902409949994762,154,188.41,97.4,4.6,-31.9,1.28,-2.93,-0.01,0.07,0.94,-0.21,17.4,-63.6,-73.0,-4.98,1.73,-0.02,0.0,0.9657121724406295,3.1974051979691285,0.017057343179332496,0.35,0,0,0.0
3.6017359380002745,155,188.42,97.6,4.6,-31.6,1.37,-2.92,0.0,0.12,0.94,-0.2,16.8,-55.4,87.0,-4.97,1.22,-0.36,0.0,0.96850400102426,3.225414702018951,0.01398020430378788,0.35,0,0,0.0
3.610232807999637,156,188.43,97.8,4.5,-31.3,1.68,-2.63,-0.32,0.17,0.96,-0.18,16.4,-30.2,197.0,-4.96,0.52,0.12,0.0,0.9914131328563285,3.1371483866722016,0.008750348977714983,0.35,0,0,0.0
3.621769380999467,157,188.44,98.0,4.4,-31.1,2.14,-2.23,-0.94,0.22,1.04,-0.18,16.3,-6.0,221.0,-4.96,-0.11,-0.05,0.0,1.0781465577554845,3.2304953180588267,0.09357409839933362,0.35,0,0,0.0
3.6299798130003182,158,188.45,98.2,4.3,-30.9,2.36,-1.73,-1.55,0.27,1.14,-0.2,16.3,5.4,80.0,-4.96,-0.07,-0.06,0.0,1.1884864324004711,3.3113441379596895,0.19983569358343378,0.35,0,0,0.0
3.6418925729994953,159,188.46,98.5,4.1,-30.8,2.08,-1.3,-1.91,0.29,1.2,-0.21,16.3,-1.6,-15.0,-4.96,0.1,0.26,0.0,1.252277924424127,3.108777894929131,0.25835464189494795,0.35,0,0,0.0
3.650243304999094,160,188.47,98.6,3.9,-30.7,1.53,-0.98,-1.95,0.21,1.16,-0.21,16.3,-1.1,27.0,-4.96,-0.04,0.03,0.0,1.1974138799930456,2.6652954808050833,0.19942078551458908,0.35,0,0,0.0
3.6618280749989935,161,188.48,98.8,3.7,-30.7,0.96,-0.8,-1.79,0.06,1.08,-0.18,16.3,1.1,2.0,-4.96,0.0,-0.09,0.0,1.096540012949824,2.1830483274540673,0.09657598010194013,0.35,0,0,0.0
3.670251501000166,162,188.49,98.9,3.5,-30.6,0.75,-0.84,-1.51,-0.07,1.03,-0.12,16.3,-1.4,-9.0,-4.96,0.04,0.07,0.0,1.0393267051317405,1.8836666371733615,0.0385754188381795,0.35,0,0,0.0
3.6818025930006115,163,188.5,98.9,3.4,-30.5,0.8,-1.15,-1.21,-0.18,1.0,-0.07,16.3,-1.4,-2.0,-4.96,0.03,-0.27,0.0,1.018479258502597,1.8511077764409072,0.017373412764855267,0.35,0,0,0.0
3.6901996260003216,164,188.51,99.0,3.2,-30.4,0.86,-1.71,-0.94,-0.24,1.0,-0.04,16.2,-2.7,-11.0,-4.96,0.08,0.02,0.0,1.0291744264214886,2.13243991709028,0.02750720907007187,0.35,0,0,0.0
3.7016816029990878,165,188.52,99.1,3.1,-30.2,0.89,-2.26,-0.8,-0.23,1.04,-0.04,16.2,-3.0,-7.0,-4.96,0.09,0.02,0.0,1.0658799181896619,2.5572837151946985,0.06292844682148035,0.35,0,0,0.0
3.710261210000681,166,188.53,99.2,3.0,-30.0,0.77,-2.75,-0.67,-0.19,1.06,-0.04,16.2,-5.7,-32.0,-4.96,0.23,0.11,0.0,1.0776363022838458,2.933308712017881,0.07319113429735102,0.35,0,0,0.0
3.721736608998981,167,188.54,99.3,2.9,-29.7,0.52,-3.13,-0.54,-0.11,1.08,-0.06,16.1,-11.1,-40.0,-4.96,0.34,0.06,0.0,1.0872442227944925,3.218524506664506,0.08114307371183771,0.35,0,0,0.0
3.7301397510000243,168,188.55,99.4,2.8,-29.4,0.31,-3.43,-0.38,-0.02,1.09,-0.07,15.9,-14.8,-41.0,-4.95,0.46,0.07,0.0,1.0924284873619874,3.4648809503358122,0.08460079151374589,0.35,0,0,0.0
3.7418314200003806,169,188.56,99.4,2.7,-29.0,0.19,-3.62,-0.25,0.05,1.09,-0.1,15.8,-18.7,-30.0,-4.95,0.52,-0.04,0.0,1.0957189420649804,3.633593262873543,0.08613342129240409,0.35,0,0,0.0
3.7502931029994215,170,188.57,99.4,2.6,-28.7,0.01,-3.65,-0.15,0.11,1.09,-0.12,15.6,-19.8,-13.0,-4.94,0.54,0.13,0.0,1.1020889256316844,3.653094578573076,0.09065333676192577,0.35,0,0,0.0
3.761873798999659,171,188.58,99.3,2.6,-28.3,-0.29,-3.54,-0.03,0.14,1.09,-0.14,15.3,-23.7,-46.0,-4.93,0.74,-0.04,0.0,1.1078357278947093,3.5519853603301916,0.09447213624445161,0.35,0,0,0.0
3.7702607339997485,172,188.59,99.3,2.6,-28.0,-0.54,-3.4,0.11,0.15,1.05,-0.12,15.1,-31.6,-83.0,-4.92,1.02,-0.02,0.0,1.0674268124794317,3.444372221465038,0.052981956412590625,0.35,0,0,0.0
3.781779921000634,173,188.6,99.3,2.6,-27.6,-0.68,-3.36,0.22,0.14,1.0,-0.1,14.6,-49.2,-178.0,-4.91,1.66,0.12,0.0,1.0146920715172658,3.435171029221107,0.0002422711414162837,0.35,0,0,0.0
3.7902864400002727,174,188.61,99.2,2.5,-27.3,-0.7,-3.35,0.32,0.15,0.96,-0.1,13.9,-77.9,-257.0,-4.89,2.49,0.08,0.0,0.9767804256842988,3.4372809021085255,0.03691598719771971,0.35,0,0,0.0
3.8014916680003807,175,188.62,99.2,2.5,-27.0,-0.45,-3.24,0.3,0.14,0.92,-0.11,13.0,-108.4,-290.0,-4.86,3.33,0.46,0.0,0.9370699013414101,3.28482876266024,0.07509398130979617,0.35,0,0,0.0
3.809858971000722,176,188.63,99.1,2.5,-26.7,-0.13,-3.03,0.31,0.12,0.93,-0.11,11.6,-140.3,-296.0,-4.82,4.15,0.15,0.0,0.9441398201537736,3.04858983794147,0.06666358124748406,0.35,0,0,0.0
3.8217363999992813,177,188.64,99.1,2.5,-26.4,0.0,-2.83,0.42,0.1,0.94,-0.08,10.1,-165.7,-261.0,-4.77,4.8,0.15,0.0,0.9486832980505138,2.8609963299522074,0.060877701283728936,0.35,0,0,0.0
3.83023609600059,178,188.65,99.1,2.6,-26.1,0.0,-2.73,0.56,0.07,0.94,-0.05,8.2,-187.8,-213.0,-4.72,5.3,0.28,0.0,0.9439279633531363,2.7868440932352136,0.06432037526148426,0.35,0,0,0.0
3.841826981999475,179,188.66,99.0,2.6,-25.8,0.01,-2.74,0.65,0.06,0.94,-0.04,6.3,-202.0,-153.0,-4.66,5.63,0.08,0.0,0.942761899951414,2.816061078883056,0.0641767098899424,0.35,0,0,0.0
3.850246108999272,180,188.67,99.0,2.6,-25.5,0.05,-2.81,0.71,0.07,0.96,-0.02,4.1,-217.3,-178.0,-4.6,6.17,0.08,0.0,0.9627564593395361,2.898741106066563,0.04329850749178399,0.35,0,0,0.0
3.861947183999291,181,188.68,99.0,2.7,-25.2,0.02,-2.83,0.78,0.07,0.98,-0.03,1.8,-239.0,-188.0,-4.54,6.69,-1.01,0.0,0.9829547293746543,2.9355919334948446,0.022638232707532513,0.35,0,0,0.0
3.8702278210002987,182,188.69,99.0,2.7,-24.9,0.02,-2.85,0.84,0.06,0.98,-0.01,-0.6,-252.9,-151.0,-4.47,7.05,0.21,0.0,0.9818859404228171,2.971279185805333,0.02323288122618239,0.35,0,0,0.0
3.8818638930006273,183,188.7,99.1,2.7,-24.6,0.02,-3.02,0.96,0.05,0.99,0.0,-3.2,-268.7,-164.0,-4.4,7.5,-0.09,0.0,0.9912618221237011,3.1689745975630665,0.01357985953479246,0.35,0,0,0.0
3.890220524999677,184,188.71,99.1,2.8,-24.3,0.03,-3.27,1.09,0.06,0.97,0.01,-6.0,-279.2,-88.0,-4.32,7.61,0.03,0.0,0.9719053451854249,3.4470131998586835,0.03227760974360727,0.35,0,0,0.0
3.9017197739995026,185,188.72,99.1,2.9,-24.0,0.28,-3.44,1.15,0.05,0.96,0.0,-8.8,-278.1,-9.0,-4.24,7.51,-0.01,0.0,0.9613012014972206,3.6379252328765634,0.04202411836317532,0.35,0,0,0.0
3.910145410000041,186,188.73,99.2,2.9,-23.6,0.55,-3.6,1.16,0.04,0.96,0.0,-11.5,-272.8,35.0,-4.17,7.34,-0.15,0.0,0.9608329719571451,3.822054421381255,0.041642500945185734,0.35,0,0,0.0
3.92157578700062,187,188.74,99.3,3.0,-23.2,0.61,-3.78,1.21,0.04,0.97,0.0,-14.2,-266.1,69.0,-4.1,7.09,-0.19,0.0,0.9708243919473799,4.015544794918866,0.03101805933585189,0.35,0,0,0.0
3.9301740899991273,188,188.75,99.3,3.0,-22.8,0.5,-4.01,1.26,0.04,0.97,0.0,-16.8,-253.3,126.0,-4.03,6.66,-0.08,0.0,0.9708243919473799,4.232930427020977,0.030397698149134844,0.35,0,0,0.0
3.941617545999179,189,188.76,99.4,3.1,-22.4,0.44,-4.23,1.24,0.05,0.96,-0.04,-19.2,-234.0,172.0,-3.97,6.12,-0.08,0.0,0.9621330469326994,4.429909705626065,0.038307262300538936,0.35,0,0,0.0
3.95023962400046,190,188.77,99.4,3.2,-21.9,0.32,-4.28,1.2,0.08,0.97,-0.07,-21.4,-215.9,169.0,-3.91,5.68,-0.11,0.0,0.9758073580374356,4.456545747549328,0.024140292171886735,0.35,0,0,0.0
3.9617098759990768,191,188.78,99.4,3.2,-21.5,0.15,-4.25,1.16,0.1,0.98,-0.09,-23.4,-199.4,168.0,-3.86,5.2,-0.04,0.0,0.9891915891272024,4.408015426470285,0.01054093986047755,0.35,0,0,0.0
3.9702552660000947,192,188.79,99.4,3.3,-21.1,0.07,-4.21,1.16,0.12,0.98,-0.09,-25.3,-179.6,190.0,-3.81,4.66,-0.08,0.0,0.9914131328563284,4.367447767289266,0.008153008208724555,0.35,0,0,0.0
3.9817190199992183,193,188.8,99.4,3.4,-20.6,0.02,-4.21,1.2,0.13,0.98,-0.1,-26.9,-156.8,222.0,-3.77,3.95,-0.11,0.0,0.9936297097007516,4.377727721090018,0.005817702737015318,0.35,0,0,0.0
3.990250520999325,194,188.81,99.4,3.4,-20.2,0.04,-4.21,1.21,0.13,0.99,-0.1,-28.3,-134.0,220.0,-3.73,3.35,-0.12,0.0,1.003493896344168,4.380616394983702,0.003965554228273049,0.35,0,0,0.0
4.001863294999566,195,188.82,99.4,3.5,-19.8,-0.06,-4.17,1.28,0.13,0.99,-0.12,-29.5,-112.4,217.0,-3.7,2.79,0.01,0.0,1.0056838469419702,4.362441976691495,0.006032394729553747,0.35,0,0,0.0
4.010226624999632,196,188.83,99.4,3.6,-19.3,-0.16,-4.05,1.29,0.13,0.98,-0.14,-30.5,-91.2,208.0,-3.68,2.22,0.09,0.0,0.9984487968844471,4.2534926824904735,0.0011786022214099745,0.35,0,0,0.0
4.021666897000614,197,188.84,99.4,3.7,-18.9,-0.11,-3.87,1.27,0.13,0.98,-0.16,-31.3,-71.2,202.0,-3.66,1.7,0.12,0.0,1.0014489502715553,4.074542919150564,0.0017851201423843,0.35,0,0,0.0
4.030179338999005,198,188.85,99.5,3.8,-18.5,0.0,-3.63,1.28,0.14,0.99,-0.16,-31.8,-51.5,197.0,-3.65,1.15,-0.05,0.0,1.0125709851659783,3.849064821485863,0.012649011936071153,0.35,0,0,0.0
4.041739813999811,199,188.86,99.5,3.9,-18.2,0.16,-3.41,1.32,0.14,1.01,-0.17,-32.2,-34.2,175.0,-3.64,0.73,-0.09,0.0,1.0337311062360464,3.660068305373549,0.03313295034601649,0.35,0,0,0.0
4.050146125000538,200,188.87,99.5,4.0,-17.8,0.3,-3.2,1.37,0.14,1.03,-0.17,-32.5,-18.5,155.0,-3.63,0.35,-0.09,0.0,1.0532805893967665,3.493837431821922,0.05162878483660194,0.35,0,0,0.0
4.061856443999204,201,188.88,99.6,4.2,-17.5,0.36,-3.03,1.45,0.15,1.05,-0.18,-32.6,-8.0,101.0,-3.63,0.15,0.04,0.0,1.0758252646224664,3.3783131885602318,0.07268999086105588,0.35,0,0,0.0
4.070208519999142,202,188.89,99.6,4.3,-17.2,0.19,-2.93,1.56,0.15,1.04,-0.17,-32.6,-2.8,69.0,-3.63,0.0,-0.03,0.0,1.0644247272588137,3.324845861088902,0.06006366442745503,0.35,0,0,0.0
4.081701938999686,203,188.9,99.7,4.4,-16.8,-0.09,-2.93,1.57,0.15,1.02,-0.16,-32.6,0.3,33.0,-3.63,-0.01,0.06,0.0,1.0433120338613948,3.3253420876655686,0.03817195160943543,0.35,0,0,0.0
4.090246240999477,204,188.91,99.7,4.6,-16.5,-0.4,-2.92,1.56,0.14,1.01,-0.16,-32.6,-0.6,4.0,-3.63,0.02,-0.12,0.0,1.0321337122679406,3.334666400106613,0.026453757415661583,0.35,0,0,0.0
4.101784354999836,205,188.92,99.6,4.7,-16.2,-0.68,-2.87,1.51,0.14,0.97,-0.16,-32.6,-0.7,-2.0,-3.63,0.03,-0.03,0.0,0.9930256794262673,3.3135177681732753,0.012401189917491395,0.35,0,0,0.0
4.1102329549994465,206,188.93,99.6,4.9,-15.9,-0.73,-2.82,1.41,0.13,0.95,-0.16,-32.6,-2.1,-9.0,-3.63,0.06,0.06,0.0,0.972111104761179,3.236263277299917,0.03264944929092817,0.35,0,0,0.0
4.121671855000386,207,188.94,99.5,5.0,-15.6,-0.7,-2.75,1.32,0.13,0.94,-0.16,-32.7,-2.8,-3.0,-3.63,0.07,-0.03,0.0,0.9623408959407264,3.1296804948748362,0.0415712649491532,0.35,0,0,0.0
4.1302467309997155,208,188.95,99.5,5.1,-15.3,-0.68,-2.67,1.26,0.13,0.94,-0.17,-32.7,-2.5,-1.0,-3.63,0.07,-0.03,0.0,0.9640539403996023,3.0296699490208496,0.03906105608047172,0.35,0,0,0.0
4.14165770299951,209,188.96,99.5,5.2,-15.0,-0.73,-2.5,1.16,0.14,0.93,-0.19,-32.7,-3.5,-10.0,-3.63,0.11,0.02,0.0,0.9594790253048787,2.851052437258915,0.04276325175169149,0.35,0,0,0.0
4.150246957999116,210,188.97,99.5,5.3,-14.8,-0.74,-2.26,1.08,0.16,0.91,-0.21,-32.8,-6.0,-20.0,-3.62,0.19,0.01,0.0,0.9475230867899737,2.6118192893077423,0.05362480646126466,0.35,0,0,0.0
4.161723735000123,211,188.98,99.4,5.4,-14.5,-0.73,-2.03,1.01,0.17,0.92,-0.2,-32.9,-9.0,-25.0,-3.62,0.26,-0.22,0.0,0.9567131231461186,2.381994962211297,0.04354607470301741,0.35,0,0,0.0
4.170231527999931,212,188.99,99.4,5.5,-14.3,-0.79,-1.77,1.0,0.18,0.93,-0.2,-33.0,-10.8,-27.0,-3.62,0.34,0.13,0.0,0.9681425514871248,2.18105479069188,0.03147431343477092,0.35,0,0,0.0
4.181965198000398,213,189.0,99.3,5.7,-14.0,-0.91,-1.41,0.95,0.2,0.94,-0.21,-33.1,-15.6,-52.0,-3.61,0.49,0.0,0.0,0.9837174391053561,1.9283931134496408,0.015581437300208778,0.35,0,0,0.0
4.190206942999794,214,189.01,99.2,5.7,-13.8,-1.07,-1.17,0.9,0.2,0.93,-0.22,-33.3,-20.2,-35.0,-3.61,0.57,0.26,0.0,0.9763708311906907,1.8231291780891445,0.022469484310576715,0.35,0,0,0.0
4.201725593999072,215,189.02,99.1,5.8,-13.7,-1.29,-0.98,0.81,0.21,0.91,-0.22,-33.5,-24.0,-47.0,-3.6,0.72,-0.06,0.0,0.9594790253048787,1.8112426673419553,0.038574064392460916,0.35,0,0,0.0
4.210189989000355,216,189.03,98.9,5.9,-13.6,-1.44,-0.78,0.64,0.21,0.88,-0.22,-33.8,-28.3,-27.0,-3.59,0.77,0.03,0.0,0.931074647920348,1.758294628325981,0.06563887294145176,0.35,0,0,0.0
4.222313553000276,217,189.04,98.8,5.9,-13.6,-1.44,-0.54,0.39,0.21,0.86,-0.22,-34.1,-31.6,-41.0,-3.59,0.9,-0.21,0.0,0.9121951545584969,1.586600138661282,0.0828279989772368,0.35,0,0,0.0
4.230182032999437,218,189.05,98.7,5.9,-13.5,-1.4,-0.33,0.15,0.2,0.87,-0.22,-34.5,-35.2,-33.0,-3.58,0.99,-0.04,0.0,0.9194019795497507,1.4461673485458035,0.07410875050626331,0.35,0,0,0.0
4.2419309449996945,219,189.06,98.5,5.9,-13.5,-1.32,-0.13,-0.1,0.19,0.86,-0.21,-34.8,-36.8,-22.0,-3.57,1.02,-0.01,0.0,0.9054280755532159,1.3301503674397117,0.08632100141274213,0.35,0,0,0.0
4.250261331000729,220,189.07,98.4,5.9,-13.5,-1.26,0.03,-0.34,0.18,0.86,-0.21,-35.2,-37.9,-4.0,-3.56,1.0,-0.16,0.0,0.9033825324855468,1.3054118124178284,0.08659921359080303,0.35,0,0,0.0
4.261820723999335,221,189.08,98.3,5.8,-13.5,-1.17,0.21,-0.56,0.17,0.86,-0.23,-35.6,-35.1,18.0,-3.55,0.92,0.23,0.0,0.9063112048297759,1.3140015220691337,0.08199713042164247,0.35,0,0,0.0
4.270256286999938,222,189.09,98.1,5.8,-13.6,-1.09,0.42,-0.75,0.16,0.87,-0.23,-35.9,-32.7,24.0,-3.54,0.84,0.03,0.0,0.9140021881811881,1.3881642554107205,0.07282002412882571,0.35,0,0,0.0
4.281771599000422,223,189.1,98.0,5.7,-13.6,-1.0,0.64,-0.89,0.15,0.89,-0.23,-36.2,-30.8,7.0,-3.53,0.86,0.08,0.0,0.9313968005098578,1.4838126566382968,0.05431690356415275,0.35,0,0,0.0
4.290325226000277,224,189.11,97.9,5.6,-13.7,-0.97,0.86,-0.99,0.15,0.91,-0.24,-36.5,-31.0,6.0,-3.52,0.83,-0.14,0.0,0.9529952780575568,1.631134574460366,0.03206405749612473,0.35,0,0,0.0
4.301903225999922,225,189.12,97.8,5.5,-13.8,-0.96,1.04,-1.08,0.16,0.91,-0.24,-36.8,-31.6,4.0,-3.51,0.83,0.04,0.0,0.9546203433826455,1.780337046741431,0.029830212327615402,0.35,0,0,0.0
4.310197020000487,226,189.13,97.7,5.4,-14.0,-0.95,1.22,-1.11,0.17,0.91,-0.24,-37.1,-32.2,-19.0,-3.5,0.93,0.09,0.0,0.9563472172804185,1.9034179782696181,0.027541271661245537,0.35,0,0,0.0
4.3217167290004,227,189.14,97.6,5.3,-14.1,-0.86,1.37,-1.15,0.17,0.9,-0.24,-37.5,-34.2,-9.0,-3.49,0.92,-0.01,0.0,0.9468368391650169,1.9846914117816905,0.036310616781114136,0.35,0,0,0.0
4.330102697000257,228,189.15,97.5,5.2,-14.3,-0.63,1.53,-1.2,0.17,0.89,-0.24,-37.8,-32.2,16.0,-3.49,0.83,0.08,0.0,0.9373366524360391,2.0439667316274988,0.044894587439890055,0.35,0,0,0.0
4.342096125999888,229,189.16,97.5,5.1,-14.4,-0.33,1.67,-1.22,0.16,0.89,-0.23,-38.1,-29.9,16.0,-3.48,0.8,0.1,0.0,0.9330594836343501,2.0943256671301147,0.048188321116747534,0.35,0,0,0.0
4.350276249999297,230,189.17,97.4,5.0,-14.6,-0.02,1.77,-1.23,0.15,0.9,-0.23,-38.4,-29.4,8.0,-3.47,0.79,0.04,0.0,0.9409569596958194,2.155504581298773,0.03948502815417265,0.35,0,0,0.0
4.361805483998978,231,189.18,97.4,4.9,-14.8,0.23,1.79,-1.17,0.14,0.92,-0.22,-38.7,-31.7,-30.0,-3.46,0.93,0.1,0.0,0.9562426470305536,2.1507905523318627,0.023715354003049693,0.35,0,0,0.0
4.370255392999752,232,189.19,97.4,4.9,-15.0,0.36,1.75,-1.11,0.13,0.93,-0.22,-39.1,-35.8,-25.0,-3.45,0.99,0.02,0.0,0.9644687656943589,2.10337823512558,0.015179450632459512,0.35,0,0,0.0
4.381666577999567,233,189.2,97.5,4.8,-15.2,0.43,1.7,-1.03,0.12,0.94,-0.22,-39.4,-39.4,-39.0,-3.44,1.13,0.32,0.0,0.9728309205612247,2.0336666393487404,0.006680949850281892,0.35,0,0,0.0
4.390186732000075,234,189.21,97.5,4.7,-15.4,0.51,1.66,-0.98,0.11,0.94,-0.24,-39.9,-43.9,-39.0,-3.43,1.23,-0.02,0.0,0.9763708311906906,1.9940160480798543,0.00307821843639966,0.35,0,0,0.0
4.401881034000326,235,189.22,97.5,4.6,-15.6,0.52,1.62,-0.96,0.11,0.94,-0.24,-40.3,-48.5,-35.0,-3.41,1.33,0.02,0.0,0.9763708311906906,1.9535608513685978,0.003016654067671709,0.35,0,0,0.0
4.414277043999391,236,189.23,97.6,4.6,-15.7,0.48,1.62,-0.98,0.12,0.93,-0.26,-40.8,-49.4,-14.0,-3.4,1.35,0.03,0.0,0.9730878685915265,1.9532536957599749,0.006173624333498995,0.35,0,0,0.0
4.422183048000079,237,189.24,97.6,4.5,-15.9,0.41,1.71,-1.04,0.13,0.91,-0.28,-41.3,-50.5,-16.0,-3.39,1.39,0.08,0.0,0.9609370426828181,2.0429880077964238,0.017957961237363262,0.35,0,0,0.0
4.430258312999285,238,189.25,97.6,4.4,-16.1,0.42,1.91,-1.14,0.16,0.91,-0.3,-41.9,-52.9,-27.0,-3.37,1.48,0.04,0.0,0.9714422267947795,2.263647499059869,0.0073037215828938296,0.35,0,0,0.0
4.441736879000018,239,189.26,97.7,4.3,-16.3,0.67,2.23,-1.17,0.18,0.93,-0.31,-42.4,-56.0,-33.0,-3.36,1.56,-0.07,0.0,0.9966945369570358,2.6058971583698387,0.017589616807775155,0.35,0,0,0.0
4.450281438999809,240,189.27,97.7,4.2,-16.6,1.03,2.55,-1.16,0.19,0.96,-0.31,-43.0,-58.7,-15.0,-3.34,1.58,0.03,0.0,1.0265476121447072,2.9847948003171005,0.04649383815553765,0.35,0,0,0.0
4.4617748460004805,241,189.28,97.8,4.1,-16.9,1.38,2.85,-1.05,0.19,1.02,-0.3,-43.6,-58.2,-1.0,-3.32,1.57,-0.19,0.0,1.0800462953040486,3.336075538713115,0.09799267088858143,0.35,0,0,0.0
4.4701039520005,242,189.29,98.0,4.1,-17.2,1.59,3.08,-0.79,0.17,1.07,-0.28,-44.2,-60.0,-22.0,-3.31,1.67,0.02,0.0,1.11901742613777,3.555080871091402,0.13422452568785692,0.35,0,0,0.0
4.481841904000248,243,189.3,98.1,4.1,-17.5,1.61,3.2,-0.52,0.12,1.04,-0.28,-44.8,-62.4,-25.0,-3.29,1.74,-0.03,0.0,1.0836973747315253,3.6197375595476537,0.09692638479597981,0.35,0,0,0.0
4.490263702000448,244,189.31,98.2,4.1,-17.8,1.68,3.27,-0.42,0.1,1.01,-0.28,-45.4,-67.3,-36.0,-3.27,1.86,0.06,0.0,1.052853266129711,3.7002297225983143,0.06476063067028215,0.35,0,0,0.0
4.501743828999679,245,189.32,98.4,4.1,-18.2,1.76,3.36,-0.45,0.08,1.0,-0.27,-46.1,-69.4,-20.0,-3.25,1.89,-0.28,0.0,1.0388936422945325,3.819646580509773,0.04978498669840159,0.35,0,0,0.0
4.510159449999264,246,189.33,98.6,4.1,-18.5,1.84,3.46,-0.47,0.06,1.04,-0.24,-46.8,-70.2,-13.0,-3.23,1.92,-0.03,0.0,1.0690182411914215,3.9469101839286895,0.07831139388338482,0.35,0,0,0.0
4.522026344000551,247,189.34,98.8,4.1,-18.8,1.91,3.44,-0.35,0.04,1.12,-0.19,-47.6,-72.5,-27.0,-3.22,2.02,-0.03,0.0,1.1367057666784313,3.950215184012132,0.14307894098298668,0.35,0,0,0.0
4.530240783999034,248,189.35,99.0,4.1,-19.2,1.85,3.19,0.0,0.02,1.22,-0.15,-48.3,-76.7,-29.0,-3.19,2.1,-0.03,0.0,1.2293494214420895,3.6876279638813894,0.23100814383171198,0.35,0,0,0.0
4.5419043010006135,249,189.36,99.1,4.1,-19.5,1.55,2.87,0.38,0.02,1.27,-0.14,-49.1,-76.2,0.0,-3.17,2.05,-0.06,0.0,1.2778497564267874,3.283869668546546,0.27391830924008165,0.35,0,0,0.0
4.550130449999415,250,189.37,99.2,4.2,-19.7,1.28,2.67,0.81,0.01,1.33,-0.13,-49.8,-73.9,22.0,-3.15,1.96,-0.05,0.0,1.3363756956784272,3.06975569060471,0.32579536352188687,0.35,0,0,0.0
4.562074686000415,251,189.38,99.3,4.3,-20.0,0.89,2.45,1.3,0.0,1.34,-0.1,-50.5,-70.4,32.0,-3.13,1.84,0.14,0.0,1.343726162579266,2.91283367187349,0.3264829138142713,0.35,0,0,0.0
4.570181045999561,252,189.39,99.3,4.5,-20.2,0.37,2.08,1.7,-0.02,1.29,-0.09,-51.2,-63.1,72.0,-3.12,1.57,-0.08,0.0,1.293290377293514,2.7116968857156585,0.27052618595794886,0.35,0,0,0.0
4.581862683000509,253,189.4,99.3,4.7,-20.3,-0.1,1.82,1.92,0.0,1.2,-0.11,-51.7,-49.6,125.0,-3.1,1.15,-0.06,0.0,1.2050311199301036,2.647413832403238,0.17862159002264755,0.35,0,0,0.0
4.590064317999349,254,189.41,99.2,4.9,-20.5,-0.44,1.65,1.82,0.06,1.06,-0.12,-52.1,-33.7,161.0,-3.1,0.66,-0.07,0.0,1.0684568311354465,2.495696295625732,0.041206355203430745,0.35,0,0,0.0
4.601891649999743,255,189.42,99.2,5.1,-20.6,-0.46,1.65,1.5,0.15,0.96,-0.13,-52.3,-12.5,190.0,-3.09,0.11,-0.02,0.0,0.9803060746521975,2.2768618754768593,0.046005513254221975,0.35,0,0,0.0
4.610260265999386,256,189.43,99.1,5.3,-20.8,-0.16,1.89,1.04,0.22,0.89,-0.14,-52.3,3.5,140.0,-3.1,-0.19,0.0,0.0,0.9274157643689264,2.1631689716709603,0.0969179070667433,0.35,0,0,0.0
4.621675168998991,257,189.44,99.1,5.4,-21.0,0.36,2.25,0.55,0.28,0.86,-0.13,-52.2,10.1,96.0,-3.1,-0.38,-0.07,0.0,0.9137286249209883,2.3440563133167256,0.10839294558438783,0.35,0,0,0.0
4.630207637999774,258,189.45,99.1,5.5,-21.2,0.9,2.63,0.13,0.31,0.88,-0.12,-52.1,19.6,88.0,-3.1,-0.61,0.02,0.0,0.9406912352095134,2.7827684057427415,0.0798017285899455,0.35,0,0,0.0
4.641970610999124,259,189.46,99.2,5.5,-21.5,1.28,3.06,-0.2,0.3,0.9,-0.12,-51.8,26.5,82.0,-3.11,-0.83,-0.11,0.0,0.9562426470305536,3.322950496170534,0.06296531043352704,0.35,0,0,0.0
4.650213062999683,260,189.47,99.3,5.6,-21.8,1.49,3.4,-0.48,0.25,0.95,-0.1,-51.5,39.1,127.0,-3.12,-1.26,0.13,0.0,0.9874208829065749,3.743060245307307,0.031151333066355535,0.35,0,0,0.0
4.662266752000505,261,189.48,99.4,5.6,-22.2,1.37,3.66,-0.64,0.19,0.99,-0.09,-51.0,55.5,152.0,-3.14,-1.71,-0.13,0.0,1.0120770721639731,3.960063130809912,0.006365240932778127,0.35,0,0,0.0
4.670070076999764,262,189.49,99.5,5.6,-22.6,1.11,3.93,-0.74,0.13,0.99,-0.08,-50.3,73.4,177.0,-3.16,-2.23,0.11,0.0,1.0016985574512924,4.150253004336,0.01640888053254974,0.35,0,0,0.0
4.681949701000121,263,189.5,99.5,5.6,-23.0,0.68,4.23,-0.74,0.08,0.99,-0.07,-49.4,93.7,195.0,-3.19,-2.79,-0.85,0.0,0.9956907150315303,4.347746542750624,0.021968388493265656,0.35,0,0,0.0
4.690257414000371,264,189.51,99.5,5.6,-23.5,0.22,4.56,-0.69,0.03,0.94,-0.03,-48.3,115.9,221.0,-3.22,-3.44,-0.21,0.0,0.9409569596958194,4.617152802323094,0.07516810095239701,0.35,0,0,0.0
4.701850019999256,265,189.52,99.4,5.6,-23.9,0.01,4.78,-0.61,0.01,0.89,0.0,-47.0,139.0,224.0,-3.26,-4.06,0.05,0.0,0.8900561780022652,4.818775778141166,0.12354750499303224,0.35,0,0,0.0
4.710215117000189,266,189.53,99.4,5.6,-24.4,0.01,4.89,-0.49,0.0,0.86,0.02,-45.5,162.8,236.0,-3.3,-4.72,-0.04,0.0,0.8602325267042626,4.914498957167455,0.15030373316521406,0.35,0,0,0.0
4.721636944999773,267,189.54,99.4,5.6,-24.9,0.11,5.0,-0.3,0.0,0.85,0.03,-43.7,187.2,241.0,-3.35,-5.38,0.0,0.0,0.8505292469985967,5.010199596822466,0.1568068726134625,0.35,0,0,0.0
4.730078308999509,268,189.55,99.3,5.7,-25.4,0.25,5.1,-0.17,0.0,0.84,0.03,-41.6,210.6,232.0,-3.41,-6.0,-0.25,0.0,0.840535543567314,5.108952925991782,0.16346456452385028,0.35,0,0,0.0
4.741817149999406,269,189.56,99.3,5.8,-25.9,0.45,5.13,-0.09,0.0,0.87,0.04,-39.4,234.0,236.0,-3.48,-6.65,-0.09,0.0,0.8709190547921202,5.150485414016819,0.13041943223306318,0.35,0,0,0.0
4.7502110459990945,270,189.57,99.3,5.8,-26.4,0.62,5.02,-0.01,-0.01,0.92,0.03,-36.9,257.7,239.0,-3.55,-7.31,0.05,0.0,0.9205433178292046,5.058151836392418,0.07917926581205914,0.35,0,0,0.0
4.761842027999592,271,189.58,99.3,5.9,-26.9,0.75,4.71,0.08,-0.03,0.97,0.04,-34.1,282.2,236.0,-3.62,-7.94,0.06,0.0,0.9712878049270464,4.770010482168776,0.027866083139933107,0.35,0,0,0.0
4.770201678000376,272,189.59,99.4,6.0,-27.4,0.72,4.21,0.14,-0.04,0.99,0.03,-31.1,301.8,200.0,-3.71,-8.43,-0.01,0.0,0.9912618221237011,4.273417835877976,0.0077342246244128665,0.35,0,0,0.0
4.781726646000607,273,189.6,99.4,6.1,-27.7,0.67,3.64,0.06,-0.04,1.01,0.01,-28.0,322.0,218.0,-3.8,-9.06,-0.06,0.0,1.0108412338245805,3.7016347739883795,0.011608283334937242,0.35,0,0,0.0
4.790053310000076,274,189.61,99.4,6.1,-28.1,0.64,3.04,-0.04,-0.03,1.01,0.0,-24.6,347.4,239.0,-3.89,-9.73,-0.2,0.0,1.0104454463255301,3.1068955566610215,0.010988245919169137,0.35,0,0,0.0
4.801547159999245,275,189.62,99.5,6.2,-28.4,0.76,2.56,-0.29,-0.02,1.0,-0.04,-21.0,367.6,198.0,-3.99,-10.21,0.0,0.0,1.000999500499376,2.686131046691505,0.001511454091154607,0.35,0,0,0.0
4.809820614000273,276,189.63,99.5,6.2,-28.6,1.31,2.22,-0.71,-0.02,0.98,-0.08,-17.2,391.1,261.0,-4.1,-11.03,0.0,0.0,0.9834632682515396,2.6736865934510727,0.015704282593548058,0.35,0,0,0.0
4.821723110000676,277,189.64,99.7,6.1,-28.8,1.74,1.87,-1.1,-0.01,1.0,-0.1,-13.5,417.9,255.0,-4.21,-11.65,0.1,0.0,1.0050373127401788,2.781096905898822,0.005752366657189367,0.35,0,0,0.0
4.83020134599974,278,189.65,99.8,6.0,-29.0,1.77,1.6,-1.37,0.0,1.03,-0.12,-9.1,437.2,215.0,-4.34,-12.19,-0.11,0.0,1.0369667304209909,2.751326952581245,0.03692814865124139,0.35,0,0,0.0
4.8417591209999955,279,189.66,100.0,5.8,-29.2,1.56,1.41,-1.51,0.02,1.02,-0.14,-4.6,458.4,202.0,-4.46,-12.64,-0.04,0.0,1.0297572529484802,2.5887834980932647,0.029124297755156014,0.35,0,0,0.0
4.850158396000552,280,189.67,100.1,5.7,-29.4,1.5,1.33,-1.58,0.05,0.99,-0.17,0.0,474.7,189.0,-4.59,-13.16,0.14,0.0,1.0057335631269346,2.552508570014996,0.00499859577493833,0.35,0,0,0.0
4.861808764999296,281,189.68,100.2,5.5,-29.5,1.76,1.36,-1.66,0.06,0.97,-0.19,4.8,478.1,-63.0,-4.72,-12.32,0.51,0.0,0.9902524930541705,2.7753918642238613,0.010272824811869308,0.35,0,0,0.0
4.870216347999303,282,189.69,100.4,5.4,-29.7,1.91,1.4,-1.7,0.06,0.98,-0.19,9.3,436.1,-242.0,-4.84,-11.55,0.02,0.0,1.0000499987500624,2.9151500818997294,0.0004658127336578666,0.35,0,0,0.0
4.881742072999259,283,189.7,100.6,5.2,-29.8,1.84,1.39,-1.7,0.07,0.99,-0.2,13.5,411.2,-298.0,-4.95,-10.53,0.02,0.0,1.0124228365658292,2.864908375498246,0.011668884580466665,0.35,0,0,0.0
4.890233530999467,284,189.71,100.8,5.0,-30.0,1.68,1.4,-1.71,0.05,0.99,-0.2,17.3,374.0,-284.0,-5.05,-9.84,0.1,0.0,1.011236866416568,2.776058356735319,0.010273256142581344,0.35,0,0,0.0
4.9016339179997885,285,189.72,100.9,4.9,-30.2,1.29,1.33,-1.69,0.04,1.01,-0.21,20.7,315.1,-793.0,-5.12,-6.57,0.53,0.0,1.0323759005323594,2.5078078076280086,0.03078404445320526,0.35,0,0,0.0
4.910034032000112,286,189.73,101.0,4.7,-30.3,1.08,1.29,-1.74,0.03,1.01,-0.21,22.9,175.6,-1231.0,-5.16,-2.52,0.44,0.0,1.0320368210485515,2.4203512141835946,0.029836065670009404,0.35,0,0,0.0
4.921584768000685,287,189.74,101.1,4.5,-30.5,0.56,1.21,-1.65,0.01,1.03,-0.21,23.7,37.0,-1226.0,-5.16,0.5,0.18,0.0,1.0512373661547614,2.1213674834879503,0.04805587856069482,0.35,0,0,0.0
4.930114527000114,288,189.75,101.1,4.4,-30.7,0.03,1.24,-1.56,0.0,1.0,-0.21,23.5,-30.9,-613.0,-5.15,0.86,0.21,0.0,1.0218121158021176,1.993012794740666,0.01825801564389007,0.35,0,0,0.0
4.9417970680005965,289,189.76,101.1,4.2,-30.8,-0.29,1.26,-1.44,-0.03,1.0,-0.2,23.2,-23.7,-91.0,-5.15,0.27,-0.13,0.0,1.0202450685987166,1.9352777578425275,0.016357149071679178,0.35,0,0,0.0
4.950266227000611,290,189.77,101.1,4.0,-31.0,-0.37,1.21,-1.37,-0.04,0.97,-0.19,23.2,0.0,106.0,-5.15,-0.22,0.09,0.0,0.9892421341612982,1.8649128665972574,0.014352869658424305,0.35,0,0,0.0
4.96185395700013,291,189.78,101.0,3.8,-31.1,-0.45,1.13,-1.36,-0.04,0.96,-0.19,23.2,7.1,31.0,-5.15,-0.12,0.17,0.0,0.979438614717635,1.8245547402037572,0.023673261320045658,0.35,0,0,0.0
4.970259077999799,292,189.79,101.0,3.6,-31.2,-0.66,1.03,-1.3,-0.04,0.96,-0.19,23.3,1.4,-32.0,-5.15,0.03,0.3,0.0,0.979438614717635,1.7850770291502829,0.023199796093644753,0.35,0,0,0.0
4.981750766999539,293,189.8,100.9,3.5,-31.3,-1.07,0.92,-1.19,-0.03,0.95,-0.18,23.2,-2.5,-20.0,-5.15,0.06,0.02,0.0,0.9673675619949224,1.8459144075498193,0.03456543184003025,0.35,0,0,0.0
4.990218950999406,294,189.81,100.7,3.3,-31.5,-1.32,0.85,-1.09,-0.03,0.93,-0.19,23.2,-0.7,15.0,-5.15,-0.03,0.11,0.0,0.9496841580230767,1.91128229207514,0.051203859095638404,0.35,0,0,0.0
5.001696539999102,295,189.82,100.6,3.2,-31.6,-1.47,0.74,-0.97,-0.03,0.93,-0.19,23.2,1.8,7.0,-5.15,-0.04,0.04,0.0,0.9496841580230767,1.9103402838238008,0.05017978191372563,0.35,0,0,0.0
5.010240921999866,296,189.83,100.5,3.1,-31.6,-1.52,0.63,-0.81,-0.03,0.92,-0.19,23.3,0.0,-14.0,-5.15,0.03,-0.12,0.0,0.9398936110007345,1.833957469517764,0.05877092235734649,0.35,0,0,0.0
5.021715704999224,297,189.84,100.3,2.9,-31.7,-1.41,0.47,-0.67,-0.03,0.92,-0.18,23.2,-1.3,-3.0,-5.15,0.01,0.26,0.0,0.9379232377972091,1.6303067196083072,0.05952646964965447,0.35,0,0,0.0
5.030141582999931,298,189.85,100.2,2.8,-31.7,-1.26,0.3,-0.48,-0.02,0.94,-0.19,23.2,0.2,8.0,-5.15,-0.03,-0.01,0.0,0.959218431849597,1.3813037319865606,0.03746665008532124,0.35,0,0,0.0
5.041872452999087,299,189.86,100.1,2.8,-31.8,-1.26,0.17,-0.3,-0.02,0.95,-0.21,23.2,1.1,3.0,-5.15,-0.01,0.02,0.0,0.973139250056229,1.306330739131557,0.02307491524111538,0.35,0,0,0.0
5.050237411000126,300,189.87,100.0,2.7,-31.8,-1.31,0.08,-0.15,-0.02,0.95,-0.22,23.2,-1.2,-16.0,-5.15,0.06,0.0,0.0,0.9753460924205315,1.3209844813622906,0.02045071141927668,0.35,0,0,0.0
5.061698875999355,301,189.88,99.9,2.7,-31.8,-1.4,0.0,0.0,-0.03,0.95,-0.22,23.2,-0.2,14.0,-5.15,-0.03,0.08,0.0,0.975602378020882,1.4,0.01979053730254765,0.35,0,0,0.0
5.070221603999016,302,189.89,99.7,2.7,-31.8,-1.43,-0.14,0.17,-0.03,0.95,-0.22,23.2,0.9,1.0,-5.15,0.02,-0.01,0.0,0.975602378020882,1.4468586662144993,0.019394726556496655,0.35,0,0,0.0
5.081727480999689,303,189.9,99.6,2.7,-31.8,-1.37,-0.31,0.34,-0.02,0.94,-0.22,23.2,-0.9,-5.0,-5.15,0.0,0.08,0.0,0.9656086163658648,1.4451989482420753,0.028800718447283602,0.35,0,0,0.0
5.090224822999517,304,189.91,99.5,2.8,-31.7,-1.21,-0.44,0.51,-0.02,0.95,-0.23,23.2,0.5,11.0,-5.15,-0.03,-0.12,0.0,0.9776502442080194,1.3848465618977432,0.016423908793026465,0.35,0,0,0.0
5.101749585999642,305,189.92,99.3,2.8,-31.7,-1.04,-0.55,0.69,-0.01,0.95,-0.23,23.2,0.0,-2.0,-5.15,0.01,0.14,0.0,0.9774968030638259,1.363891491285139,0.01624580293847555,0.35,0,0,0.0
5.110204422000606,306,189.93,99.3,2.9,-31.6,-1.05,-0.68,0.87,-0.01,0.96,-0.22,23.2,-0.7,-5.0,-5.15,0.03,-0.06,0.0,0.9849365461794988,1.523745385554949,0.008629938626346645,0.35,0,0,0.0
5.1216995300001145,307,189.94,99.2,2.9,-31.5,-1.07,-0.88,1.0,0.0,0.94,-0.22,23.2,0.0,11.0,-5.15,-0.03,0.26,0.0,0.9654014708917735,1.7085959147791498,0.027601713635790448,0.35,0,0,0.0
5.130145728999196,308,189.95,99.1,3.0,-31.4,-1.02,-1.05,1.05,0.0,0.94,-0.22,23.2,0.8,-5.0,-5.15,0.03,0.11,0.0,0.9654014708917735,1.8014993755202915,0.027049679363074675,0.35,0,0,0.0
5.141913105999265,309,189.96,99.1,3.0,-31.2,-1.08,-1.22,1.12,0.02,0.94,-0.23,23.2,-1.1,0.0,-5.15,0.01,0.02,0.0,0.9679359482941007,1.9771696942852428,0.024024897921532617,0.35,0,0,0.0
5.150215183999535,310,189.97,99.0,3.1,-31.1,-1.16,-1.28,1.12,0.03,0.93,-0.24,23.2,-0.1,-1.0,-5.15,0.01,0.02,0.0,0.9609370426828181,2.0587374771932434,0.030403327462158902,0.35,0,0,0.0
5.161740716999702,311,189.98,99.0,3.2,-30.9,-1.16,-1.29,1.0,0.03,0.9,-0.26,23.2,-2.5,-21.0,-5.15,0.12,0.02,0.0,0.9372833082905083,2.0024235316236174,0.052975920617379324,0.35,0,0,0.0
5.169996861999607,312,189.99,98.9,3.3,-30.8,-1.03,-1.17,0.82,0.05,0.9,-0.26,23.2,-4.6,-12.0,-5.15,0.12,-0.06,0.0,0.9381364506296512,1.7613063333787227,0.05108032271267171,0.35,0,0,0.0
5.181751714000711,313,190.0,98.9,3.3,-30.7,-0.93,-1.0,0.72,0.07,0.92,-0.26,23.1,-5.6,-20.0,-5.15,0.18,0.01,0.0,0.9585927185202274,1.5437940277122464,0.03001157372565355,0.35,0,0,0.0
5.1902103970005555,314,190.01,98.9,3.4,-30.6,-1.03,-0.85,0.73,0.07,0.93,-0.25,23.0,-7.9,-18.0,-5.15,0.22,-0.05,0.0,0.9655568341635826,1.5219395520190675,0.022586508920652393,0.35,0,0,0.0
5.201963703000729,315,190.02,98.8,3.5,-30.5,-1.13,-0.75,0.8,0.06,0.93,-0.25,22.9,-11.8,-50.0,-5.14,0.42,0.0,0.0,0.9648834126463156,1.574611063088279,0.02279473182916103,0.35,0,0,0.0
5.21034127799976,316,190.03,98.8,3.5,-30.4,-0.98,-0.69,0.83,0.05,0.9,-0.26,22.8,-18.8,-52.0,-5.14,0.56,-0.02,0.0,0.9381364506296512,1.4578751661236293,0.048550859968908844,0.35,0,0,0.0
5.221838662000664,317,190.04,98.7,3.6,-30.3,-0.62,-0.58,0.8,0.04,0.9,-0.27,22.5,-24.1,-58.0,-5.13,0.74,-0.01,0.0,0.9404786015641186,1.166533325713415,0.04528453485375272,0.35,0,0,0.0
5.230250239999805,318,190.05,98.7,3.7,-30.2,-0.28,-0.51,0.75,0.03,0.9,-0.27,22.3,-29.1,-34.0,-5.12,0.79,-0.04,0.0,0.9401063769595439,0.9492101980067429,0.04474362426916079,0.35,0,0,0.0
5.241775342999972,319,190.06,98.7,3.7,-30.2,-0.1,-0.46,0.76,0.03,0.92,-0.27,22.0,-25.1,27.0,-5.11,0.61,0.09,0.0,0.9592705562040357,0.8939798655450804,0.025067856124175614,0.35,0,0,0.0
5.250230253999689,320,190.07,98.7,3.8,-30.1,-0.06,-0.48,0.84,0.02,0.93,-0.27,21.8,-16.8,74.0,-5.11,0.32,0.05,0.0,0.968607247546703,0.9693296652842107,0.015416541485878121,0.35,0,0,0.0
5.261716749999323,321,190.08,98.7,3.9,-30.1,0.0,-0.57,0.93,0.0,0.92,-0.28,21.7,-3.4,118.0,-5.11,-0.06,0.14,0.0,0.9616652224137047,1.0907795377618705,0.02191139528649899,0.35,0,0,0.0
5.270093343999179,322,190.09,98.7,4.0,-30.0,0.14,-0.74,0.98,-0.01,0.92,-0.28,21.8,4.7,48.0,-5.11,-0.06,0.14,0.0,0.9617172141539321,1.23596116443843,0.021422215475346174,0.35,0,0,0.0
5.28233949999958,323,190.1,98.7,4.1,-29.9,0.26,-0.94,1.03,-0.01,0.92,-0.27,21.8,-2.4,-16.0,-5.11,0.06,-0.24,0.0,0.9588534820294495,1.4184851074297538,0.023800228647832156,0.35,0,0,0.0
5.2902420989994425,324,190.11,98.7,4.2,-29.8,0.2,-1.14,1.1,-0.03,0.92,-0.27,21.7,1.0,23.0,-5.11,-0.05,-0.09,0.0,0.9592705562040357,1.5967466924969658,0.022915491383781128,0.35,0,0,0.0
5.301740904000326,325,190.12,98.8,4.3,-29.6,0.19,-1.4,1.16,-0.06,0.91,-0.25,21.8,-0.9,-14.0,-5.11,0.04,-0.08,0.0,0.9456214887575262,1.8280317283898546,0.035833267653684775,0.35,0,0,0.0
5.310261360000368,326,190.13,98.8,4.4,-29.4,0.24,-1.77,1.23,-0.08,0.89,-0.25,21.7,0.4,10.0,-5.11,-0.03,0.14,0.0,0.9279008567729636,2.1687323486313383,0.05248282164548235,0.35,0,0,0.0
5.321661788000711,327,190.14,98.9,4.4,-29.2,0.29,-2.1,1.29,-0.09,0.87,-0.27,21.8,-0.1,-1.0,-5.11,0.01,0.06,0.0,0.9153687781435415,2.4815720823703673,0.0637146022694064,0.35,0,0,0.0
5.330214404999424,328,190.15,98.9,4.5,-29.0,0.35,-2.39,1.35,-0.09,0.85,-0.3,21.7,-0.6,-6.0,-5.11,0.03,0.06,0.0,0.905869747811461,2.7671465447279804,0.07174935994945708,0.35,0,0,0.0
5.341750875999423,329,190.16,99.0,4.6,-28.7,0.55,-2.57,1.41,-0.09,0.83,-0.29,21.7,-1.2,-4.0,-5.11,0.03,0.13,0.0,0.8837986195961158,2.982532480963116,0.0919440784015062,0.35,0,0,0.0
5.350086680999084,330,190.17,99.1,4.7,-28.4,0.95,-2.87,1.25,-0.1,0.82,-0.27,21.7,-2.5,-20.0,-5.11,0.12,0.21,0.0,0.8690799733051038,3.271375857341984,0.10452947019866787,0.35,0,0,0.0
5.361891337999623,331,190.18,99.3,4.8,-28.1,2.06,-2.88,0.61,0.0,0.9,-0.32,21.7,-8.0,-59.0,-5.11,0.37,0.05,0.0,0.9551963149007643,3.5930627603758887,0.018044866030947238,0.35,0,0,0.0
5.370364730999427,332,190.19,99.5,4.7,-27.8,2.33,-2.57,-0.18,0.09,1.05,-0.33,21.5,-20.4,-108.0,-5.1,0.73,0.01,0.0,1.1043097391583576,3.473643620177522,0.12844718706211322,0.35,0,0,0.0
5.3818622899998445,333,190.2,99.7,4.7,-27.6,1.37,-2.17,-0.77,0.13,1.14,-0.32,21.2,-26.6,-30.0,-5.09,0.65,0.08,0.0,1.1911758896149636,2.679309612568133,0.2110070707683448,0.35,0,0,0.0
5.390210449000733,334,190.21,99.8,4.5,-27.4,0.1,-2.06,-1.04,0.16,1.13,-0.32,21.0,-21.5,21.0,-5.09,0.51,-0.2,0.0,1.1852847759083045,2.309805186590419,0.20101363792045202,0.35,0,0,0.0
5.401678771000661,335,190.22,99.8,4.4,-27.2,-0.3,-1.75,-1.07,0.18,1.07,-0.33,20.8,-15.7,57.0,-5.08,0.28,-0.11,0.0,1.1341075786714416,2.0730171248689673,0.1468397118699174,0.35,0,0,0.0
5.410311395000463,336,190.23,99.8,4.3,-27.1,0.24,-1.26,-1.05,0.24,1.04,-0.29,20.7,-11.2,12.0,-5.08,0.37,-0.1,0.0,1.1060289327137878,1.6576187740249566,0.11638584459401824,0.35,0,0,0.0
5.421921254999688,337,190.24,99.9,4.1,-27.0,0.9,-0.65,-1.17,0.31,1.07,-0.26,20.6,-13.2,15.0,-5.08,0.28,-0.21,0.0,1.1439405578962571,1.6128856128070583,0.15121152038095786,0.35,0,0,0.0
5.430221017999429,338,190.25,100.0,4.0,-27.0,1.24,0.09,-1.54,0.28,1.12,-0.2,20.5,-5.9,72.0,-5.08,-0.02,-0.14,0.0,1.1716654812701448,1.9792170169034016,0.1753577148797486,0.35,0,0,0.0
5.441976600999624,339,190.26,100.2,3.8,-27.1,1.7,0.58,-2.44,0.3,1.16,-0.18,20.5,2.5,45.0,-5.08,-0.05,-0.05,0.0,1.2116104984688767,3.0298514815086235,0.21099667743691097,0.35,0,0,0.0
5.45012905799922,340,190.27,100.4,3.5,-27.3,2.36,1.15,-3.42,0.4,1.31,-0.24,20.5,0.2,-5.0,-5.08,0.06,-0.22,0.0,1.3905754204644925,4.311438275100317,0.3821623674438761,0.35,0,1,0.0
5.462068520000685,341,190.28,100.6,3.2,-27.5,1.95,1.71,-3.63,0.31,1.38,-0.27,20.5,-1.4,6.0,-5.08,0.0,-0.14,0.0,1.4399305538809848,4.461333881251211,0.4228871508431611,0.35,0,1,0.0
5.470263014000011,342,190.29,100.7,2.9,-27.7,1.11,1.87,-3.46,0.1,1.31,-0.27,20.5,1.4,18.0,-5.08,-0.07,0.17,0.0,1.341268056728408,4.0866367589987735,0.3177401606167727,0.35,0,1,0.0
5.48182556699976,343,190.3,100.7,2.6,-28.0,0.03,1.91,-2.49,-0.12,1.3,-0.17,20.5,0.5,-18.0,-5.08,0.05,0.1,0.0,1.3165485179058158,3.1383275800973998,0.2871602093582968,0.35,0,1,0.0
5.490229009999894,344,190.31,100.7,2.5,-28.2,-0.61,1.36,-1.23,-0.34,1.23,-0.05,20.5,-2.2,-13.0,-5.08,0.07,-0.06,0.0,1.277106103657797,1.9325113195011305,0.24276343920807242,0.35,0,1,0.0
5.501766047000274,345,190.32,100.6,2.4,-28.2,-0.35,0.11,-0.21,-0.46,1.15,0.09,20.5,-3.6,-23.0,-5.08,0.16,0.02,0.0,1.2418534535121284,0.42272922775696503,0.20336057328115564,0.35,0,1,0.0
5.510247328000332,346,190.33,100.7,2.4,-28.2,0.4,-1.46,0.23,-0.46,1.2,0.19,20.4,-8.9,-49.0,-5.07,0.36,0.0,0.0,1.299115083431795,1.5311760186209815,0.25540975913680586,0.35,0,1,0.0
5.521888715000387,347,190.34,100.7,2.4,-27.9,-0.36,-2.7,0.66,-0.3,1.3,0.15,20.2,-18.8,-106.0,-5.07,0.74,0.13,0.0,1.3425721582097554,2.8027129713903993,0.29288949723647084,0.35,0,1,0.0
5.530184365999958,348,190.35,100.6,2.5,-27.6,-1.52,-3.35,0.75,-0.1,1.25,0.08,20.0,-33.2,-124.0,-5.06,1.09,0.06,0.0,1.2565428763078481,3.7543841039510064,0.20272301102787238,0.35,0,1,0.0
5.54166336399976,349,190.36,100.4,2.5,-27.3,-2.55,-3.82,0.81,0.12,1.2,0.07,19.5,-45.7,-123.0,-5.04,1.44,0.04,0.0,1.2080149005703529,4.663796736565606,0.1511111345845697,0.35,0,1,0.0
5.5502184350007155,350,190.37,100.1,2.5,-26.9,-3.21,-3.91,0.84,0.28,1.12,0.03,19.0,-56.9,-101.0,-5.03,1.65,0.07,0.0,1.1548592987892508,5.128138063664043,0.09599642214739834,0.35,0,1,0.0
5.561708074999842,351,190.38,100.1,2.5,-26.9,-3.21,-3.91,0.84,0.28,1.12,0.03,18.4,-62.7,-75.0,-5.01,1.8,0.06,0.0,1.1548592987892508,5.128138063664043,0.09407649370445048,0.35,0,1,0.0
5.570305126999301,352,190.39,99.8,2.5,-26.5,-3.77,-3.63,0.85,0.33,1.01,0.01,17.7,-72.2,-93.0,-4.99,2.08,0.07,0.0,1.062591172558854,5.302103356216286,0.001772200124572576,0.35,0,1,0.0
5.58188663600049,353,190.4,99.4,2.5,-26.1,-4.12,-3.3,0.79,0.3,0.91,0.07,16.9,-72.8,18.0,-4.97,1.82,0.03,0.0,0.960728889958036,5.33746194365824,0.0980882808267205,0.35,0,1,0.0
5.59022196099977,354,190.41,99.0,2.5,-25.8,-3.85,-3.32,0.58,0.21,0.77,0.13,16.3,-57.8,101.0,-4.96,1.41,0.09,0.0,0.8086408349817612,5.1167665571139755,0.24517280908693528,0.35,0,1,0.0
5.601755076999325,355,190.42,98.7,2.5,-25.4,-3.39,-3.51,0.35,0.12,0.72,0.09,15.8,-45.9,98.0,-4.94,1.15,-0.04,0.0,0.7354590403278757,4.892310292694035,0.31198751166600436,0.35,0,1,0.0
5.610045049999826,356,190.43,98.4,2.5,-25.1,-3.06,-3.42,0.25,0.05,0.73,0.05,15.4,-39.7,60.0,-4.93,1.04,-0.07,0.0,0.733416661932356,4.595922105519196,0.30774929226029346,0.35,0,1,0.0
5.622106766999423,357,190.44,98.1,2.5,-24.7,-2.41,-3.25,0.15,0.01,0.72,0.01,15.0,-38.8,5.0,-4.92,1.12,0.06,0.0,0.7201388754955532,4.048839339860252,0.31460653712315423,0.35,0,1,0.0
5.630189411000174,358,190.45,97.9,2.4,-24.4,-1.27,-3.03,0.01,0.03,0.76,-0.02,14.6,-47.7,-91.0,-4.91,1.54,-0.02,0.0,0.7608547824650903,3.2854071285002107,0.2684128175505448,0.35,0,1,0.0
5.641659365999658,359,190.46,97.8,2.4,-24.2,-0.64,-2.78,-0.06,0.08,0.85,-0.05,13.9,-73.6,-231.0,-4.89,2.38,0.11,0.0,0.8552192701290119,2.8533489096148053,0.17056736328889077,0.35,0,1,0.0
5.650232244999643,360,190.47,97.7,2.4,-23.9,-0.52,-2.45,-0.1,0.13,0.93,-0.07,13.0,-107.4,-309.0,-4.86,3.36,0.22,0.0,0.9416474924301557,2.5065713634365174,0.08245635816799202,0.35,0,1,0.0
5.661733282999194,361,190.48,97.7,2.3,-23.7,-0.73,-2.03,0.0,0.17,1.01,-0.08,11.7,-143.0,-328.0,-4.82,4.28,0.0,0.0,1.027326627709026,2.157266789249767,0.0031583215686608046,0.35,0,1,0.0
5.670257751000463,362,190.49,97.6,2.3,-23.5,-0.95,-1.54,0.24,0.19,1.04,-0.09,10.0,-174.2,-313.0,-4.77,5.11,0.19,0.0,1.061037228376083,1.8252944967867513,0.03613154379100325,0.35,0,1,0.0
5.681916747000287,363,190.5,97.5,2.4,-23.4,-0.9,-1.21,0.5,0.18,1.02,-0.08,8.1,-202.0,-271.0,-4.71,5.76,0.19,0.0,1.0388455130576442,1.588741640418605,0.013661031903113185,0.35,0,1,0.0
5.690252627999143,364,190.51,97.4,2.4,-23.2,-0.5,-1.09,0.71,0.15,1.0,-0.06,5.9,-220.7,-198.0,-4.65,6.18,0.08,0.0,1.0129659421717987,1.393628357920432,0.011974168203077618,0.35,0,1,0.0
5.701727638999728,365,190.52,97.4,2.5,-23.1,-0.23,-1.09,0.97,0.11,0.99,-0.06,3.6,-239.8,-216.0,-4.59,6.81,0.2,0.0,0.9978977903573091,1.477125587077822,0.026501473617215887,0.35,0,1,0.0
5.710216946999935,366,190.53,97.4,2.6,-23.0,0.07,-1.08,1.16,0.06,0.98,-0.07,1.0,-259.1,-165.0,-4.52,7.16,-0.13,0.0,0.9843271813782245,1.5864740779476985,0.03927064094437449,0.35,0,1,0.0
5.721809098000449,367,190.54,97.4,2.7,-22.9,0.33,-1.16,1.36,0.03,0.98,-0.08,-1.5,-271.1,-150.0,-4.44,7.56,0.21,0.0,0.983717439105356,1.8177183500201564,0.039082775552898186,0.35,0,1,0.0
5.730328445999476,368,190.55,97.4,2.8,-22.7,0.23,-1.31,1.61,0.01,0.98,-0.09,-4.4,-286.5,-127.0,-4.36,7.86,-0.06,0.0,0.9841747812253675,2.088324687398969,0.03785292476422908,0.35,0,1,0.0
5.741808262000632,369,190.56,97.4,3.0,-22.6,0.23,-1.55,1.71,0.03,0.96,-0.09,-7.3,-289.7,-42.0,-4.28,7.85,0.14,0.0,0.9646761114488116,2.3193749157908905,0.0562045626499692,0.35,0,1,0.0
5.75020328500068,370,190.57,97.4,3.1,-22.4,0.24,-1.65,1.76,0.01,0.94,-0.13,-10.1,-286.2,19.0,-4.21,7.7,-0.17,0.0,0.9489994731294639,2.4243968322038367,0.07044357694993064,0.35,0,1,0.0
5.761871581000378,371,190.58,97.5,3.2,-22.2,0.17,-1.75,1.65,0.02,0.91,-0.16,-13.0,-279.5,57.0,-4.13,7.49,0.01,0.0,0.9241753080449617,2.41120301924164,0.09336238719374412,0.35,0,1,0.0
5.7703538999994635,372,190.59,97.5,3.3,-22.0,0.14,-1.87,1.6,0.04,0.94,-0.17,-15.7,-268.1,107.0,-4.06,7.11,-0.01,0.0,0.9560857702110204,2.465055780301939,0.0602228865271317,0.35,0,1,0.0
5.781954067999322,373,190.6,97.6,3.5,-21.8,0.07,-2.03,1.56,0.05,0.94,-0.19,-18.2,-250.7,163.0,-3.99,6.57,-0.16,0.0,0.9603124491539199,2.5611325619733156,0.05487628343254758,0.35,0,1,0.0
5.790275635999933,374,190.61,97.6,3.6,-21.5,-0.03,-2.1,1.52,0.06,0.96,-0.2,-20.6,-232.8,162.0,-3.93,6.14,-0.08,0.0,0.9824459272652108,2.5925470101813004,0.03208794921483138,0.35,0,1,0.0
5.801771301999906,375,190.62,97.7,3.7,-21.3,-0.25,-2.16,1.52,0.06,0.97,-0.21,-22.9,-218.9,144.0,-3.87,5.77,-0.12,0.0,0.9942836617384397,2.6530171503403444,0.019845210446770456,0.35,0,1,0.0
5.810120566000478,376,190.63,97.7,3.8,-21.1,-0.55,-2.26,1.52,0.07,0.96,-0.19,-24.9,-201.9,175.0,-3.82,5.24,-0.07,0.0,0.9811218069128828,2.7785787734019705,0.03234692396688088,0.35,0,1,0.0
5.821636623999439,377,190.64,97.7,4.0,-20.8,-0.93,-2.36,1.48,0.08,0.93,-0.2,-26.8,-182.9,180.0,-3.77,4.74,-0.1,0.0,0.9546203433826456,2.936818005937719,0.0576714197471756,0.35,0,1,0.0
5.829494940000586,378,190.65,97.6,4.1,-20.5,-1.28,-2.44,1.38,0.1,0.89,-0.2,-28.5,-163.7,195.0,-3.72,4.18,0.05,0.0,0.9176600677810929,3.0816229490318894,0.09273906144175381,0.35,0,1,0.0
5.841560058999676,379,190.66,97.5,4.2,-20.3,-1.49,-2.4,1.2,0.12,0.84,-0.21,-30.0,-144.6,188.0,-3.68,3.7,-0.02,0.0,0.8741281370600079,3.0692181414816377,0.13354557231958208,0.35,0,1,0.0
5.850041818999671,380,190.67,97.4,4.3,-20.0,-1.6,-2.34,0.92,0.14,0.8,-0.21,-31.3,-126.7,180.0,-3.65,3.23,-0.04,0.0,0.838868285251028,2.980268444284843,0.16542931564599084,0.35,0,1,0.0
5.861922689999119,381,190.68,97.2,4.3,-19.8,-1.67,-2.26,0.64,0.16,0.78,-0.22,-32.5,-109.1,180.0,-3.62,2.74,-0.2,0.0,0.8260750571225354,2.882030534189393,0.1746580928989937,0.35,0,1,0.0
5.870242058999793,382,190.69,97.1,4.3,-19.6,-1.73,-2.03,0.36,0.18,0.77,-0.25,-33.5,-91.0,170.0,-3.6,2.28,-0.09,0.0,0.8293370846646133,2.6913565352810465,0.16796814404977745,0.35,0,1,0.0
5.8817669349991775,383,190.7,96.9,4.3,-19.4,-1.75,-1.72,0.17,0.18,0.78,-0.25,-34.3,-75.2,159.0,-3.58,1.86,0.1,0.0,0.8386298349093002,2.459634119132356,0.15550188592898873,0.35,0,1,0.0
5.890172360999713,384,190.71,96.8,4.3,-19.2,-1.57,-1.35,0.01,0.19,0.79,-0.25,-34.9,-61.8,135.0,-3.56,1.54,-0.12,0.0,0.8501176389182853,2.0706279240848655,0.1411338002816036,0.35,0,1,0.0
5.901959720000377,385,190.72,96.6,4.3,-19.1,-1.32,-1.02,-0.04,0.2,0.81,-0.24,-35.4,-49.1,129.0,-3.55,1.19,-0.2,0.0,0.8681589716175259,1.668652150689292,0.12063061823071575,0.35,0,1,0.0
5.910258755999166,386,190.73,96.5,4.3,-19.0,-1.22,-0.76,-0.08,0.2,0.82,-0.23,-35.9,-39.5,96.0,-3.54,0.98,-0.03,0.0,0.8748142660016467,1.4395832730342486,0.11169581736966305,0.35,0,1,0.0
5.921745576999456,387,190.74,96.4,4.3,-19.0,-1.22,-0.47,-0.14,0.19,0.8,-0.24,-36.2,-33.4,66.0,-3.53,0.85,-0.07,0.0,0.8565628990331067,1.3148764200486676,0.12734824065143902,0.35,0,1,0.0
5.930031990999851,388,190.75,96.3,4.3,-18.9,-1.02,-0.16,-0.31,0.17,0.77,-0.23,-36.5,-28.4,48.0,-3.52,0.74,-0.03,0.0,0.8214012417813843,1.0780074211247344,0.15925969994509814,0.35,0,1,0.0
5.941954550999071,389,190.76,96.2,4.2,-18.9,-0.63,0.12,-0.52,0.16,0.75,-0.23,-36.8,-27.4,20.0,-3.51,0.74,-0.14,0.0,0.8006247560499238,0.8256512580987205,0.1764354619630275,0.35,0,1,0.0
5.950238740000714,390,190.77,96.2,4.2,-19.0,-0.14,0.31,-0.66,0.15,0.78,-0.22,-37.1,-29.1,-26.0,-3.51,0.88,0.01,0.0,0.8241965784932621,0.7424957912338628,0.14980636672929537,0.35,0,1,0.0
5.961797350999404,391,190.78,96.2,4.1,-19.0,0.32,0.37,-0.62,0.12,0.83,-0.18,-37.4,-37.5,-68.0,-3.49,1.13,0.0,0.0,0.8577295611088613,0.789746794865291,0.11394791643142221,0.35,0,1,0.0
5.970374492000701,392,190.79,96.3,4.1,-19.1,0.81,0.23,-0.42,0.1,0.9,-0.12,-37.8,-45.4,-67.0,-3.48,1.3,0.03,0.0,0.913454979733539,0.9409569596958195,0.05705804785060975,0.35,0,1,0.0
5.981861795999066,393,190.8,96.3,4.1,-19.1,1.14,-0.15,-0.14,0.07,0.97,-0.07,-38.4,-53.4,-81.0,-3.47,1.55,0.04,0.0,0.9750384607798812,1.1583177456984763,0.004434924531817819,0.35,0,1,0.0
5.990194276999318,394,190.81,96.4,4.0,-19.0,1.07,-0.63,0.08,0.05,1.01,-0.1,-39.0,-63.2,-93.0,-3.45,1.83,0.04,0.0,1.0161692772368194,1.244266852407473,0.044654426168980854,0.35,0,1,0.0
6.001918009000292,395,190.82,96.6,4.0,-18.9,0.79,-0.99,0.2,0.04,1.02,-0.16,-39.6,-71.8,-83.0,-3.43,2.04,-0.14,0.0,1.0332473082471592,1.2822636234409834,0.060497808035734235,0.35,0,1,0.0
6.010361577000367,396,190.83,96.6,4.0,-18.8,0.27,-1.14,0.2,0.04,0.99,-0.25,-40.4,-77.8,-56.0,-3.41,2.15,0.05,0.0,1.0218610473053564,1.1884864324004711,0.04812931615205285,0.35,0,1,0.0
6.02194041400071,397,190.84,96.7,4.0,-18.7,-0.08,-1.03,-0.01,0.07,0.92,-0.32,-41.2,-79.7,-29.0,-3.39,2.18,0.02,0.0,0.976575649911465,1.0331505214633538,0.0027870403829981516,0.35,0,1,0.0
6.0302102160003415,398,190.85,96.7,4.0,-18.6,0.2,-0.7,-0.25,0.15,0.94,-0.39,-42.0,-81.2,-13.0,-3.36,2.21,0.0,0.0,1.0286884854026508,0.7697402159170326,0.05380187835670036,0.35,0,1,0.0
6.04176138999901,399,190.86,96.7,4.0,-18.6,0.97,-0.12,-0.33,0.19,0.96,-0.4,-42.8,-82.5,-11.0,-3.34,2.23,0.05,0.0,1.0572133181151286,1.0316006979447039,0.0806801768477946,0.35,0,1,0.0
6.05023542500021,400,190.87,96.9,3.9,-18.6,1.82,0.23,-0.37,0.23,0.99,-0.4,-43.7,-83.2,-11.0,-3.32,2.28,0.04,0.0,1.0922453936730518,1.8714165757521761,0.11339800735760341,0.35,0,1,0.0
6.061648118999074,401,190.88,97.1,3.9,-18.7,2.43,0.72,-0.26,0.25,1.05,-0.39,-44.5,-85.4,-20.0,-3.3,2.35,0.11,0.0,1.1476497723608887,2.5477244748991206,0.16542633832453146,0.35,0,1,0.0
6.070247039999231,402,190.89,97.3,3.9,-18.8,2.61,1.14,0.0,0.22,1.09,-0.35,-45.4,-89.2,-34.0,-3.27,2.47,0.07,0.0,1.1657615536635269,2.848104632909402,0.1798673572346262,0.35,0,1,0.0
6.081705433000025,403,190.9,97.6,3.9,-18.9,2.84,1.32,0.19,0.2,1.1,-0.33,-46.3,-91.5,-20.0,-3.25,2.51,0.04,0.0,1.1657186624567697,3.1375308763420957,0.17622797670731172,0.35,0,1,0.0
6.089880395000364,404,190.91,97.9,4.0,-19.0,3.03,1.53,0.32,0.17,1.17,-0.32,-47.2,-90.3,7.0,-3.22,2.42,-0.16,0.0,1.2248265183282079,3.4094281045360084,0.23062911592717494,0.35,0,1,0.0
6.101624675000494,405,190.92,98.2,4.1,-19.2,3.32,1.93,0.49,0.16,1.37,-0.26,-48.1,-87.1,26.0,-3.2,2.31,-0.14,0.0,1.4036025078347503,3.8713563514613325,0.40121700332504306,0.35,0,2,0.0
6.109891729000083,406,190.93,98.5,4.2,-19.4,3.68,2.24,1.24,0.1,1.67,-0.08,-48.9,-80.6,66.0,-3.18,2.06,-0.22,0.0,1.674902982264943,4.483034686459609,0.659067128200131,0.35,0,2,0.0
6.1215841169996565,407,190.94,98.9,4.4,-19.6,3.48,2.07,2.4,-0.02,1.79,-0.02,-49.7,-68.6,116.0,-3.16,1.67,0.02,0.0,1.7902234497402831,4.7069416822391155,0.7588998437619616,0.35,0,2,0.0
6.129860364000706,408,190.95,99.1,4.7,-19.7,2.19,1.68,3.22,-0.11,1.73,-0.01,-50.2,-49.9,176.0,-3.15,1.09,-0.14,0.0,1.73352242558324,4.241096556316538,0.6881548432128202,0.35,0,2,0.0
6.141703889999917,409,190.96,99.2,5.1,-19.8,-0.22,1.04,3.42,-0.07,1.48,0.0,-50.6,-26.1,226.0,-3.14,0.38,-0.1,0.0,1.4816544806398015,3.5813963757171585,0.42756116030399416,0.35,0,2,0.0
6.150013682999997,410,190.97,99.1,5.4,-19.8,-2.03,0.76,2.96,0.09,1.14,-0.06,-50.6,3.0,265.0,-3.14,-0.39,-0.05,0.0,1.1451200810395388,3.6688008940251855,0.08920622548965684,0.35,0,2,0.0
6.161853966999843,411,190.98,98.8,5.7,-19.9,-2.46,0.9,2.03,0.28,0.92,-0.05,-50.4,22.8,201.0,-3.15,-0.83,0.25,0.0,0.9629641737884126,3.313985515961106,0.09109068812624,0.35,0,2,0.0
6.1703547929992055,412,190.99,98.6,5.8,-20.0,-1.66,1.59,1.02,0.44,0.79,-0.09,-50.1,40.7,194.0,-3.16,-1.35,-0.11,0.0,0.9087353850269065,2.5147763320025103,0.14241308734999103,0.35,0,2,0.0
6.181825753999874,413,191.0,98.5,5.9,-20.2,-0.2,2.56,0.15,0.52,0.78,-0.09,-49.6,57.8,273.0,-3.18,-1.99,-0.14,0.0,0.9417536832951597,2.5721780653757236,0.10720689330010302,0.35,0,2,0.0
6.190133291000166,414,191.01,98.5,5.9,-20.5,0.83,3.66,-0.5,0.53,0.81,-0.1,-48.7,86.2,266.0,-3.21,-2.7,-0.02,0.0,0.9731392500562291,3.7860929729735906,0.07430490000825285,0.35,0,2,0.0
6.201953951000178,415,191.02,98.6,5.9,-20.9,1.61,4.73,-0.99,0.43,0.86,-0.07,-47.7,111.5,262.0,-3.24,-3.37,0.09,0.0,0.9640539403996022,5.093633280871328,0.08172240547158216,0.35,0,2,0.0
6.210353603999465,416,191.03,98.7,5.9,-21.4,1.2,5.24,-0.97,0.32,0.93,0.0,-46.4,135.6,246.0,-3.27,-3.99,-0.06,0.0,0.98351410767716,5.462462814518741,0.061016993430143995,0.35,0,2,0.0
6.2218541570000525,417,191.04,98.7,5.9,-22.0,0.71,5.44,-0.8,0.22,0.95,0.04,-44.9,160.3,230.0,-3.32,-4.6,0.01,0.0,0.9759610647971567,5.544159088626516,0.06719863558394434,0.35,0,2,0.0
6.230312835999939,418,191.05,98.7,5.9,-22.6,0.41,5.65,-0.6,0.14,0.94,0.01,-43.1,184.1,251.0,-3.37,-5.34,-0.06,0.0,0.9504209593648489,5.6965428112145355,0.09088396619592709,0.35,0,2,0.0
6.242256358000304,419,191.06,98.7,5.9,-23.1,0.22,6.0,-0.41,0.09,0.94,0.0,-41.1,208.3,245.0,-3.43,-5.98,-0.03,0.0,0.9442986815621421,6.018014622780506,0.09506611911866125,0.35,0,2,0.0
6.24996875800025,420,191.07,98.6,6.0,-23.8,-0.08,6.22,-0.22,0.05,0.92,0.04,-38.8,230.9,235.0,-3.49,-6.59,-0.21,0.0,0.9222255689363639,6.224403585886763,0.11479644710955084,0.35,0,2,0.0
6.2618979689996195,421,191.08,98.5,6.1,-24.4,-0.2,6.07,-0.15,0.02,0.9,0.07,-36.4,255.1,247.0,-3.56,-7.27,-0.02,0.0,0.9029396436085858,6.0751460887784425,0.13140072498858235,0.35,0,2,0.0
6.270226951999575,422,191.09,98.4,6.1,-25.0,-0.23,5.79,-0.22,0.01,0.89,0.06,-33.7,277.6,220.0,-3.63,-7.78,0.04,0.0,0.8920762299265685,5.798741242718113,0.1394188558971876,0.35,0,2,0.0
6.281636686000638,423,191.1,98.4,6.2,-25.5,-0.12,5.45,-0.34,0.01,0.9,0.07,-30.7,298.0,199.0,-3.72,-8.3,-0.13,0.0,0.9027735042633894,5.461913584083878,0.12614714992915943,0.35,0,2,0.0
6.2903513759993075,424,191.11,98.3,6.2,-26.1,0.05,5.03,-0.49,0.01,0.91,0.06,-27.6,319.0,225.0,-3.81,-9.0,-0.14,0.0,0.9120307012376283,5.054057775688759,0.11455215389582207,0.35,0,2,0.0
6.302072021999265,425,191.12,98.3,6.2,-26.6,0.31,4.73,-0.68,0.01,0.91,0.02,-24.2,344.4,244.0,-3.91,-9.69,0.07,0.0,0.910274683818022,4.7886741380052165,0.11398200788911983,0.35,0,2,0.0
6.310199581999768,426,191.13,98.3,6.2,-27.0,0.37,4.44,-0.91,0.0,0.9,0.0,-20.6,364.6,201.0,-4.01,-10.16,-0.13,0.0,0.9,4.547372867931549,0.12177155787299909,0.35,0,2,0.0
6.321877660999235,427,191.14,98.3,6.2,-27.5,0.6,4.17,-1.16,0.0,0.9,0.0,-16.8,389.1,270.0,-4.1,-10.95,0.04,0.0,0.9,4.36972539182956,0.11933612671553917,0.35,0,2,0.0
6.3302842159992,428,191.15,98.3,6.1,-27.9,0.65,3.84,-1.25,0.0,0.93,0.0,-12.6,419.0,248.0,-4.22,-11.61,-0.02,0.0,0.93,4.090305612053945,0.08754940418122825,0.35,0,2,0.0
6.3419039380005415,429,191.16,98.3,6.1,-28.3,0.57,3.53,-1.25,0.0,0.93,-0.02,-8.3,440.0,230.0,-4.35,-12.25,-0.35,0.0,0.9302150289046076,3.787914993766359,0.08558768777108838,0.35,0,2,0.0
6.350056319999567,430,191.17,98.3,6.0,-28.6,0.35,3.3,-1.17,0.0,0.93,-0.05,-3.8,459.7,157.0,-4.48,-12.55,0.01,0.0,0.9313431161500041,3.5187213586756196,0.08277040851517814,0.35,0,2,0.0
6.36184859199966,431,191.18,98.3,5.9,-29.0,0.38,3.2,-1.16,0.0,0.93,-0.06,0.8,470.6,117.0,-4.6,-12.84,0.03,0.0,0.9319334740205442,3.424908757908742,0.08053644963174522,0.35,0,2,0.0
6.370240296999327,432,191.19,98.3,5.8,-29.3,0.4,3.09,-1.1,0.0,0.94,-0.07,5.5,455.9,-222.0,-4.73,-11.68,0.37,0.0,0.9426027795418386,3.3042548327875685,0.06846980122824187,0.35,0,2,0.0
6.381615210000746,433,191.2,98.3,5.8,-29.6,0.58,2.9,-1.16,0.0,0.93,-0.09,9.7,412.6,-250.0,-4.84,-11.04,-0.15,0.0,0.9343446901438462,3.1767908335299633,0.07519333281370943,0.35,0,2,0.0
6.390306969999074,434,191.21,98.4,5.7,-29.9,0.9,2.76,-1.27,0.0,0.93,-0.11,13.7,394.3,-262.0,-4.94,-10.28,0.31,0.0,0.9364827814754525,3.1686748018690714,0.07159413665246117,0.35,0,2,0.0
6.402048715999626,435,191.22,98.4,5.5,-30.2,0.8,2.58,-1.29,0.0,0.97,-0.13,17.4,364.3,-252.0,-5.04,-9.62,0.26,0.0,0.9786725703727472,2.9934094273921166,0.028816260800063054,0.35,0,2,0.0
6.4100348520005355,436,191.23,98.5,5.4,-30.5,0.56,2.55,-1.25,0.0,0.98,-0.15,20.8,310.0,-654.0,-5.12,-7.17,0.22,0.0,0.9914131328563284,2.8945811441381286,0.01575418435015219,0.35,0,2,0.0
6.421747944999879,437,191.24,98.5,5.2,-30.7,0.41,2.38,-1.25,0.01,0.96,-0.16,23.2,206.9,-972.0,-5.17,-4.06,0.46,0.0,0.9732933781753578,2.7193749281774293,0.03319646025050027,0.35,0,2,0.0
6.430330814000627,438,191.25,98.5,5.1,-31.0,0.63,2.24,-1.35,0.02,0.95,-0.19,24.4,76.0,-1239.0,-5.19,-0.32,0.49,0.0,0.9690201236300513,2.690167281044062,0.03672032049989071,0.35,0,2,0.0
6.442091509999955,439,191.26,98.6,5.0,-31.2,0.6,2.15,-1.4,0.02,0.95,-0.2,24.4,-26.2,-834.0,-5.18,1.1,-0.02,0.0,0.9710303805751909,2.6348624252510793,0.03401586228365605,0.35,0,2,0.0
6.45023982299972,440,191.27,98.7,4.8,-31.4,0.52,2.11,-1.38,0.02,0.98,-0.21,24.0,-33.5,-184.0,-5.17,0.57,-0.03,0.0,1.0024470060806208,2.5742765974152815,0.0025472520426617073,0.35,0,2,0.0
6.461797261999891,441,191.28,98.7,4.7,-31.7,0.13,2.11,-1.22,0.01,1.0,-0.21,23.9,-2.7,139.0,-5.17,-0.27,-0.12,0.0,1.0218610473053564,2.4407785643109863,0.01652945339843237,0.35,0,2,0.0
6.4701706870000635,442,191.29,98.7,4.6,-31.9,-0.19,2.04,-1.04,0.0,0.99,-0.22,24.0,10.9,55.0,-5.17,-0.22,0.1,0.0,1.0141498903022177,2.297672735617499,0.008641930467387704,0.35,0,2,0.0
6.481969606000348,443,191.3,98.7,4.6,-32.1,-0.57,1.89,-0.85,-0.01,0.98,-0.23,24.0,0.2,-65.0,-5.17,0.13,-0.08,0.0,1.006677704133751,2.1493022123470675,0.001146349412942449,0.35,0,2,0.0
6.490308476999417,444,191.31,98.6,4.5,-32.3,-0.8,1.79,-0.68,-0.03,0.97,-0.24,24.0,-4.5,-12.0,-5.17,0.06,-0.06,0.0,0.9996999549864949,2.0752108326625516,0.005714771739627311,0.35,0,2,0.0
6.501849549000326,445,191.32,98.5,4.5,-32.5,-1.08,1.7,-0.48,-0.06,0.99,-0.23,24.0,1.3,31.0,-5.17,-0.08,0.1,0.0,1.0181355508968342,2.0704588863341384,0.012466407687297787,0.35,0,2,0.0
6.5100231969991,446,191.33,98.3,4.5,-32.6,-1.72,1.55,-0.23,-0.09,0.97,-0.21,24.0,1.5,-8.0,-5.17,0.0,-0.06,0.0,0.9965440281292142,2.326757400332059,0.008942612778715775,0.35,0,2,0.0
6.522313518998999,447,191.34,98.1,4.5,-32.8,-2.31,1.29,0.0,-0.11,0.93,-0.17,24.0,-1.9,-14.0,-5.17,0.05,-0.06,0.0,0.9517877914745493,2.645789107241921,0.05262487244471303,0.35,0,2,0.0
6.530192313999578,448,191.35,97.8,4.5,-32.9,-2.55,0.87,0.17,-0.13,0.89,-0.15,24.0,0.4,16.0,-5.17,-0.03,0.01,0.0,0.9118662182579197,2.6996851668296435,0.09069551674811571,0.35,0,2,0.0
6.541757736000363,449,191.36,97.6,4.5,-32.9,-2.57,0.36,0.35,-0.15,0.87,-0.14,24.0,1.0,-2.0,-5.17,0.0,0.01,0.0,0.8938679992034617,2.6185874054535585,0.10651986108652212,0.35,0,2,0.0
6.550296707000598,450,191.37,97.3,4.6,-32.9,-2.38,-0.07,0.54,-0.18,0.83,-0.14,24.0,-1.7,-19.0,-5.17,0.07,0.01,0.0,0.8607554821202128,2.441495443370722,0.13683973060637566,0.35,0,2,0.0
6.561876014000518,451,191.38,97.1,4.6,-32.9,-1.9,-0.52,0.68,-0.19,0.82,-0.13,23.9,-3.9,-26.0,-5.17,0.16,0.02,0.0,0.8517041739947033,2.0839385787493834,0.14297321795724738,0.35,0,2,0.0
6.570128384000782,452,191.39,97.0,4.7,-32.8,-1.37,-0.9,0.73,-0.19,0.84,-0.13,23.9,-10.8,-79.0,-5.17,0.47,0.11,0.0,0.870976463516667,1.7943801158060129,0.12122690986657803,0.35,0,2,0.0
6.581879220999326,453,191.4,96.9,4.8,-32.7,-1.12,-1.3,0.77,-0.16,0.85,-0.1,23.6,-30.0,-175.0,-5.16,1.11,0.1,0.0,0.8706893820416095,1.8807711184511529,0.11908371151480279,0.35,0,2,0.0
6.590120670000033,454,191.41,96.8,4.8,-32.5,-0.84,-1.73,0.79,-0.11,0.87,-0.1,23.1,-56.0,-258.0,-5.14,1.94,0.44,0.0,0.8826097665446492,2.079086337793599,0.1050200604715279,0.35,0,2,0.0
6.601798293000684,455,191.42,96.7,4.9,-32.3,-0.55,-2.05,0.58,-0.02,0.83,-0.13,22.3,-94.9,-351.0,-5.11,3.03,0.21,0.0,0.8403570669661795,2.200318158812493,0.14432730484899758,0.35,0,2,0.0
6.6102784809991135,456,191.43,96.7,4.9,-32.1,-0.03,-2.05,0.14,0.09,0.82,-0.17,21.2,-116.1,-122.0,-5.08,2.95,-0.11,0.0,0.8422588675698226,2.0549939172659366,0.13957699416044744,0.35,0,2,0.0
6.622159257000021,457,191.44,96.8,4.8,-31.9,0.19,-1.56,-0.18,0.21,0.89,-0.25,20.2,-85.9,221.0,-5.06,1.8,-0.12,0.0,0.9479978902930112,1.5818027689949212,0.03316121200851374,0.35,0,2,0.0
6.630218197999056,458,191.45,96.8,4.8,-31.8,-0.19,-0.68,-0.14,0.28,0.92,-0.32,19.7,-41.3,369.0,-5.05,0.57,-0.18,0.0,1.0135087567455943,0.7197916365171244,0.031702661355187955,0.35,0,2,0.0
6.642300997000348,459,191.46,96.7,4.8,-31.8,-0.6,0.17,0.15,0.27,0.88,-0.35,19.5,-0.7,353.0,-5.05,-0.32,-0.01,0.0,0.9847842403288143,0.641404708432983,0.0029185820396397943,0.35,0,2,0.0
6.650250550999772,460,191.47,96.7,4.9,-31.9,-0.44,0.68,0.52,0.17,0.81,-0.36,19.7,14.6,148.0,-5.06,-0.37,0.1,0.0,0.9025519375637062,0.9624967532412773,0.07772744631095896,0.35,0,2,0.0
6.661709591000545,461,191.48,96.7,4.9,-31.9,0.25,0.82,0.87,0.05,0.79,-0.33,19.7,3.6,-61.0,-5.06,0.12,0.06,0.0,0.8576129663198896,1.2213926477591062,0.12021308920368012,0.35,0,2,0.0
6.6702601659999345,462,191.49,96.8,5.0,-32.0,1.48,0.5,1.07,-0.06,0.81,-0.27,19.7,-3.9,-9.0,-5.06,0.03,0.03,0.0,0.8559205570612264,1.8934888433788037,0.11946738849309646,0.35,0,2,0.0
6.681845020000765,463,191.5,97.0,5.1,-32.0,3.06,-0.14,1.03,-0.11,0.89,-0.23,19.7,0.5,4.0,-5.06,0.0,0.03,0.0,0.9257969539807311,3.2317332810737955,0.04859917174211992,0.35,0,2,0.0
6.690252227999736,464,191.51,97.4,5.2,-31.9,4.14,-0.62,0.74,-0.13,1.02,-0.22,19.7,-3.2,-24.0,-5.05,0.12,0.06,0.0,1.05152270541344,4.251070453426995,0.0755840480967771,0.35,0,2,0.0
6.70181737799976,465,191.52,97.8,5.3,-31.8,4.17,-1.12,0.1,-0.12,1.13,-0.21,19.6,-4.4,-6.0,-5.05,0.1,0.13,0.0,1.1555950847939773,4.318946630834884,0.17606329892776817,0.35,0,2,0.0
6.710211210000125,466,191.53,98.2,5.2,-31.7,3.13,-1.74,-0.82,-0.05,1.23,-0.21,19.6,-2.8,12.0,-5.05,0.05,-0.02,0.0,1.2487994234463755,3.6738127333874817,0.263882284828563,0.35,0,2,0.0
6.722165793999011,467,191.54,98.4,5.0,-31.5,1.69,-2.19,-1.64,0.05,1.27,-0.2,19.6,-0.4,20.0,-5.05,-0.02,0.05,0.0,1.2866234880492429,3.2158669126691173,0.2956722224428018,0.35,0,2,0.0
6.730037946999801,468,191.55,98.6,4.8,-31.3,1.19,-2.56,-2.22,0.18,1.27,-0.14,19.6,0.1,4.0,-5.05,0.0,0.05,0.0,1.2903100402616419,3.591392487601432,0.29337159916209676,0.35,0,2,0.0
6.742116052000711,469,191.56,98.7,4.5,-31.1,1.35,-2.65,-2.91,0.29,1.26,-0.14,19.6,0.0,0.0,-5.05,0.0,-0.01,0.0,1.3004999038831184,4.160901344660794,0.29749023352790194,0.35,0,2,0.0
6.750078889999713,470,191.57,98.9,4.1,-30.9,1.72,-2.22,-3.81,0.37,1.32,-0.17,19.6,0.4,2.0,-5.05,0.0,-0.1,0.0,1.3813761254633006,4.733170184981732,0.37079912600592246,0.35,0,3,0.0
6.762105290999898,471,191.58,99.1,3.7,-30.8,1.6,-1.3,-4.51,0.43,1.44,-0.19,19.6,0.0,0.0,-5.05,0.0,-0.02,0.0,1.5147937153289222,4.958840590299309,0.4941323815541132,0.35,0,3,0.0
6.770113467999181,472,191.59,99.2,3.2,-30.8,0.5,-0.43,-4.35,0.37,1.49,-0.12,19.6,0.1,0.0,-5.05,0.0,-0.01,0.0,1.5399350635659934,4.399704535534175,0.5088882551953609,0.35,0,3,0.0
6.7820377009993535,473,191.6,99.2,2.8,-30.8,-0.5,-0.09,-3.36,0.14,1.35,-0.02,19.6,-0.1,-1.0,-5.05,0.0,0.12,0.0,1.357387196049823,3.398190695061123,0.31981357992560655,0.35,0,3,0.0
6.790113831999406,474,191.61,99.1,2.6,-30.9,-0.38,-0.5,-2.09,-0.11,1.24,0.06,19.6,-0.2,-4.0,-5.05,0.01,0.05,0.0,1.24631456703354,2.1823152842795195,0.20456613189113715,0.35,0,3,0.0
6.802145270999972,475,191.62,99.1,2.4,-30.8,0.96,-1.41,-1.01,-0.3,1.18,0.1,19.6,0.0,1.0,-5.05,0.0,0.12,0.0,1.221638244326036,1.9823723161908815,0.17629201299996056,0.35,0,3,0.0
6.810225705999983,476,191.63,99.3,2.3,-30.6,2.18,-2.49,-0.27,-0.4,1.22,0.11,19.6,-0.6,1.0,-5.05,0.0,0.13,0.0,1.2886038956948718,3.320451776490663,0.23839251108142023,0.35,0,3,0.0
6.821788211000239,477,191.64,99.5,2.3,-30.3,1.63,-3.55,0.22,-0.41,1.3,0.19,19.6,-1.6,-18.0,-5.05,0.09,-0.1,0.0,1.3762993860348844,3.912518370563901,0.31956624139300427,0.35,0,3,0.0
6.830265455000699,478,191.65,99.6,2.2,-29.9,-0.35,-5.06,0.52,-0.28,1.32,0.22,19.5,-6.0,-38.0,-5.05,0.22,-0.02,0.0,1.3671868928570081,5.098676298805406,0.3042446732508255,0.35,0,3,0.0
6.8419551189999765,479,191.66,99.5,2.2,-29.3,-2.45,-6.09,0.64,-0.09,1.22,0.13,19.4,-11.9,-59.0,-5.05,0.42,0.25,0.0,1.2302032352420473,6.595468141079903,0.16391579532314737,0.35,0,3,0.0
6.8501521599991975,480,191.67,99.2,2.2,-28.6,-3.65,-6.36,0.45,0.04,1.07,0.08,19.3,-23.0,-94.0,-5.04,0.74,0.15,0.0,1.0737318100903968,7.3467407739759,0.007295482768066908,0.35,0,3,0.0
6.86188307699922,481,191.68,98.8,2.1,-28.0,-3.88,-6.36,0.12,0.12,0.95,0.06,19.0,-31.6,-86.0,-5.03,0.97,-0.08,0.0,0.9594269122762817,7.4510670376799055,0.10486922674512722,0.35,0,3,0.0
6.870265706000282,482,191.69,98.5,2.0,-27.4,-3.68,-6.21,-0.13,0.17,0.87,0.03,18.6,-38.5,-63.0,-5.02,1.1,-0.06,0.0,0.8869611039949836,7.219653731308725,0.1737883343258968,0.35,0,3,0.0
6.881876199999169,483,191.7,98.1,1.9,-26.8,-3.38,-5.82,-0.23,0.18,0.87,0.0,18.2,-45.1,-85.0,-5.01,1.38,0.02,0.0,0.8884255736976508,6.734218588670849,0.16887738733076507,0.35,0,3,0.0
6.890244950000124,484,191.71,97.8,1.8,-26.2,-3.27,-5.4,-0.07,0.18,0.87,-0.02,17.6,-58.6,-123.0,-4.99,1.77,-0.33,0.0,0.8886506625215558,6.313303414219849,0.16527925253672304,0.35,0,3,0.0
6.901765123999212,485,191.72,97.5,1.7,-25.7,-2.65,-4.92,0.18,0.17,0.84,-0.04,17.0,-65.6,-41.0,-4.97,1.72,0.1,0.0,0.8579627031520659,5.591180555124293,0.19204786766808868,0.35,0,3,0.0
6.910146637999787,486,191.73,97.3,1.7,-25.3,-2.07,-4.6,0.54,0.17,0.83,-0.05,16.4,-60.1,24.0,-4.96,1.55,0.02,0.0,0.8487048957087499,5.073115413628986,0.1972795616091766,0.35,0,3,0.0
6.921911456000089,487,191.74,97.2,1.7,-24.8,-1.24,-4.19,0.74,0.15,0.82,-0.08,15.8,-55.6,27.0,-4.94,1.48,0.2,0.0,0.8374365647617733,4.431850629251849,0.20437693470503004,0.35,0,3,0.0
6.930144414000097,488,191.75,97.1,1.7,-24.4,-0.52,-3.78,0.92,0.14,0.87,-0.09,15.2,-55.7,-5.0,-4.93,1.56,0.24,0.0,0.8857764955111419,3.924945859499211,0.1529162638765481,0.35,0,3,0.0
6.9419200039992575,489,191.76,97.1,1.8,-24.0,-0.15,-3.4,1.04,0.13,0.9,-0.09,14.6,-63.7,-89.0,-4.91,1.96,0.12,0.0,0.9137833441248533,3.558665480204623,0.12241122695757989,0.35,0,3,0.0
6.950165690999711,490,191.77,97.1,1.9,-23.7,0.0,-3.15,1.16,0.14,0.96,-0.08,13.8,-90.4,-246.0,-4.88,2.88,0.1,0.0,0.9734474818910366,3.3567990705432456,0.0614921474075687,0.35,0,3,0.0
6.9618975989997125,491,191.78,97.1,2.0,-23.4,-0.14,-2.94,1.27,0.16,0.97,-0.09,12.7,-126.9,-331.0,-4.85,3.92,0.03,0.0,0.9872183142547548,3.205635662392094,0.04676688874297352,0.35,0,3,0.0
6.970263350000096,492,191.79,97.1,2.1,-23.1,-0.43,-2.71,1.32,0.18,0.98,-0.1,11.2,-162.6,-334.0,-4.8,4.81,0.21,0.0,1.0013990213696036,3.0448973710126914,0.03193445799556227,0.35,0,3,0.0
6.981711156999154,493,191.8,97.0,2.2,-22.8,-0.71,-2.46,1.34,0.18,0.97,-0.11,9.3,-194.4,-315.0,-4.75,5.65,-0.15,0.0,0.9926731586982696,2.8898615883810077,0.03984711425355836,0.35,0,3,0.0
6.9902088529997854,494,191.81,96.9,2.3,-22.6,-0.87,-2.29,1.45,0.16,0.95,-0.11,7.2,-219.0,-237.0,-4.69,6.14,0.14,0.0,0.969639108122192,2.8466647150656854,0.06162354153304328,0.35,0,3,0.0
7.001766180999766,495,191.82,96.9,2.5,-22.3,-0.73,-2.16,1.58,0.13,0.92,-0.11,4.9,-235.2,-200.0,-4.62,6.63,0.2,0.0,0.9356281312572854,2.7739682766751317,0.09372182802999096,0.35,0,3,0.0
7.010217389999525,496,191.83,96.8,2.7,-22.1,-0.4,-2.13,1.71,0.11,0.91,-0.1,2.4,-259.4,-226.0,-4.55,7.31,0.2,0.0,0.922062904578641,2.7606158733152277,0.10514131361446255,0.35,0,3,0.0
7.0216772269996,497,191.84,96.8,2.9,-21.9,-0.01,-2.11,1.8,0.1,0.89,-0.11,-0.3,-275.5,-167.0,-4.48,7.66,0.06,0.0,0.9023303164584464,2.7734815665513266,0.12237642369996404,0.35,0,3,0.0
7.030228431000069,498,191.85,96.9,3.1,-21.6,0.27,-2.15,1.84,0.08,0.89,-0.14,-3.1,-291.8,-177.0,-4.4,8.16,0.12,0.0,0.9044888059008801,2.8427099746544666,0.11781357557237981,0.35,0,3,0.0
7.041749674999664,499,191.86,97.0,3.4,-21.1,0.56,-2.19,1.69,0.1,0.87,-0.2,-6.1,-304.3,-108.0,-4.31,8.33,0.01,0.0,0.898276126811795,2.822374886509586,0.1215457295682355,0.35,0,3,0.0
7.0500718130006135,500,191.87,97.1,3.5,-20.9,0.52,-2.14,1.62,0.08,0.88,-0.22,-9.2,-307.8,-54.0,-4.23,8.39,-0.07,0.0,0.9106041950265769,2.7339348931530907,0.10703330812638456,0.35,0,3,0.0
7.0622048459990765,501,191.88,97.2,3.7,-20.7,0.54,-2.17,1.52,0.08,0.88,-0.21,-12.3,-309.9,-31.0,-4.14,8.44,-0.14,0.0,0.9082400563727632,2.7038676003088615,0.10720949784459421,0.35,0,3,0.0
7.070211935999396,502,191.89,97.3,3.8,-20.4,0.42,-2.28,1.38,0.09,0.9,-0.2,-15.4,-309.3,8.0,-4.06,8.34,0.0,0.0,0.9263368717696603,2.6979992587100536,0.08733042879874309,0.35,0,3,0.0
7.081762715999503,503,191.9,97.4,3.9,-20.2,0.09,-2.36,1.2,0.11,0.9,-0.23,-18.4,-300.8,72.0,-3.98,8.04,0.08,0.0,0.9354143466934853,2.6490941848111027,0.07668789479741978,0.35,0,3,0.0
7.09017489299913,504,191.91,97.4,4.0,-19.9,-0.4,-2.32,0.96,0.14,0.9,-0.25,-21.4,-292.5,60.0,-3.9,7.9,-0.01,0.0,0.9445104552094699,2.5424397731313126,0.06623995055580645,0.35,0,3,0.0
7.101883015999192,505,191.92,97.3,4.0,-19.7,-0.94,-2.22,0.72,0.16,0.87,-0.26,-24.3,-287.6,70.0,-3.82,7.69,0.11,0.0,0.9220086767487603,2.516028616689405,0.08696689443618566,0.35,0,3,0.0
7.110127665000618,506,191.93,97.2,4.1,-19.5,-1.37,-2.08,0.46,0.18,0.83,-0.26,-27.1,-274.7,121.0,-3.75,7.27,-0.04,0.0,0.8882004278314664,2.5327652871910575,0.11835964048641001,0.35,0,3,0.0
7.121984343999429,507,191.94,97.1,4.1,-19.3,-1.73,-1.89,0.12,0.21,0.77,-0.27,-29.7,-260.1,130.0,-3.68,6.91,-0.19,0.0,0.8425556361451747,2.5650341128335894,0.16072434352924758,0.35,0,3,0.0
7.130197335000048,508,191.95,96.9,4.0,-19.1,-1.99,-1.57,-0.3,0.23,0.71,-0.29,-32.2,-246.9,134.0,-3.61,6.54,-0.01,0.0,0.8006872048434394,2.552449803620044,0.19854091933436324,0.35,0,3,0.0
7.141786309999588,509,191.96,96.7,4.0,-19.0,-2.07,-1.04,-0.71,0.26,0.7,-0.3,-34.6,-231.2,154.0,-3.55,6.08,-0.01,0.0,0.8047359815492283,2.4229321080046793,0.19060229977600285,0.35,0,3,0.0
7.150136018999547,510,191.97,96.5,3.9,-18.9,-1.76,-0.31,-1.0,0.29,0.71,-0.32,-36.8,-212.3,180.0,-3.49,5.53,-0.01,0.0,0.8310234653726692,2.047852533753346,0.16102851963351072,0.35,0,3,0.0
7.161880904999634,511,191.98,96.4,3.8,-18.9,-1.05,0.48,-1.12,0.28,0.75,-0.31,-38.8,-192.6,196.0,-3.44,4.97,-0.2,0.0,0.8584870412533901,1.6085086260259844,0.13089364487773403,0.35,0,3,0.0
7.170219222000014,512,191.99,96.3,3.7,-19.0,-0.29,1.08,-1.15,0.25,0.79,-0.28,-40.6,-172.6,193.0,-3.39,4.46,0.03,0.0,0.8746427842267951,1.6040573555830229,0.11244314386624255,0.35,0,3,0.0
7.198110661000101,514,192.01,96.3,3.6,-19.2,0.25,1.56,-1.19,0.2,0.82,-0.26,-43.4,-135.9,213.0,-3.32,3.46,-0.34,0.0,0.8831760866327847,1.9779282090106305,0.10183164463104788,0.35,0,3,0.0
7.209896964999643,516,192.03,96.3,3.3,-19.6,0.45,2.06,-1.27,0.12,0.76,-0.22,-45.7,-101.7,168.0,-3.26,2.57,-0.19,0.0,0.8002499609497022,2.4615036055224455,0.1810626149078477,0.35,0,3,0.0
7.222041864999483,517,192.04,96.4,3.2,-19.8,0.84,2.05,-1.26,0.11,0.76,-0.21,-46.6,-86.0,157.0,-3.24,2.15,0.05,0.0,0.7961155694998058,2.548666317900403,0.18149306623058925,0.35,0,3,0.0
7.2301725189990975,518,192.05,96.5,3.2,-20.0,1.56,1.9,-1.05,0.1,0.81,-0.17,-47.4,-73.8,117.0,-3.22,1.91,0.0,0.0,0.8336666000266535,2.6732190333004886,0.14106319498966668,0.35,0,3,0.0
7.242078138999204,519,192.06,96.7,3.1,-20.2,2.66,1.44,-0.62,0.06,0.92,-0.08,-48.1,-68.5,65.0,-3.2,1.82,0.03,0.0,0.9254188241007419,3.0876528302255744,0.04832475149726667,0.35,0,3,0.0
7.250088668999524,520,192.07,97.0,3.1,-20.3,3.22,0.6,-0.15,0.0,0.95,-0.07,-48.7,-64.5,47.0,-3.18,1.71,-0.24,0.0,0.9525754563287887,3.278856507991773,0.02074475688383548,0.35,0,3,0.0
7.262096050000764,521,192.08,97.3,3.0,-20.3,3.14,-0.25,0.05,-0.03,1.0,-0.11,-49.4,-61.5,31.0,-3.17,1.65,0.04,0.0,1.0064790112068904,3.150333315698515,0.032495622034380944,0.35,0,3,0.0
7.270145063999735,522,192.09,97.5,3.0,-20.3,2.2,-0.92,0.04,-0.05,1.01,-0.22,-50.0,-59.0,30.0,-3.15,1.57,-0.08,0.0,1.0348912986396204,2.384952829722215,0.059689751277768655,0.35,0,3,0.0
7.281971374999557,523,192.1,97.7,3.0,-20.1,1.17,-1.08,-0.12,-0.03,1.02,-0.34,-50.5,-56.1,29.0,-3.14,1.48,-0.01,0.0,1.075592859775482,1.5967780058605516,0.09838348616535775,0.35,0,3,0.0
7.290194301000156,524,192.11,97.8,3.0,-20.1,0.61,-0.86,-0.24,-0.01,1.03,-0.4,-51.1,-51.3,52.0,-3.12,1.31,-0.02,0.0,1.1049886877249016,1.0813417591122614,0.1252237278324817,0.35,0,3,0.0
7.301666429000761,525,192.12,97.9,2.9,-20.0,1.01,-0.56,-0.27,0.04,1.09,-0.4,-51.5,-43.5,68.0,-3.11,1.09,0.15,0.0,1.1617658972443632,1.186001686339442,0.17836091860490444,0.35,0,3,0.0
7.31024524500026,526,192.13,98.0,2.9,-19.9,1.69,-0.3,0.08,0.11,1.22,-0.31,-51.9,-35.0,66.0,-3.1,0.9,-0.07,0.0,1.2635663813191613,1.7182840277439582,0.27455817462610854,0.35,0,3,0.0
7.321969611999521,527,192.14,98.3,3.0,-19.9,2.14,-0.34,0.69,0.11,1.25,-0.25,-52.2,-31.1,55.0,-3.09,0.77,0.01,0.0,1.2794920867281674,2.2740492518852795,0.2846742024344123,0.35,0,3,0.0
7.33031818299969,528,192.15,98.5,3.1,-19.9,2.35,-0.46,1.14,0.13,1.21,-0.32,-52.5,-28.5,19.0,-3.09,0.78,-0.06,0.0,1.2583322295800898,2.6521123656436583,0.25824405838060804,0.35,0,3,0.0
7.341818868000701,529,192.16,98.8,3.2,-19.8,2.65,-0.15,1.39,0.14,1.22,-0.37,-52.8,-28.7,7.0,-3.08,0.77,-0.07,0.0,1.282536549186806,2.996180902415607,0.2767994104275777,0.35,0,3,0.0
7.350168970000595,530,192.17,99.1,3.3,-19.8,3.04,0.18,1.54,0.14,1.31,-0.28,-53.1,-27.8,19.0,-3.07,0.7,0.0,0.0,1.3468852957843145,3.4125650176956337,0.3343251938845846,0.35,0,3,0.0
7.3619167800006835,531,192.18,99.4,3.5,-19.8,3.34,0.31,1.97,0.16,1.51,-0.18,-53.3,-24.6,34.0,-3.06,0.59,-0.09,0.0,1.5290846935340108,3.890064266821308,0.5061940998015952,0.35,0,4,0.0
7.37021719599943,532,192.19,99.7,3.8,-19.8,3.4,0.37,2.93,0.13,1.72,-0.11,-53.5,-16.4,90.0,-3.06,0.26,-0.08,0.0,1.7284096736595755,4.503531947260949,0.6914086983286167,0.35,0,4,0.0
7.3817451979994075,533,192.2,100.0,4.2,-19.8,2.56,0.38,3.97,0.05,1.72,-0.1,-53.6,-2.6,115.0,-3.06,-0.06,0.14,0.0,1.7236298906667868,4.739082189622796,0.6728963370291114,0.35,0,4,0.0
7.390306965999116,534,192.21,100.1,4.6,-19.7,0.91,0.33,4.38,0.03,1.5,-0.06,-53.6,7.4,100.0,-3.06,-0.32,-0.01,0.0,1.5014992507490639,4.4856883529732645,0.4417503831691607,0.35,0,4,0.0
7.401727178999863,535,192.22,100.1,5.0,-19.7,-0.18,0.26,3.85,0.13,1.21,-0.07,-53.4,17.3,97.0,-3.07,-0.58,-0.04,0.0,1.2189749792346025,3.8629651823437396,0.1560415894216054,0.35,0,4,0.0
7.4101593579998735,536,192.23,100.1,5.3,-19.7,-0.5,0.51,2.82,0.33,1.05,-0.1,-53.2,27.9,113.0,-3.08,-0.93,-0.07,0.0,1.1051696702316798,2.909037641557771,0.041391554810308984,0.35,0,4,0.0
7.421827366999423,537,192.24,100.0,5.6,-19.7,-0.43,1.12,1.83,0.46,0.96,-0.12,-52.8,44.2,157.0,-3.09,-1.43,0.09,0.0,1.0712609392673664,2.1881956036881167,0.007333167369075744,0.35,0,4,0.0
7.430188186999658,538,192.25,100.0,5.7,-19.8,-0.37,2.13,1.04,0.51,0.93,-0.15,-52.2,64.7,203.0,-3.11,-2.05,-0.12,0.0,1.0712142642814275,2.3990414752563156,0.007140762535474021,0.35,0,4,0.0
7.44191339399913,539,192.26,99.9,5.9,-20.1,-0.27,3.49,0.29,0.46,0.89,-0.12,-51.4,88.4,226.0,-3.13,-2.7,-0.26,0.0,1.0090094152187083,3.5124208176128326,0.05396280479670024,0.35,0,4,0.0
7.4502538760007155,540,192.27,99.9,5.9,-20.5,0.0,4.64,-0.23,0.39,0.9,-0.05,-50.3,113.5,242.0,-3.16,-3.39,-0.18,0.0,0.9821405194777375,4.645696933722647,0.07921506652691757,0.35,0,4,0.0
7.461696665999625,541,192.28,99.8,6.0,-21.0,0.06,5.52,-0.37,0.33,0.92,0.0,-49.0,138.3,244.0,-3.2,-4.05,0.01,0.0,0.9773944955850734,5.532711812484001,0.08228186861119002,0.35,0,4,0.0
7.470058802000494,542,192.29,99.8,6.0,-21.6,-0.07,6.2,-0.23,0.26,0.91,0.0,-47.5,163.5,250.0,-3.25,-4.76,-0.17,0.0,0.9464142856064675,6.2046595394106845,0.11099683701800012,0.35,0,4,0.0
7.482023765000122,543,192.3,99.7,6.1,-22.3,-0.45,6.68,0.07,0.18,0.91,0.03,-45.7,187.6,240.0,-3.3,-5.39,-0.33,0.0,0.9281163720137686,6.695505955489846,0.126708855598485,0.35,0,4,0.0
7.490257945999474,544,192.31,99.5,6.3,-22.9,-0.66,6.71,0.39,0.11,0.89,0.08,-43.6,212.3,247.0,-3.36,-6.07,-0.03,0.0,0.9003332716277901,6.753650864532457,0.15140211686477434,0.35,0,4,0.0
7.501795934000256,545,192.32,99.4,6.4,-23.6,-0.56,6.34,0.61,0.04,0.89,0.1,-41.3,236.8,239.0,-3.42,-6.72,-0.03,0.0,0.8964931678490361,6.393848606277756,0.15213737623065782,0.35,0,4,0.0
7.510254056000122,546,192.33,99.3,6.6,-24.2,-0.63,5.72,0.67,-0.01,0.89,0.12,-38.8,259.4,235.0,-3.5,-7.35,-0.05,0.0,0.8981091247727082,5.793461832100044,0.14751099092084607,0.35,0,4,0.0
7.521716343999287,547,192.34,99.2,6.8,-24.7,-0.71,4.94,0.43,-0.03,0.85,0.09,-36.0,283.9,246.0,-3.57,-8.04,-0.06,0.0,0.8552777326693358,5.009251441083788,0.18653553536373402,0.35,0,4,0.0
7.530151258999467,548,192.35,99.1,6.8,-25.1,-0.27,4.25,-0.05,-0.06,0.84,0.06,-33.0,308.2,232.0,-3.66,-8.63,-0.13,0.0,0.8442748367682174,4.258861350173307,0.1935876626395554,0.35,0,4,0.0
7.541951249000704,549,192.36,99.0,6.9,-25.5,0.28,3.48,-0.56,-0.08,0.84,0.04,-29.8,327.6,206.0,-3.75,-9.14,-0.02,0.0,0.844748483277715,3.5358733008975305,0.18925173580745658,0.35,0,4,0.0
7.5501267700001335,550,192.37,99.0,6.8,-25.8,0.57,2.84,-0.96,-0.09,0.87,0.01,-26.4,350.9,242.0,-3.84,-9.88,-0.07,0.0,0.8746999485537884,3.051573364675999,0.15611426512075555,0.35,0,4,0.0
7.561870543000623,551,192.38,99.0,6.8,-26.1,0.56,2.35,-1.27,-0.06,0.85,-0.01,-22.7,376.6,228.0,-3.95,-10.46,-0.13,0.0,0.8521736912155878,2.7292856208172864,0.1750677120097769,0.35,0,4,0.0
7.570223848999376,552,192.39,99.1,6.7,-26.4,0.7,2.08,-1.45,-0.02,0.85,-0.03,-18.8,396.8,238.0,-4.06,-11.14,-0.12,0.0,0.850764362206128,2.630380200655411,0.17294750019885186,0.35,0,4,0.0
7.581837059000463,553,192.4,99.1,6.6,-26.6,0.65,1.89,-1.38,0.0,0.88,-0.04,-14.6,428.7,288.0,-4.17,-12.0,0.05,0.0,0.8809086218218096,2.428785704832767,0.13994717577150695,0.35,0,4,0.0
7.590129553000224,554,192.41,99.2,6.5,-26.8,0.72,1.69,-1.26,0.0,0.88,-0.06,-10.1,453.7,247.0,-4.3,-12.61,-0.15,0.0,0.8820430828479978,2.2275771591574554,0.1360364604504124,0.35,0,4,0.0
7.60189701300078,555,192.42,99.2,6.4,-27.0,0.86,1.52,-1.09,0.01,0.91,-0.08,-5.4,476.6,226.0,-4.43,-13.16,-0.08,0.0,0.9135644476444998,2.0586646157157316,0.10242479374083213,0.35,0,4,0.0
7.610137057999964,556,192.43,99.3,6.3,-27.1,0.75,1.31,-0.85,0.01,0.95,-0.09,-0.6,485.7,136.0,-4.56,-13.34,0.01,0.0,0.9543060305792895,1.7323683211141907,0.06044954658992163,0.35,0,4,0.0
7.621853213999202,557,192.44,99.3,6.2,-27.2,0.58,1.25,-0.67,-0.02,0.97,-0.12,4.2,482.9,-102.0,-4.69,-12.62,0.15,0.0,0.9775990998359194,1.5322532427767939,0.03641334778662597,0.35,0,4,0.0
7.630312404999131,558,192.45,99.4,6.2,-27.4,0.22,1.05,-0.62,0.0,0.96,-0.14,8.7,434.3,-314.0,-4.81,-11.47,0.02,0.0,0.9701546268507922,1.239072233568326,0.04298066435631809,0.35,0,4,0.0
7.6419347810006,559,192.46,99.4,6.1,-27.5,0.25,1.03,-0.79,0.0,0.93,-0.15,12.9,414.0,-236.0,-4.92,-10.94,0.15,0.0,0.942019108086455,1.3219304066402287,0.06969385945824225,0.35,0,4,0.0
7.650289060000432,560,192.47,99.4,5.9,-27.6,-0.13,0.93,-0.86,0.0,0.95,-0.16,16.9,385.3,-246.0,-5.02,-10.24,0.17,0.0,0.9633794683301071,1.2733420593069247,0.047366829230298224,0.35,0,4,0.0
7.661876731999655,561,192.48,99.3,5.8,-27.7,-0.48,0.93,-0.89,0.0,0.91,-0.18,20.5,339.0,-600.0,-5.11,-7.99,0.4,0.0,0.9276313923105449,1.3738267721950974,0.08145260714486324,0.35,0,4,0.0
7.670121373999791,562,192.49,99.3,5.7,-27.8,-0.46,0.92,-0.93,0.0,0.88,-0.19,23.2,241.5,-888.0,-5.18,-5.27,0.49,0.0,0.9002777349240622,1.3866866985732575,0.10663013924071907,0.35,0,4,0.0
7.681880173999161,563,192.5,99.2,5.7,-27.9,-0.08,0.83,-1.03,0.0,0.86,-0.21,24.8,110.3,-1315.0,-5.2,-1.05,0.53,0.0,0.8852683209061533,1.3252169633686401,0.1192067621934555,0.35,0,4,0.0
7.690093417999378,564,192.51,99.2,5.6,-28.0,0.28,0.7,-1.08,0.01,0.86,-0.24,24.8,-24.7,-1050.0,-5.19,1.33,0.2,0.0,0.8929165694509201,1.3171180660821564,0.10932734337571481,0.35,0,4,0.0
7.701877767000042,565,192.52,99.3,5.5,-28.1,0.54,0.78,-1.13,0.04,0.87,-0.29,24.4,-41.5,-264.0,-5.18,0.79,-0.08,0.0,0.9179324593890337,1.4754321400864223,0.08262522436884923,0.35,0,4,0.0
7.7103432069998235,566,192.53,99.3,5.4,-28.2,0.28,0.95,-1.02,0.05,0.9,-0.31,24.2,-9.4,132.0,-5.18,-0.16,0.01,0.0,0.9532051195833979,1.421724305201258,0.04640551289099526,0.35,0,4,0.0
7.7218251029989915,567,192.54,99.3,5.3,-28.3,0.13,1.1,-0.82,0.06,0.9,-0.3,24.3,9.2,89.0,-5.18,-0.26,0.04,0.0,0.9505787710652917,1.378150935130111,0.04805122418091956,0.35,0,4,0.0
7.730242891000671,568,192.55,99.3,5.2,-28.4,0.16,1.11,-0.63,0.06,0.9,-0.29,24.4,7.4,-16.0,-5.18,-0.04,0.0,0.0,0.9474703161577148,1.286312559217238,0.05013648550672645,0.35,0,4,0.0
7.741559701000369,569,192.56,99.3,5.2,-28.6,0.1,1.13,-0.41,0.04,0.91,-0.29,24.4,-1.9,-44.0,-5.18,0.08,0.0,0.0,0.9559288676465421,1.2062338081814816,0.04084437533754126,0.35,0,4,0.0
7.750247185000262,570,192.57,99.3,5.2,-28.7,-0.19,1.22,-0.11,0.0,0.92,-0.29,24.4,0.7,9.0,-5.18,-0.03,0.22,0.0,0.9646242791885347,1.2395967086113129,0.03150598451963771,0.35,0,4,0.0
7.761774753000282,571,192.58,99.2,5.2,-28.8,-0.67,1.25,0.29,-0.04,0.94,-0.27,24.4,-0.8,-11.0,-5.18,0.03,0.0,0.0,0.9788258272031853,1.4475841944425891,0.01695834777488725,0.35,0,4,0.0
7.770240775000275,572,192.59,99.2,5.3,-28.9,-1.01,1.14,0.76,-0.08,0.94,-0.25,24.4,0.2,6.0,-5.18,-0.01,0.06,0.0,0.9759610647971567,1.7021457046915813,0.01942664797729754,0.35,0,4,0.0
7.781726422999782,573,192.6,99.0,5.4,-29.0,-1.11,0.89,1.2,-0.13,0.92,-0.23,24.3,-0.9,-14.0,-5.18,0.05,-0.15,0.0,0.957183368012629,1.861236148370217,0.037440257866588667,0.35,0,4,0.0
7.79026873300063,574,192.61,98.9,5.6,-29.1,-0.97,0.56,1.56,-0.2,0.93,-0.21,24.3,-3.0,-22.0,-5.18,0.12,-0.05,0.0,0.9741663102366044,1.920442657305862,0.020048169329761056,0.35,0,4,0.0
7.801820451999447,575,192.62,98.8,5.7,-29.1,-0.84,0.01,1.79,-0.21,0.92,-0.18,24.3,-8.7,-69.0,-5.18,0.39,-0.1,0.0,0.9606768447297979,1.977321420508057,0.03286688213983624,0.35,0,4,0.0
7.810220793000553,576,192.63,98.8,5.9,-29.0,-0.58,-0.36,1.81,-0.19,0.94,-0.16,24.1,-22.9,-138.0,-5.17,0.86,0.1,0.0,0.972265395866787,1.9344508264621254,0.020852764382790157,0.35,0,4,0.0
7.821712451999701,577,192.64,98.7,6.1,-28.9,-0.69,-0.71,1.69,-0.15,0.93,-0.13,23.7,-43.5,-193.0,-5.16,1.45,0.02,0.0,0.950946896519464,1.9586474925315172,0.04132783845551091,0.35,0,4,0.0
7.830101167999601,578,192.65,98.7,6.2,-28.8,-0.54,-1.04,1.43,-0.04,0.91,-0.13,23.1,-67.8,-253.0,-5.14,2.25,0.29,0.0,0.9201086892318755,1.848810428356569,0.07072272482823738,0.35,0,4,0.0
7.841776502998982,579,192.66,98.6,6.3,-28.7,-0.3,-1.15,1.04,0.07,0.88,-0.15,22.2,-99.3,-280.0,-5.11,3.02,0.0,0.0,0.8954328562209453,1.579271984174987,0.0934905866823843,0.35,0,4,0.0
7.853921486999752,580,192.67,98.6,6.4,-28.5,-0.29,-1.05,0.69,0.23,0.88,-0.21,21.1,-104.5,28.0,-5.08,2.38,0.02,0.0,0.9334880824091971,1.2894572501638044,0.05432665328424979,0.35,0,4,0.0
7.862268689999837,581,192.68,98.6,6.4,-28.5,-0.4,-0.39,0.38,0.34,0.87,-0.29,20.3,-63.8,297.0,-5.07,1.15,-0.19,0.0,0.9780593029055038,0.6756478372643547,0.009560324132184217,0.35,0,4,0.0
7.870294803999059,582,192.69,98.6,6.5,-28.5,-0.7,0.51,0.31,0.34,0.86,-0.35,20.0,-18.7,405.0,-5.06,-0.09,-0.17,0.0,0.9887871358386495,0.9198912979260103,0.0011441586249423263,0.35,0,4,0.0
7.88171717700061,583,192.7,98.5,6.5,-28.6,-0.9,1.32,0.54,0.27,0.82,-0.39,20.1,21.7,361.0,-5.07,-0.96,-0.14,0.0,0.9473119866232032,1.6864163187066237,0.039524370778693974,0.35,0,4,0.0
7.890286997000658,584,192.71,98.4,6.6,-28.7,-0.48,1.68,0.92,0.15,0.77,-0.38,20.5,45.0,219.0,-5.08,-1.29,0.42,0.0,0.8716650732936361,1.974639207551597,0.11286785842609581,0.35,0,4,0.0
7.90193704199919,585,192.72,98.4,6.7,-28.9,0.49,1.56,1.23,0.02,0.79,-0.38,20.9,31.3,-128.0,-5.09,-0.32,0.09,0.0,0.8768694315575153,2.0461182761512102,0.10551023015897232,0.35,0,4,0.0
7.910086545000013,586,192.73,98.5,6.9,-29.0,1.68,1.08,1.43,-0.11,0.84,-0.32,21.0,-5.3,-220.0,-5.09,0.33,-0.12,0.0,0.9055937278934743,2.4563590942694025,0.07525021514655306,0.35,0,4,0.0
7.921804685000097,587,192.74,98.7,7.0,-29.0,3.26,0.18,1.27,-0.16,0.9,-0.29,20.9,-9.0,-29.0,-5.09,0.09,-0.12,0.0,0.9590099061010788,3.503269901106679,0.02139735620016947,0.35,0,4,0.0
7.93023864099996,588,192.75,99.1,7.1,-29.0,4.09,-0.11,0.4,-0.16,1.07,-0.3,20.8,1.4,39.0,-5.09,-0.09,0.03,0.0,1.122719911643149,4.110985283359696,0.13946639635506264,0.35,0,4,0.0
7.942115562000254,589,192.76,99.5,7.1,-28.9,3.68,-0.73,-0.43,-0.15,1.14,-0.35,20.9,1.1,-15.0,-5.09,0.04,-0.13,0.0,1.2019151384353222,3.7762679989640566,0.21428839068429106,0.35,0,4,0.0
7.950167753000642,590,192.77,99.8,7.0,-28.9,2.46,-1.04,-1.68,-0.12,1.2,-0.33,20.9,-2.0,-4.0,-5.09,0.02,0.03,0.0,1.2503199590504823,3.155249593930724,0.25743934707346217,0.35,0,4,0.0
7.9619147529992915,591,192.78,100.0,6.7,-28.8,1.51,-1.59,-2.65,-0.03,1.2,-0.27,20.8,0.2,6.0,-5.09,0.0,-0.04,0.0,1.2303657992645927,3.439578462544502,0.23273548354182105,0.35,0,4,0.0
7.9702772260006896,592,192.79,100.2,6.4,-28.6,1.16,-2.34,-3.42,0.07,1.21,-0.22,20.8,-0.6,0.0,-5.09,0.0,0.11,0.0,1.2318279100588685,4.303208105588202,0.2295136424493749,0.35,0,4,0.0
7.981705553000211,593,192.8,100.3,6.0,-28.4,1.3,-2.62,-3.91,0.23,1.28,-0.28,20.8,0.8,5.0,-5.09,-0.01,-0.04,0.0,1.3303007178829906,4.882878249557325,0.32142672126802707,0.35,0,4,0.0
7.990113272999224,594,192.81,100.5,5.5,-28.3,1.03,-1.96,-4.23,0.34,1.37,-0.29,20.9,-0.2,-1.0,-5.09,0.0,-0.12,0.0,1.4410412901787373,4.774452848232979,0.4235239476924981,0.35,0,5,0.0
8.001888348999273,595,192.82,100.5,5.1,-28.2,0.2,-1.05,-4.36,0.32,1.43,-0.23,20.9,0.5,-1.0,-5.09,0.0,0.12,0.0,1.483307115873176,4.489109043006196,0.4564739779191982,0.35,0,5,0.0
8.009954963999917,596,192.83,100.5,4.6,-28.2,0.31,-0.28,-4.44,0.32,1.47,-0.18,20.9,-0.3,6.0,-5.09,-0.02,-0.12,0.0,1.515156757566688,4.459607606056838,0.47855714722045595,0.35,0,5,0.0
8.02183967199926,597,192.84,100.6,4.2,-28.3,0.37,0.46,-4.0,0.26,1.5,-0.07,20.9,0.1,-7.0,-5.09,0.02,0.04,0.0,1.523975065412817,4.04332783731421,0.47762794596525326,0.35,0,5,0.0
8.030142813999191,598,192.85,100.6,3.9,-28.5,0.57,0.73,-3.12,0.09,1.42,0.04,20.9,0.0,1.0,-5.09,0.0,-0.04,0.0,1.423411395205195,3.2545660232971154,0.3695229902424786,0.35,0,5,0.0
8.04222606499934,599,192.86,100.7,3.6,-28.6,0.97,0.15,-2.18,-0.09,1.36,0.1,20.9,-0.7,-1.0,-5.09,0.0,0.03,0.0,1.3666382110858748,2.3907739332693088,0.30649481000069523,0.35,0,5,0.0
8.05024882699945,600,192.87,100.8,3.5,-28.6,0.76,-0.57,-1.3,-0.25,1.29,0.09,20.8,-0.1,0.0,-5.09,0.01,0.03,0.0,1.317080103866124,1.6101242188104619,0.25179796872532556,0.35,0,5,0.0
8.061755016000461,601,192.88,100.8,3.4,-28.5,0.23,-1.85,-0.65,-0.3,1.22,0.2,20.8,-1.7,-16.0,-5.09,0.09,-0.04,0.0,1.27216351150314,1.9743100060527476,0.20274374883509472,0.35,0,5,0.0
8.07014611500017,602,192.89,100.8,3.3,-28.2,-0.81,-3.28,-0.11,-0.26,1.19,0.28,20.8,-5.2,-29.0,-5.08,0.19,-0.05,0.0,1.2498399897586892,3.3803254281207895,0.1768118225488311,0.35,0,5,0.0
8.081959318998997,603,192.9,100.7,3.2,-27.8,-1.89,-4.61,0.25,-0.19,1.14,0.28,20.7,-11.2,-68.0,-5.08,0.44,-0.05,0.0,1.1891593669479292,4.988657133938952,0.11380857574330983,0.35,0,5,0.0
8.090163352000673,604,192.91,100.5,3.1,-27.3,-2.75,-5.51,0.24,-0.08,1.03,0.22,20.5,-23.7,-108.0,-5.07,0.8,0.03,0.0,1.0562670116973265,6.162807801643663,0.018702103917147106,0.35,0,5,0.0
8.101847465999526,605,192.92,100.2,3.1,-26.7,-3.1,-5.94,-0.01,0.01,0.96,0.17,20.2,-37.2,-134.0,-5.06,1.2,-0.01,0.0,0.9749871794028884,6.7002761137135245,0.09798229748735343,0.35,0,5,0.0
8.110058054000547,606,192.93,99.9,2.9,-26.1,-3.27,-6.18,-0.32,0.1,0.9,0.08,19.7,-50.0,-115.0,-5.05,1.48,-0.11,0.0,0.9090654541890809,6.999121373429668,0.16062594224713778,0.35,0,5,0.0
8.121844740000597,607,192.94,99.6,2.8,-25.5,-3.64,-5.92,-0.58,0.16,0.85,-0.02,19.1,-62.1,-129.0,-5.03,1.86,0.09,0.0,0.8651589449343975,6.973693426011786,0.20044180247178467,0.35,0,5,0.0
8.130136084999322,608,192.95,99.3,2.6,-25.0,-3.67,-5.27,-0.77,0.21,0.83,-0.07,18.4,-75.2,-129.0,-5.01,2.21,0.19,0.0,0.8590110593001699,6.467974953569316,0.20245789434389216,0.35,0,5,0.0
8.142171785000755,609,192.96,98.9,2.5,-24.5,-3.12,-4.58,-0.81,0.23,0.81,-0.09,17.5,-94.7,-187.0,-4.98,2.82,0.06,0.0,0.8468175718535841,5.600616037544442,0.21035835415466841,0.35,0,5,0.0
8.150274748999436,610,192.97,98.7,2.3,-24.1,-2.5,-4.08,-0.48,0.24,0.84,-0.1,16.5,-104.4,-67.0,-4.96,2.78,-0.05,0.0,0.8793179174792243,4.809033166864209,0.1743008483584476,0.35,0,5,0.0
8.161811640000451,611,192.98,98.5,2.2,-23.8,-1.66,-3.52,-0.06,0.2,0.87,-0.12,15.5,-102.1,-19.0,-4.93,2.79,-0.04,0.0,0.9007219326740079,3.8922487073669894,0.14983889650039073,0.35,0,5,0.0
8.170254783999553,612,192.99,98.4,2.2,-23.4,-0.97,-3.12,0.29,0.15,0.9,-0.11,14.4,-110.2,-122.0,-4.9,3.31,0.09,0.0,0.9190212184710427,3.280152435482229,0.1289088184892888,0.35,0,5,0.0
8.181790573999024,613,193.0,98.3,2.2,-22.9,-0.85,-2.56,0.81,0.17,0.95,-0.1,13.3,-138.0,-324.0,-4.86,4.36,0.14,0.0,0.9702576977277738,2.8164161624305457,0.07611889244790648,0.35,0,5,0.0
8.190225934999035,614,193.01,98.2,2.3,-22.6,-1.2,-2.27,0.87,0.2,0.9,-0.13,11.4,-182.3,-374.0,-4.81,5.43,0.24,0.0,0.9310746479203481,2.711051456538588,0.11299590341022558,0.35,0,5,0.0
8.20215107399963,615,193.02,98.0,2.3,-22.4,-1.37,-1.91,0.84,0.21,0.87,-0.13,9.3,-219.5,-367.0,-4.74,6.42,0.09,0.0,0.9043782394551519,2.496116984438029,0.1368984656379134,0.35,0,5,0.0
8.21005414299907,616,193.03,97.9,2.4,-22.2,-1.42,-1.6,0.79,0.22,0.83,-0.14,6.9,-251.2,-304.0,-4.68,7.12,0.0,0.0,0.87,2.2804604798154253,0.16785117099120395,0.35,0,5,0.0
8.221821475999604,617,193.04,97.8,2.5,-22.1,-1.04,-1.26,0.71,0.21,0.82,-0.13,4.2,-277.0,-294.0,-4.6,7.92,0.08,0.0,0.8563877626402656,1.7813758727455584,0.17783414018391963,0.35,0,5,0.0
8.230124305999198,618,193.05,97.7,2.5,-21.9,-0.36,-0.97,0.6,0.19,0.84,-0.14,1.2,-306.2,-257.0,-4.51,8.54,0.2,0.0,0.8725250712730265,1.1960351165413163,0.15846289492013554,0.35,0,5,0.0
8.242150822999974,619,193.06,97.7,2.6,-21.8,0.05,-0.73,0.56,0.19,0.88,-0.15,-1.9,-323.5,-202.0,-4.43,9.02,0.27,0.0,0.9126883367283708,0.9214119599831554,0.1159336368754954,0.35,0,5,0.0
8.250172399999428,620,193.07,97.7,2.6,-21.8,0.24,-0.57,0.56,0.18,0.9,-0.16,-5.2,-339.1,-141.0,-4.33,9.3,0.23,0.0,0.9316651759081692,0.834326075344646,0.09501766174178294,0.35,0,5,0.0
8.26185951700063,621,193.08,97.8,2.7,-21.7,0.4,-0.43,0.67,0.14,0.93,-0.18,-8.6,-341.8,-46.0,-4.24,9.26,-0.03,0.0,0.9575489543621256,0.8909545442950499,0.06775120562206993,0.35,0,5,0.0
8.270237046999682,622,193.09,97.8,2.8,-21.7,0.23,-0.33,0.83,0.09,0.92,-0.19,-12.0,-339.4,2.0,-4.15,9.19,-0.21,0.0,0.9437160589923221,0.92233399590387,0.07995241897203598,0.35,0,5,0.0
8.281769451999935,623,193.1,97.9,2.8,-21.6,0.38,-0.38,0.91,0.05,0.9,-0.16,-15.4,-332.0,79.0,-4.06,8.83,-0.06,0.0,0.9154780172128657,1.0568348972285122,0.10602665153646262,0.35,0,5,0.0
8.290267301999847,624,193.11,98.0,2.9,-21.6,0.51,-0.54,1.01,0.03,0.92,-0.16,-18.6,-311.9,178.0,-3.97,8.2,0.05,0.0,0.9342911751697112,1.2537144810522052,0.08546922370802479,0.35,0,5,0.0
8.30175573499946,625,193.12,98.0,3.0,-21.5,0.45,-0.75,1.13,0.02,0.92,-0.17,-21.5,-291.4,177.0,-3.9,7.72,-0.17,0.0,0.9357884376289334,1.4289506639488991,0.08229252202382642,0.35,0,5,0.0
8.310080706000008,626,193.13,98.1,3.1,-21.4,0.38,-0.88,1.16,0.03,0.9,-0.2,-24.3,-272.9,197.0,-3.82,7.14,-0.12,0.0,0.9224424101265076,1.5047923444781341,0.09372577853572706,0.35,0,5,0.0
8.321839992000605,627,193.14,98.2,3.2,-21.3,0.14,-1.05,1.16,0.05,0.88,-0.2,-26.9,-248.4,241.0,-3.76,6.41,-0.18,0.0,0.9038252043398657,1.570891466651977,0.11009612463592167,0.35,0,5,0.0
8.33002182599921,628,193.15,98.3,3.3,-21.1,0.07,-1.22,1.04,0.06,0.84,-0.2,-29.2,-221.2,254.0,-3.7,5.71,-0.34,0.0,0.865563400335296,1.60464949443796,0.14539077006768142,0.35,0,5,0.0
8.34213703000023,629,193.16,98.3,3.4,-21.0,-0.05,-1.43,0.82,0.1,0.8,-0.22,-31.2,-195.3,259.0,-3.65,4.98,-0.14,0.0,0.8357032966310473,1.64918161522617,0.17174585629649164,0.35,0,5,0.0
8.350283723999382,630,193.17,98.3,3.4,-20.8,-0.15,-1.53,0.51,0.13,0.77,-0.23,-33.0,-167.6,280.0,-3.6,4.18,-0.14,0.0,0.8140638795573724,1.6197221984031707,0.1895175679027633,0.35,0,5,0.0
8.36174714399931,631,193.18,98.3,3.4,-20.7,-0.34,-1.54,0.15,0.15,0.76,-0.25,-34.5,-137.2,291.0,-3.56,3.37,-0.08,0.0,0.8140024569987488,1.5842032697857937,0.1857874106521591,0.35,0,5,0.0
8.370289137999862,632,193.19,98.3,3.4,-20.5,-0.43,-1.43,-0.17,0.17,0.76,-0.26,-35.6,-107.9,298.0,-3.54,2.56,-0.06,0.0,0.8210359310042405,1.502897202073382,0.175178857913734,0.35,0,5,0.0
8.381820120999691,633,193.2,98.2,3.4,-20.4,-0.54,-1.26,-0.42,0.17,0.76,-0.28,-36.5,-79.3,284.0,-3.52,1.82,-0.2,0.0,0.8275868534480233,1.4337363774418226,0.16525537676055224,0.35,0,5,0.0
8.390173544999925,634,193.21,98.2,3.3,-20.3,-0.37,-0.99,-0.64,0.17,0.77,-0.3,-37.1,-54.3,238.0,-3.5,1.24,-0.09,0.0,0.843682404699778,1.235556554755791,0.1461766289986216,0.35,0,5,0.0
8.40190089799944,635,193.22,98.2,3.2,-20.2,0.0,-0.74,-0.7,0.16,0.81,-0.3,-37.5,-35.8,194.0,-3.49,0.78,-0.1,0.0,0.8784645695758025,1.0186265262597474,0.10916657484014503,0.35,0,5,0.0
8.410074477000308,636,193.23,98.2,3.1,-20.2,0.43,-0.52,-0.67,0.13,0.85,-0.29,-37.8,-18.4,181.0,-3.49,0.29,-0.02,0.0,0.9074690077352504,0.9508943158942533,0.07855889394708326,0.35,0,5,0.0
8.421850311999151,637,193.24,98.3,3.1,-20.1,0.67,-0.42,-0.57,0.09,0.89,-0.26,-37.9,-7.0,111.0,-3.49,0.12,-0.11,0.0,0.9315578350268973,0.9747820269167872,0.05338066532232766,0.35,0,5,0.0
8.43018260899953,638,193.25,98.3,3.0,-20.1,0.49,-0.33,-0.56,0.06,0.88,-0.26,-37.9,-3.3,52.0,-3.49,0.08,-0.08,0.0,0.9195651146058119,0.814002456998749,0.06406591802854478,0.35,0,5,0.0
8.442173662999267,639,193.26,98.4,2.9,-20.1,0.15,-0.25,-0.66,0.06,0.86,-0.25,-37.9,-3.0,14.0,-3.49,0.09,-0.08,0.0,0.8976079322287654,0.7215261603018979,0.08430263839747942,0.35,0,5,0.0
8.450026074000561,640,193.27,98.4,2.9,-20.1,-0.01,-0.18,-0.79,0.06,0.82,-0.24,-38.0,-4.9,-12.0,-3.48,0.17,0.09,0.0,0.8565045242145543,0.8103085831953158,0.1228979254834568,0.35,0,5,0.0
8.461893678999331,641,193.28,98.4,2.8,-20.1,0.21,-0.19,-0.92,0.07,0.83,-0.21,-38.1,-10.8,-56.0,-3.48,0.4,0.12,0.0,0.8590110593001699,0.9626006440887104,0.1179835625898844,0.35,0,5,0.0
8.47010781499921,642,193.29,98.5,2.7,-20.0,0.65,-0.29,-0.87,0.07,0.88,-0.16,-38.2,-19.6,-80.0,-3.47,0.65,0.24,0.0,0.8971621926942753,1.1240551587889271,0.07823578061186331,0.35,0,5,0.0
8.481941788000768,643,193.3,98.6,2.6,-20.0,1.09,-0.58,-0.72,0.06,0.94,-0.14,-38.5,-29.9,-95.0,-3.47,0.93,0.0,0.0,0.9522604685693931,1.429300528230505,0.02267475464201063,0.35,0,5,0.0
8.490168532000098,644,193.31,98.7,2.6,-19.9,1.23,-0.92,-0.56,0.04,0.99,-0.16,-38.9,-41.2,-108.0,-3.45,1.25,0.02,0.0,1.0036433629531958,1.6349006085998012,0.028133976946956296,0.35,0,5,0.0
8.501939069999935,645,193.32,98.8,2.5,-19.8,0.97,-1.25,-0.44,0.04,1.01,-0.2,-39.4,-51.4,-100.0,-3.44,1.51,0.12,0.0,1.030388276330821,1.6422545478700918,0.05378131251808982,0.35,0,5,0.0
8.51019809600075,646,193.33,99.0,2.4,-19.7,0.44,-1.45,-0.41,0.03,0.97,-0.28,-39.9,-62.1,-103.0,-3.42,1.8,-0.02,0.0,1.0100495037373167,1.5697770542341354,0.03277368912609391,0.35,0,5,0.0
8.521791944000142,647,193.34,99.0,2.4,-19.6,-0.07,-1.4,-0.51,0.05,0.92,-0.38,-40.6,-69.6,-62.0,-3.4,1.9,-0.25,0.0,0.9966443698732261,1.4916433890176297,0.018981184156763198,0.35,0,5,0.0
8.530122019999908,648,193.35,99.0,2.3,-19.5,-0.01,-1.01,-0.66,0.09,0.93,-0.46,-41.3,-70.3,-16.0,-3.38,1.89,-0.04,0.0,1.0414413089560064,1.206565373280702,0.06250256077475258,0.35,0,5,0.0
8.542198396999083,649,193.36,99.0,2.2,-19.4,0.66,-0.32,-0.61,0.12,0.99,-0.47,-42.0,-70.3,-7.0,-3.37,1.91,-0.06,0.0,1.1024518130059018,0.9539916142189092,0.121042803528155,0.35,0,5,0.0
8.550005013999908,650,193.37,99.1,2.2,-19.4,1.62,0.21,-0.42,0.14,1.07,-0.44,-42.8,-72.5,-23.0,-3.35,2.01,0.03,0.0,1.165375475973302,1.6866831356244718,0.18028713716564404,0.35,0,5,0.0
