host_time_s,seq,device_time_s,roll,pitch,yaw,gyro_x,gyro_y,gyro_z,accel_x,accel_y,accel_z,belt_length,belt_velocity,belt_acceleration,motor_pos,motor_vel,motor_iq_meas,motor_iq_set,acc_mag,gyro_mag,gyro_corrected,gyro_side_score,gyro_side_separation,step_period_s,acc_residual,threshold,gyro_threshold,belt_threshold,belt_ok,calibrated,imu_side,imu_heel_strike,heel_strike,hs_count,left_hs_count,right_hs_count,torque_cmd_nm
0.0048447039999928165,2,281.95,95.6,6.3,1.4,0.1,0.0,0.04,0.1,0.98,-0.1,-119.9,0.3,2.0,-1.26,0.0,0.0,0.0,0.990151503558925,0.1077032961426901,0.0,0.0,2.0,0.6,0.0,0.2,1.0,-160.0,0,0,calibrating,0,0,0,0,0,0.0
0.011825084000065544,3,281.96,95.6,6.3,1.4,0.11,0.0,0.04,0.1,0.98,-0.1,-119.9,-0.2,5.0,-1.26,-0.02,0.0,0.0,0.990151503558925,0.11704699910719625,0.0,0.0,2.0,0.6,0.0,0.2,1.0,-160.0,0,0,calibrating,0,0,0,0,0,0.0
0.023872985000025437,4,281.97,95.6,6.3,1.4,0.1,-0.02,0.05,0.1,0.98,-0.1,-119.9,0.5,-5.0,-1.26,0.01,-0.19,0.0,0.990151503558925,0.11357816691600547,0.0,0.0,2.0,0.6,0.0,0.2,1.0,-160.0,0,0,calibrating,0,0,0,0,0,0.0
0.03173509300006572,5,281.98,95.6,6.3,1.4,0.11,-0.05,0.06,0.1,0.98,-0.09,-119.9,-0.2,4.0,-1.26,-0.01,-0.16,0.0,0.9891915891272024,0.13490737563232041,0.0,0.0,2.0,0.6,0.000940716143088105,0.2,1.0,-160.0,0,0,calibrating,0,0,0,0,0,0.0
0.04394092699999419,6,281.99,95.6,6.3,1.4,0.09,-0.08,0.08,0.1,0.98,-0.09,-119.9,0.3,-2.0,-1.26,0.0,0.13,0.0,0.9891915891272024,0.1445683229480096,0.0,0.0,2.0,0.6,0.000921901820226334,0.2,1.0,-160.0,0,0,calibrating,0,0,0,0,0,0.0
0.05388674300002094,7,282.0,95.6,6.3,1.4,0.08,-0.11,0.09,0.1,0.98,-0.09,-119.9,0.0,5.0,-1.26,-0.03,-0.02,0.0,0.9891915891272024,0.16309506430300091,0.0,0.0,2.0,0.6,0.0009034637838217785,0.2,1.0,-160.0,0,0,calibrating,0,0,0,0,0,0.0
0.06370981300005951,8,282.01,95.6,6.3,1.4,0.06,-0.13,0.11,0.1,0.98,-0.09,-119.9,0.0,-2.0,-1.26,0.0,0.08,0.0,0.9891915891272024,0.18055470085267789,0.0,0.0,2.0,0.6,0.0008853945081453984,0.2,1.0,-160.0,0,0,calibrating,0,0,0,0,0,0.0
0.07171901200001685,9,282.02,95.7,6.3,1.4,0.06,-0.14,0.12,0.1,0.98,-0.09,-119.9,-0.1,3.0,-1.26,-0.01,0.0,0.0,0.9891915891272024,0.19390719429665315,0.0,0.0,2.0,0.6,0.0008676866179825327,0.2,1.0,-160.0,0,0,calibrating,0,0,0,0,0,0.0
0.08395047900000918,10,282.03,95.7,6.3,1.4,0.04,-0.16,0.13,0.1,0.98,-0.09,-119.9,0.0,-2.0,-1.26,0.0,-0.09,0.0,0.9891915891272024,0.21,0.0,0.0,2.0,0.6,0.000850332885622862,0.2,1.0,-160.0,0,0,calibrating,0,0,0,0,0,0.0
0.0918282380000619,11,282.04,95.7,6.4,1.5,0.0,-0.19,0.13,0.1,0.98,-0.09,-119.9,0.0,1.0,-1.26,0.0,-0.27,0.0,0.9891915891272024,0.23021728866442678,0.0,0.0,2.0,0.6,0.0008333262279104359,0.2,1.0,-160.0,0,0,calibrating,0,0,0,0,0,0.0
0.10384423499999684,12,282.05,95.7,6.4,1.5,-0.02,-0.22,0.13,0.1,0.98,-0.09,-119.9,0.0,5.0,-1.26,-0.02,0.0,0.0,0.9891915891272024,0.2563201123595259,0.0,0.0,2.0,0.6,0.0008166597033522072,0.2,1.0,-160.0,0,0,calibrating,0,0,0,0,0,0.0
0.11171591900006206,13,282.06,95.7,6.4,1.5,-0.04,-0.23,0.12,0.11,0.98,-0.09,-119.9,1.0,0.0,-1.26,0.0,-0.02,0.0,0.9902524930541705,0.26248809496813374,0.0,0.0,2.0,0.6,0.00023935933914354113,0.2,1.0,-160.0,0,0,calibrating,0,0,0,0,0,0.0
0.12385512700006984,14,282.07,95.7,6.4,1.5,-0.04,-0.22,0.1,0.11,0.98,-0.1,-119.9,-0.4,-9.0,-1.26,0.02,-0.18,0.0,0.9912113800799505,0.2449489742783178,0.0,0.0,2.0,0.6,0.001174281437624991,0.2,1.0,-160.0,0,0,calibrating,0,0,0,0,0,0.0
0.13174565100007385,15,282.08,95.6,6.4,1.6,-0.05,-0.21,0.08,0.11,0.98,-0.1,-119.9,0.1,5.0,-1.26,-0.02,0.14,0.0,0.9912113800799505,0.23021728866442676,0.0,0.0,2.0,0.6,0.0011507958088724513,0.2,1.0,-160.0,0,0,calibrating,0,0,0,0,0,0.0
0.14385154100000364,16,282.09,95.6,6.4,1.6,-0.06,-0.19,0.07,0.11,0.98,-0.1,-119.9,0.1,-2.0,-1.26,0.0,0.05,0.0,0.9912113800799505,0.21118712081942875,0.0,0.0,2.0,0.6,0.001127779892694969,0.2,1.0,-160.0,0,0,calibrating,0,0,0,0,0,0.0
0.15177345699999023,17,282.1,95.6,6.4,1.6,-0.05,-0.17,0.07,0.11,0.98,-0.1,-119.9,0.2,1.0,-1.26,0.0,-0.11,0.0,0.9912113800799505,0.19052558883257653,0.0,0.0,2.0,0.6,0.0011052242948410562,0.2,1.0,-160.0,0,0,calibrating,0,0,0,0,0,0.0
0.16364445099998193,18,282.11,95.6,6.4,1.6,-0.04,-0.16,0.07,0.11,0.98,-0.1,-119.9,0.7,6.0,-1.26,-0.02,0.12,0.0,0.9912113800799505,0.17916472867168917,0.0,0.0,2.0,0.6,0.0010831198089442662,0.2,1.0,-160.0,0,0,calibrating,0,0,0,0,0,0.0
0.17175458600002003,19,282.12,95.7,6.4,1.6,-0.01,-0.14,0.07,0.11,0.98,-0.1,-119.9,0.5,0.0,-1.26,-0.01,-0.21,0.0,0.9912113800799505,0.15684387141358122,0.0,0.0,2.0,0.6,0.0010614574127654208,0.2,1.0,-160.0,0,0,calibrating,0,0,0,0,0,0.0
0.18385353899998336,20,282.13,95.7,6.4,1.6,0.0,-0.13,0.07,0.11,0.98,-0.1,-119.9,0.3,-7.0,-1.26,0.0,-0.03,0.0,0.9912113800799505,0.147648230602334,0.0,0.0,2.0,0.6,0.0010402282645101124,0.2,1.0,-160.0,0,0,calibrating,0,0,0,0,0,0.0
0.19171734700000798,21,282.14,95.7,6.4,1.7,0.02,-0.11,0.09,0.11,0.98,-0.1,-119.9,-0.2,2.0,-1.26,-0.01,-0.01,0.0,0.9912113800799505,0.14352700094407325,0.0,0.0,2.0,0.6,0.0010194236992199235,0.2,1.0,-160.0,0,0,calibrating,0,0,0,0,0,0.0
0.20387229499999648,22,282.15,95.7,6.4,1.7,0.03,-0.1,0.09,0.11,0.98,-0.1,-119.9,0.1,-1.0,-1.26,0.0,-0.18,0.0,0.9912113800799505,0.13784048752090222,0.0,0.0,2.0,0.6,0.0009990352252354784,0.2,1.0,-160.0,0,0,calibrating,0,0,0,0,0,0.0
0.2117598500000213,23,282.16,95.7,6.5,1.7,0.06,-0.1,0.09,0.1,0.97,-0.11,-119.9,0.0,5.0,-1.26,0.0,-0.01,0.0,0.9813256340277675,0.14730919862656236,0.0,0.0,2.0,0.6,0.008708976610408481,0.2,1.0,-160.0,0,0,calibrating,0,0,0,0,0,0.0
0.2236837259999902,24,282.17,95.7,6.5,1.7,0.07,-0.13,0.09,0.1,0.98,-0.1,-119.9,0.0,-5.0,-1.26,0.02,-0.05,0.0,0.990151503558925,0.17291616465790582,0.0,0.0,2.0,0.6,0.000114555062334043,0.2,1.0,-160.0,0,0,calibrating,0,0,0,0,0,0.0
0.23153550400002132,25,282.18,95.7,6.5,1.7,0.09,-0.13,0.07,0.1,0.98,-0.11,-119.9,0.0,5.0,-1.26,-0.01,0.08,0.0,0.9912113800799505,0.17291616465790582,0.0,0.0,2.0,0.6,0.0011509429516922687,0.2,1.0,-160.0,0,0,calibrating,0,0,0,0,0,0.0
0.24387004700008674,26,282.19,95.7,6.5,1.7,0.08,-0.16,0.07,0.1,0.98,-0.11,-119.9,0.1,0.0,-1.26,0.0,-0.12,0.0,0.9912113800799505,0.19209372712298547,0.0,0.0,2.0,0.6,0.0011279240926583833,0.2,1.0,-160.0,0,0,calibrating,0,0,0,0,0,0.0
0.2518092710000701,27,282.2,95.8,6.5,1.7,0.06,-0.16,0.07,0.1,0.98,-0.11,-119.9,0.0,1.0,-1.26,0.0,0.03,0.0,0.9912113800799505,0.18466185312619388,0.0,0.0,2.0,0.6,0.001105365610805209,0.2,1.0,-160.0,0,0,calibrating,0,0,0,0,0,0.0
0.26378443800001605,28,282.21,95.8,6.5,1.8,0.03,-0.19,0.06,0.1,0.98,-0.11,-119.9,0.0,0.0,-1.26,0.0,-0.18,0.0,0.9912113800799505,0.20149441679609884,0.0,0.0,2.0,0.6,0.0010832582985891293,0.2,1.0,-160.0,0,0,calibrating,0,0,0,0,0,0.0
0.2717633610000121,29,282.22,95.8,6.5,1.8,0.02,-0.21,0.05,0.11,0.98,-0.11,-119.9,-0.3,-3.0,-1.26,0.0,0.14,0.0,0.9922701245124737,0.21679483388678797,0.0,0.0,2.0,0.6,0.0020991626764900184,0.2,1.0,-160.0,0,0,calibrating,0,0,0,0,0,0.0
0.2838052089999792,30,282.23,95.8,6.5,1.8,0.03,-0.2,0.04,0.11,0.98,-0.11,-119.9,0.2,-5.0,-1.26,0.02,0.14,0.0,0.9922701245124737,0.20615528128088303,0.0,0.0,2.0,0.6,0.0020571794229602425,0.2,1.0,-160.0,0,0,calibrating,0,0,0,0,0,0.0
0.29400909700007105,31,282.24,95.8,6.5,1.8,0.03,-0.19,0.04,0.11,0.98,-0.11,-119.9,-0.3,7.0,-1.26,-0.03,0.14,0.0,0.9922701245124737,0.196468827043885,0.0,0.0,2.0,0.6,0.002016035834501051,0.2,1.0,-160.0,0,0,calibrating,0,0,0,0,0,0.0
0.30376369700002215,32,282.25,95.8,6.5,1.9,0.02,-0.15,0.03,0.11,0.98,-0.11,-119.9,0.0,-3.0,-1.26,0.01,0.0,0.0,0.9922701245124737,0.15427248620541514,0.0,0.0,2.0,0.6,0.0019757151178110277,0.2,1.0,-160.0,0,0,calibrating,0,0,0,0,0,0.0
0.31170133600005556,33,282.26,95.8,6.5,1.9,0.01,-0.11,0.03,0.11,0.98,-0.11,-119.9,0.2,-2.0,-1.26,0.0,0.12,0.0,0.9922701245124737,0.11445523142259596,0.0,0.0,2.0,0.6,0.0019362008154547583,0.2,1.0,-160.0,0,0,calibrating,0,0,0,0,0,0.0
0.32384396200006904,34,282.27,95.8,6.5,1.9,0.01,-0.08,0.02,0.11,0.98,-0.11,-119.9,-0.1,3.0,-1.26,-0.01,0.07,0.0,0.9922701245124737,0.08306623862918075,0.0,0.0,2.0,0.6,0.0018974767991456476,0.2,1.0,-160.0,0,0,calibrating,0,0,0,0,0,0.0
0.33187872899998183,35,282.28,95.9,6.5,1.9,0.03,-0.05,0.01,0.11,0.98,-0.11,-119.9,0.1,0.0,-1.26,0.0,0.08,0.0,0.9922701245124737,0.05916079783099616,0.0,0.0,2.0,0.6,0.0018595272631627413,0.2,1.0,-160.0,0,0,calibrating,0,0,0,0,0,0.0
0.3437700040000209,36,282.29,95.9,6.5,1.9,0.04,-0.04,0.01,0.11,0.98,-0.11,-119.9,-0.1,-3.0,-1.26,0.0,0.05,0.0,0.9922701245124737,0.05744562646538029,0.0,0.0,2.0,0.6,0.001822336717899442,0.2,1.0,-160.0,0,0,calibrating,0,0,0,0,0,0.0
0.35159469100005936,37,282.3,95.9,6.5,1.9,0.03,-0.02,0.01,0.11,0.98,-0.11,-119.9,0.0,1.0,-1.26,0.0,0.0,0.0,0.9922701245124737,0.03741657386773942,0.0,0.0,2.0,0.6,0.0017858899835414555,0.2,1.0,-160.0,0,0,calibrating,0,0,0,0,0,0.0
0.3639752579999822,38,282.31,95.9,6.5,1.9,0.03,0.0,0.01,0.11,0.98,-0.11,-119.9,0.0,0.0,-1.26,0.0,-0.18,0.0,0.9922701245124737,0.03162277660168379,0.0,0.0,2.0,0.6,0.0017501721838706352,0.2,1.0,-160.0,0,0,calibrating,0,0,0,0,0,0.0
0.3717470999999932,39,282.32,95.9,6.5,1.9,0.04,0.01,0.01,0.11,0.98,-0.11,-119.9,-0.1,-3.0,-1.26,0.0,0.05,0.0,0.9922701245124737,0.042426406871192854,0.0,0.0,2.0,0.6,0.0017151687401931737,0.2,1.0,-160.0,0,0,calibrating,0,0,0,0,0,0.0
0.3839842849999968,40,282.33,95.9,6.5,1.9,0.04,0.03,0.01,0.11,0.98,-0.1,-119.9,0.4,6.0,-1.26,-0.02,0.07,0.0,0.9912113800799505,0.05099019513592785,0.0,0.0,2.0,0.6,0.0006432958215165652,0.2,1.0,-160.0,0,0,calibrating,0,0,0,0,0,0.0
0.39176271000008,41,282.34,95.9,6.5,1.9,0.05,0.05,0.02,0.11,0.98,-0.1,-119.9,-0.3,-7.0,-1.26,0.02,-0.12,0.0,0.9912113800799505,0.07348469228349536,0.0,0.0,2.0,0.6,0.0006304299050862161,0.2,1.0,-160.0,0,0,calibrating,0,0,0,0,0,0.0
0.4037911880000138,42,282.35,95.9,6.5,1.9,0.05,0.08,0.0,0.11,0.98,-0.1,-119.9,0.0,6.0,-1.26,-0.01,-0.12,0.0,0.9912113800799505,0.09433981132056604,0.0,0.0,2.0,0.6,0.0006178213069845118,0.2,1.0,-160.0,0,0,calibrating,0,0,0,0,0,0.0
0.4116940940000404,43,282.36,95.9,6.5,1.9,0.04,0.1,0.01,0.11,0.98,-0.1,-119.9,-0.1,0.0,-1.26,0.0,0.23,0.0,0.9912113800799505,0.10816653826391968,0.0,0.0,2.0,0.6,0.000605464880844786,0.2,1.0,-160.0,0,0,calibrating,0,0,0,0,0,0.0
0.42409190600005786,44,282.37,95.9,6.5,1.9,0.04,0.13,0.01,0.11,0.98,-0.1,-119.9,0.1,0.0,-1.26,0.0,-0.21,0.0,0.9912113800799505,0.13638181696985857,0.0,0.0,2.0,0.6,0.000593355583227928,0.2,1.0,-160.0,0,0,calibrating,0,0,0,0,0,0.0
0.43177661400000034,45,282.38,95.9,6.5,1.8,0.03,0.14,0.01,0.11,0.98,-0.1,-119.9,0.0,0.0,-1.26,0.0,0.0,0.0,0.9912113800799505,0.14352700094407325,0.0,0.0,2.0,0.6,0.0005814884715633628,0.2,1.0,-160.0,0,0,calibrating,0,0,0,0,0,0.0
0.4438282280000294,46,282.39,95.9,6.5,1.8,0.02,0.15,0.0,0.11,0.98,-0.1,-119.9,-0.3,2.0,-1.26,0.0,-0.12,0.0,0.9912113800799505,0.15132745950421556,0.0,0.0,2.0,0.6,0.0005698587021321089,0.2,1.0,-160.0,0,0,calibrating,0,0,0,0,0,0.0
0.45178647099999125,47,282.4,95.9,6.5,1.8,0.01,0.17,0.01,0.11,0.98,-0.1,-119.9,0.0,2.0,-1.26,0.0,0.14,0.0,0.9912113800799505,0.17058722109231983,0.0,0.0,2.0,0.6,0.0005584615280894711,0.2,1.0,-160.0,0,0,calibrating,0,0,0,0,0,0.0
0.46377823099999205,48,282.41,95.9,6.5,1.8,0.01,0.17,0.01,0.11,0.98,-0.09,-119.9,0.0,-4.0,-1.26,0.02,-0.12,0.0,0.9902524930541705,0.17058722109231983,0.0,0.0,2.0,0.6,0.00039241698773662126,0.2,1.0,-160.0,0,0,calibrating,0,0,0,0,0,0.0
0.4717397640000627,49,282.42,95.9,6.5,1.8,0.0,0.16,0.01,0.11,0.98,-0.09,-119.9,0.0,3.0,-1.26,0.0,0.05,0.0,0.9902524930541705,0.16031219541881397,0.0,0.0,2.0,0.6,0.0003845686479818644,0.2,1.0,-160.0,0,0,calibrating,0,0,0,0,0,0.0
0.48383133100003306,50,282.43,95.9,6.5,1.8,0.0,0.15,0.01,0.1,0.98,-0.09,-119.9,0.0,1.0,-1.26,0.0,-0.03,0.0,0.9891915891272024,0.15033296378372907,0.0,0.0,2.0,0.6,0.0014165631234509535,0.2,1.0,-160.0,0,0,calibrating,0,0,0,0,0,0.0
0.4917665790000001,51,282.44,95.9,6.5,1.8,-0.01,0.14,0.02,0.1,0.98,-0.09,-119.9,0.0,0.0,-1.26,0.0,0.14,0.0,0.9891915891272024,0.14177446878757827,0.0,0.0,2.0,0.6,0.0013882318609819144,0.2,1.0,-160.0,0,0,calibrating,0,0,0,0,0,0.0
0.5039850130000332,52,282.45,95.9,6.5,1.7,-0.01,0.1,0.01,0.1,0.98,-0.09,-119.9,0.0,-2.0,-1.26,0.0,0.05,0.0,0.9891915891272024,0.10099504938362078,0.0,0.0,2.0,0.6,0.0013604672237622628,0.2,1.0,-160.0,0,0,calibrating,0,0,0,0,0,0.0
0.5116680080000151,53,282.46,95.9,6.5,1.7,-0.03,0.07,0.01,0.1,0.98,-0.09,-119.9,0.0,5.0,-1.26,-0.02,0.03,0.0,0.9891915891272024,0.07681145747868609,0.0,0.0,2.0,0.6,0.0013332578792870642,0.2,1.0,-160.0,0,0,calibrating,0,0,0,0,0,0.0
0.5238209110000298,54,282.47,95.9,6.5,1.7,-0.03,0.02,0.01,0.1,0.98,-0.09,-119.9,0.1,-5.0,-1.26,0.02,0.05,0.0,0.9891915891272024,0.03741657386773942,0.0,0.0,2.0,0.6,0.0013065927217013051,0.2,1.0,-160.0,0,0,calibrating,0,0,0,0,0,0.0
0.5317904510000062,55,282.48,95.9,6.5,1.7,0.0,0.0,0.0,0.1,0.98,-0.09,-119.9,-0.3,4.0,-1.26,-0.01,0.14,0.0,0.9891915891272024,0.0,0.0,0.0,2.0,0.6,0.0012804608672672968,0.2,1.0,-160.0,0,0,calibrating,0,0,0,0,0,0.0
0.5437308200000643,56,282.49,95.9,6.5,1.7,-0.01,-0.07,-0.01,0.1,0.98,-0.09,-119.9,0.2,1.0,-1.26,0.0,-0.43,0.0,0.9891915891272024,0.07141428428542851,0.0,0.0,2.0,0.6,0.0012548516499218954,0.2,1.0,-160.0,0,0,calibrating,0,0,0,0,0,0.0
0.551795191999986,57,282.5,95.9,6.5,1.7,0.0,-0.1,-0.01,0.1,0.98,-0.1,-119.9,-0.1,0.0,-1.26,0.0,-0.28,0.0,0.990151503558925,0.1004987562112089,0.0,0.0,2.0,0.6,0.00028903847383532355,0.2,1.0,-160.0,0,0,calibrating,0,0,0,0,0,0.0
0.5638371250000773,58,282.51,95.9,6.5,1.7,-0.01,-0.13,-0.02,0.1,0.98,-0.1,-119.9,0.0,-4.0,-1.26,0.01,-0.19,0.0,0.990151503558925,0.1319090595827292,0.0,0.0,2.0,0.6,0.0002832577043586637,0.2,1.0,-160.0,0,0,calibrating,0,0,0,0,0,0.0
0.5717544130000078,59,282.52,95.9,6.5,1.8,-0.02,-0.15,-0.03,0.11,0.98,-0.1,-119.9,0.3,7.0,-1.26,-0.02,-0.28,0.0,0.9912113800799505,0.15427248620541514,0.0,0.0,2.0,0.6,0.0007610864403334583,0.2,1.0,-160.0,0,0,calibrating,0,0,0,0,0,0.0
0.583722410000064,60,282.53,95.9,6.5,1.8,-0.04,-0.17,-0.03,0.11,0.99,-0.1,-119.9,-0.3,-3.0,-1.26,0.0,-0.21,0.0,1.0010993956645864,0.17720045146669353,0.0,0.0,2.0,0.6,0.010436119984470027,0.2,1.0,-160.0,0,0,calibrating,0,0,0,0,0,0.0
0.5916921610000827,61,282.54,95.9,6.5,1.8,-0.07,-0.17,-0.03,0.11,0.99,-0.1,-119.9,-0.3,4.0,-1.26,-0.01,0.14,0.0,1.0010993956645864,0.18627936010197158,0.0,0.0,2.0,0.6,0.01022739758478064,0.2,1.0,-160.0,0,0,calibrating,0,0,0,0,0,0.0
0.6038536080000085,62,282.55,95.9,6.5,1.8,-0.1,-0.16,-0.04,0.11,0.99,-0.1,-119.9,0.1,-1.0,-1.26,0.0,-0.12,0.0,1.0010993956645864,0.1928730152198591,0.0,0.0,2.0,0.6,0.010022849633084974,0.2,1.0,-160.0,0,0,calibrating,0,0,0,0,0,0.0
0.6117510200000424,63,282.56,95.9,6.5,1.8,-0.15,-0.15,-0.04,0.11,0.99,-0.1,-119.9,-0.1,0.0,-1.26,0.0,0.03,0.0,1.0010993956645864,0.215870331449229,0.0,0.0,2.0,0.6,0.009822392640423283,0.2,1.0,-160.0,0,0,calibrating,0,0,0,0,0,0.0
0.6237688830000252,64,282.57,95.9,6.5,1.8,-0.17,-0.14,-0.03,0.11,0.98,-0.1,-119.9,0.3,3.0,-1.26,-0.01,-0.1,0.0,0.9912113800799505,0.2222611077089287,0.0,0.0,2.0,0.6,6.431048532840045e-05,0.2,1.0,-160.0,0,0,calibrating,0,0,0,0,0,0.0
0.6317733629999793,65,282.58,95.9,6.5,1.9,-0.18,-0.11,-0.03,0.11,0.98,-0.1,-119.9,-0.4,0.0,-1.26,0.0,-0.21,0.0,0.9912113800799505,0.21307275752662516,0.0,0.0,2.0,0.6,6.302427562188129e-05,0.2,1.0,-160.0,0,0,calibrating,0,0,0,0,0,0.0
0.643783620000022,66,282.59,95.8,6.5,1.9,-0.2,-0.12,-0.02,0.11,0.98,-0.1,-119.9,0.3,0.0,-1.26,0.0,-0.03,0.0,0.9912113800799505,0.2340939982143925,0.0,0.0,2.0,0.6,6.176379010947031e-05,0.2,1.0,-160.0,0,0,calibrating,0,0,0,0,0,0.0
0.6517956769999955,67,282.6,95.8,6.5,1.9,-0.18,-0.12,-0.01,0.11,0.98,-0.1,-119.9,-0.3,0.0,-1.26,0.0,0.27,0.0,0.9912113800799505,0.21656407827707713,0.0,0.0,2.0,0.6,6.052851430726758e-05,0.2,1.0,-160.0,0,0,calibrating,0,0,0,0,0,0.0
0.6638170780000792,68,282.61,95.8,6.5,1.9,-0.16,-0.13,-0.01,0.11,0.98,-0.1,-119.9,0.5,-7.0,-1.26,0.03,0.07,0.0,0.9912113800799505,0.20639767440550294,0.0,0.0,2.0,0.6,5.931794402114221e-05,0.2,1.0,-160.0,0,0,calibrating,0,0,0,0,0,0.0
0.6717215500000293,69,282.62,95.8,6.4,1.9,-0.16,-0.12,-0.01,0.11,0.98,-0.1,-119.9,-0.4,4.0,-1.26,-0.01,-0.86,0.0,0.9912113800799505,0.20024984394500786,0.0,0.0,2.0,0.6,5.813158514067496e-05,0.2,1.0,-160.0,0,0,calibrating,0,0,0,0,0,0.0
0.683812501000034,70,282.63,95.8,6.4,1.9,-0.16,-0.11,-0.01,0.11,0.98,-0.1,-119.9,0.3,-3.0,-1.26,0.0,0.04,0.0,0.9912113800799505,0.1944222209522358,0.0,0.0,2.0,0.6,5.696895343787478e-05,0.2,1.0,-160.0,0,0,calibrating,0,0,0,0,0,0.0
0.691796318999991,71,282.64,95.8,6.4,1.9,-0.16,-0.09,-0.01,0.11,0.98,-0.1,-119.9,-0.4,3.0,-1.26,0.0,-0.04,0.0,0.9912113800799505,0.18384776310850237,0.0,0.0,2.0,0.6,5.5829574369115065e-05,0.2,1.0,-160.0,0,0,calibrating,0,0,0,0,0,0.0
0.7037550390000433,72,282.65,95.8,6.4,1.9,-0.17,-0.08,0.0,0.11,0.98,-0.1,-119.9,0.0,0.0,-1.26,0.0,0.13,0.0,0.9912113800799505,0.18788294228055938,0.0,0.0,2.0,0.6,5.4712982881732763e-05,0.2,1.0,-160.0,0,0,calibrating,0,0,0,0,0,0.0
0.7115582239999867,73,282.66,95.8,6.4,1.9,-0.14,-0.07,-0.01,0.12,0.98,-0.1,-119.9,0.2,-1.0,-1.26,0.0,0.13,0.0,0.9923708984044222,0.15684387141358122,0.0,0.0,2.0,0.6,0.0010827092347581724,0.2,1.0,-160.0,0,0,calibrating,0,0,0,0,0,0.0
0.7238530530000844,74,282.67,95.7,6.4,2.0,-0.12,-0.06,-0.01,0.12,0.98,-0.1,-119.9,0.0,3.0,-1.26,-0.01,-0.08,0.0,0.9923708984044222,0.1345362404707371,0.0,0.0,2.0,0.6,0.0010610550500630422,0.2,1.0,-160.0,0,0,calibrating,0,0,0,0,0,0.0
0.7317870440000434,75,282.68,95.7,6.5,2.0,-0.11,-0.04,-0.03,0.11,0.98,-0.1,-119.9,0.0,-6.0,-1.26,0.02,0.13,0.0,0.9912113800799505,0.12083045973594572,0.0,0.0,2.0,0.6,9.64940089205335e-05,0.2,1.0,-160.0,0,0,calibrating,0,0,0,0,0,0.0
0.7437061190000804,76,282.69,95.7,6.4,2.0,-0.09,-0.04,-0.03,0.11,0.98,-0.1,-119.9,0.0,0.0,-1.26,0.0,0.04,0.0,0.9912113800799505,0.10295630140987,0.0,0.0,2.0,0.6,9.456412874209175e-05,0.2,1.0,-160.0,0,0,calibrating,0,0,0,0,0,0.0
0.7517744699999866,77,282.7,95.7,6.4,2.0,-0.08,-0.02,-0.03,0.11,0.98,-0.1,-119.9,0.1,4.0,-1.26,-0.02,-0.28,0.0,0.9912113800799505,0.08774964387392122,0.0,0.0,2.0,0.6,9.267284616720772e-05,0.2,1.0,-160.0,0,0,calibrating,0,0,0,0,0,0.0
0.7638174690000596,78,282.71,95.7,6.4,2.0,-0.07,-0.03,-0.02,0.11,0.98,-0.1,-119.9,-0.1,-11.0,-1.26,0.03,0.2,0.0,0.9912113800799505,0.07874007874011811,0.0,0.0,2.0,0.6,9.08193892438236e-05,0.2,1.0,-160.0,0,0,calibrating,0,0,0,0,0,0.0
0.7715347450000536,79,282.72,95.7,6.4,2.0,-0.06,-0.02,-0.01,0.11,0.98,-0.1,-119.9,-0.1,12.0,-1.26,-0.03,-0.04,0.0,0.9912113800799505,0.06403124237432849,0.0,0.0,2.0,0.6,8.9003001458976e-05,0.2,1.0,-160.0,0,0,calibrating,0,0,0,0,0,0.0
0.7838205870000365,80,282.73,95.7,6.4,2.0,-0.07,0.0,0.0,0.11,0.98,-0.11,-119.9,-0.1,-11.0,-1.26,0.03,-0.13,0.0,0.9922701245124737,0.07,0.0,0.0,2.0,0.6,0.0009503466024429752,0.2,1.0,-160.0,0,0,calibrating,0,0,0,0,0,0.0
0.7917409750000388,81,282.74,95.7,6.4,2.0,-0.09,0.01,0.0,0.11,0.98,-0.11,-119.9,0.1,6.0,-1.26,-0.01,-0.04,0.0,0.9922701245124737,0.09055385138137416,0.0,0.0,2.0,0.6,0.0009313396703941601,0.2,1.0,-160.0,0,0,calibrating,0,0,0,0,0,0.0
0.8037530950000473,82,282.75,95.7,6.4,2.0,-0.09,0.03,0.02,0.11,0.98,-0.1,-119.9,-0.3,-7.0,-1.26,0.02,0.13,0.0,0.9912113800799505,0.09695359714832658,0.0,0.0,2.0,0.6,0.00012485666688644148,0.2,1.0,-160.0,0,0,calibrating,0,0,0,0,0,0.0
0.8116828930000111,83,282.76,95.7,6.4,2.0,-0.08,0.05,0.03,0.1,0.98,-0.1,-119.9,0.1,5.0,-1.26,-0.01,0.06,0.0,0.990151503558925,0.09899494936611666,0.0,0.0,2.0,0.6,0.0011610385241536125,0.2,1.0,-160.0,0,0,calibrating,0,0,0,0,0,0.0
0.82380200099999,84,282.77,95.7,6.4,2.0,-0.08,0.04,0.04,0.1,0.98,-0.1,-119.9,-0.1,-2.0,-1.26,0.0,-0.28,0.0,0.990151503558925,0.09797958971132713,0.0,0.0,2.0,0.6,0.0011378177536705003,0.2,1.0,-160.0,0,0,calibrating,0,0,0,0,0,0.0
0.831632523000053,85,282.78,95.7,6.4,2.0,-0.08,0.02,0.05,0.1,0.97,-0.1,-119.9,0.0,-3.0,-1.26,0.02,0.04,0.0,0.9802550688468793,0.09643650760992956,0.0,0.0,2.0,0.6,0.010813567416401937,0.2,1.0,-160.0,0,0,calibrating,0,0,0,0,0,0.0
0.843844908000051,86,282.79,95.7,6.4,2.0,-0.05,0.0,0.05,0.1,0.97,-0.09,-119.9,-0.6,0.0,-1.26,0.0,0.04,0.0,0.9792854537876073,0.07071067811865477,0.0,0.0,2.0,0.6,0.011547518826160452,0.2,1.0,-160.0,0,0,calibrating,0,0,0,0,0,0.0
0.8517191910000292,87,282.8,95.7,6.5,2.0,-0.04,-0.02,0.04,0.1,0.97,-0.1,-119.9,0.6,0.0,-1.26,0.0,0.02,0.0,0.9802550688468793,0.06,0.0,0.0,2.0,0.6,0.010366345691550705,0.2,1.0,-160.0,0,0,calibrating,0,0,0,0,0,0.0
0.8638742090000733,88,282.81,95.7,6.5,2.0,-0.05,-0.02,0.03,0.1,0.97,-0.1,-119.9,-0.4,0.0,-1.26,0.0,-0.13,0.0,0.9802550688468793,0.061644140029689765,0.0,0.0,2.0,0.6,0.010159018777719742,0.2,1.0,-160.0,0,0,calibrating,0,0,0,0,0,0.0
0.8717467930000566,89,282.82,95.7,6.5,2.0,-0.06,-0.02,0.02,0.11,0.97,-0.1,-119.9,0.1,-3.0,-1.26,0.01,0.04,0.0,0.9813256340277675,0.066332495807108,0.0,0.0,2.0,0.6,0.008906684524894848,0.2,1.0,-160.0,0,0,calibrating,0,0,0,0,0,0.0
0.8837990560000435,90,282.83,95.7,6.5,2.0,-0.05,-0.02,0.0,0.11,0.98,-0.09,-119.9,-0.1,5.0,-1.26,-0.01,-0.15,0.0,0.9902524930541705,0.05385164807134505,0.0,0.0,2.0,0.6,1.977101147798699e-05,0.2,1.0,-160.0,0,0,calibrating,0,0,0,0,0,0.0
0.8917701049999778,91,282.84,95.7,6.5,2.0,-0.06,-0.02,0.0,0.11,0.98,-0.09,-119.9,0.1,0.0,-1.26,0.0,0.06,0.0,0.9902524930541705,0.06324555320336758,0.0,0.0,2.0,0.6,1.937559124842725e-05,0.2,1.0,-160.0,0,0,calibrating,0,0,0,0,0,0.0
0.9037498290000485,92,282.85,95.7,6.5,2.0,-0.06,-0.03,0.01,0.1,0.98,-0.09,-119.9,0.0,6.0,-1.26,-0.03,-0.22,0.0,0.9891915891272024,0.06782329983125268,0.0,0.0,2.0,0.6,0.0010206977690052632,0.2,1.0,-160.0,0,0,calibrating,0,0,0,0,0,0.0
0.911642673000074,93,282.86,95.7,6.5,2.0,-0.06,-0.02,0.01,0.1,0.98,-0.09,-119.9,0.2,-1.0,-1.26,0.0,0.05,0.0,0.9891915891272024,0.06403124237432849,0.0,0.0,2.0,0.6,0.001000283813625158,0.2,1.0,-160.0,0,0,calibrating,0,0,0,0,0,0.0
0.9237853880000557,94,282.87,95.6,6.5,2.0,-0.07,-0.02,0.03,0.11,0.98,-0.09,-119.9,-0.4,0.0,-1.26,0.0,-0.05,0.0,0.9902524930541705,0.07874007874011811,0.0,0.0,2.0,0.6,5.94077110760427e-05,0.2,1.0,-160.0,0,0,calibrating,0,0,0,0,0,0.0
0.9317082019999816,95,282.88,95.6,6.5,2.0,-0.06,0.0,0.03,0.11,0.98,-0.1,-119.9,0.0,1.0,-1.26,0.0,-0.02,0.0,0.9912113800799505,0.0670820393249937,0.0,0.0,2.0,0.6,0.0009979288421189114,0.2,1.0,-160.0,0,0,calibrating,0,0,0,0,0,0.0
0.9437309140000707,96,282.89,95.6,6.5,2.0,-0.04,0.02,0.03,0.11,0.98,-0.09,-119.9,-0.1,1.0,-1.26,0.0,0.04,0.0,0.9902524930541705,0.053851648071345036,0.0,0.0,2.0,0.6,3.826098001213918e-05,0.2,1.0,-160.0,0,0,calibrating,0,0,0,0,0,0.0
0.9518735100000413,97,282.9,95.6,6.5,2.0,-0.04,0.04,0.04,0.11,0.98,-0.09,-119.9,-0.1,-4.0,-1.26,0.02,-0.2,0.0,0.9902524930541705,0.06928203230275509,0.0,0.0,2.0,0.6,3.7495760411898615e-05,0.2,1.0,-160.0,0,0,calibrating,0,0,0,0,0,0.0
0.9636613600000601,98,282.91,95.6,6.5,2.0,-0.02,0.07,0.03,0.11,0.98,-0.09,-119.9,0.2,3.0,-1.26,0.0,-0.02,0.0,0.9902524930541705,0.07874007874011811,0.0,0.0,2.0,0.6,3.6745845203634e-05,0.2,1.0,-160.0,0,0,calibrating,0,0,0,0,0,0.0
0.9718110109999998,99,282.92,95.6,6.5,2.0,-0.01,0.1,0.03,0.11,0.98,-0.09,-119.9,-0.1,0.0,-1.26,0.0,-0.04,0.0,0.9902524930541705,0.10488088481701516,0.0,0.0,2.0,0.6,3.601092829952357e-05,0.2,1.0,-160.0,0,0,calibrating,0,0,0,0,0,0.0
0.9838118610000492,100,282.93,95.6,6.5,2.0,0.0,0.13,0.04,0.11,0.98,-0.09,-119.9,0.0,2.0,-1.26,0.0,0.12,0.0,0.9902524930541705,0.13601470508735444,0.0,0.0,2.0,0.6,3.5290709733515335e-05,0.2,1.0,-160.0,0,0,calibrating,0,0,0,0,0,0.0
0.9916757570000527,101,282.94,95.6,6.5,1.9,0.01,0.14,0.04,0.11,0.98,-0.09,-119.9,0.0,4.0,-1.26,-0.01,-0.02,0.0,0.9902524930541705,0.14594519519326427,0.0,0.0,2.0,0.6,3.4584895538869453e-05,0.2,1.0,-160.0,0,0,calibrating,0,0,0,0,0,0.0
1.0037827030000699,102,282.95,95.6,6.5,1.9,0.03,0.14,0.03,0.11,0.98,-0.09,-119.9,-0.1,-6.0,-1.26,0.01,-0.13,0.0,0.9902524930541705,0.14628738838327796,0.0,0.0,2.0,0.6,3.3893197628143135e-05,0.2,1.0,-160.0,0,0,calibrating,0,0,0,0,0,0.0
1.0117117690000441,103,282.96,95.6,6.5,1.9,0.06,0.16,0.01,0.11,0.98,-0.09,-119.9,0.2,0.0,-1.26,0.0,-0.35,0.0,0.9902524930541705,0.1711724276862369,0.0,0.0,2.0,0.6,3.321533367561802e-05,0.2,1.0,-160.0,0,0,calibrating,0,0,0,0,0,0.0
1.023629665000044,104,282.97,95.6,6.5,1.9,0.05,0.19,0.02,0.11,0.99,-0.09,-119.9,-0.1,1.0,-1.26,0.0,-0.13,0.0,1.0001499887516871,0.19748417658131498,0.0,0.0,2.0,0.6,0.009732096810568414,0.2,1.0,-160.0,0,0,calibrating,0,0,0,0,0,0.0
1.031640838000044,105,282.98,95.6,6.5,1.9,0.05,0.21,0.01,0.11,0.99,-0.09,-119.9,0.0,-1.0,-1.26,0.0,-0.13,0.0,1.0001499887516871,0.21610182784974308,0.0,0.0,2.0,0.6,0.009537454874357087,0.2,1.0,-160.0,0,0,calibrating,0,0,0,0,0,0.0
1.0437907470000027,106,282.99,95.6,6.5,1.9,0.01,0.22,0.01,0.11,0.99,-0.09,-119.9,-0.3,-2.0,-1.26,0.01,0.2,0.0,1.0001499887516871,0.22045407685048604,0.0,0.0,2.0,0.6,0.009346705776869912,0.2,1.0,-160.0,0,0,calibrating,0,0,0,0,0,0.0
1.0518021909999788,107,283.0,95.6,6.5,1.8,-0.01,0.23,0.01,0.11,0.99,-0.08,-119.9,-0.2,1.0,-1.26,0.01,0.04,0.0,0.9992997548283498,0.23043437243605827,0.0,0.0,2.0,0.6,0.008326542416461913,0.2,1.0,-160.0,0,0,calibrating,0,0,0,0,0,0.0
1.0639412020000236,108,283.01,95.6,6.5,1.8,-0.03,0.22,0.02,0.1,0.99,-0.08,-119.9,0.0,2.0,-1.26,0.0,0.13,0.0,0.9982484660644363,0.22293496809607952,0.0,0.0,2.0,0.6,0.007129748579497441,0.2,1.0,-160.0,0,0,calibrating,0,0,0,0,0,0.0
1.071774462999997,109,283.02,95.6,6.5,1.8,-0.04,0.19,0.02,0.1,0.99,-0.08,-119.9,0.0,-1.0,-1.26,0.0,-0.19,0.0,0.9982484660644363,0.19519221295943134,0.0,0.0,2.0,0.6,0.00698715360790747,0.2,1.0,-160.0,0,0,calibrating,0,0,0,0,0,0.0
1.0838422740000624,110,283.03,95.6,6.5,1.8,-0.05,0.16,0.05,0.1,0.99,-0.08,-119.9,-0.1,0.0,-1.26,0.0,0.04,0.0,0.9982484660644363,0.17492855684535902,0.0,0.0,2.0,0.6,0.006847410535749332,0.2,1.0,-160.0,0,0,calibrating,0,0,0,0,0,0.0
1.091717291000009,111,283.04,95.5,6.5,1.8,-0.03,0.14,0.05,0.1,0.98,-0.07,-119.9,-0.2,0.0,-1.26,0.0,0.02,0.0,0.9875727821279806,0.15165750888103102,0.0,0.0,2.0,0.6,0.0037517079326921943,0.2,1.0,-160.0,0,0,calibrating,0,0,0,0,0,0.0
1.1038722100000768,112,283.05,95.5,6.5,1.7,0.0,0.1,0.07,0.1,0.99,-0.07,-119.9,0.0,-1.0,-1.26,0.0,0.06,0.0,0.9974968671630001,0.12206555615733704,0.0,0.0,2.0,0.6,0.006048929560280802,0.2,1.0,-160.0,0,0,calibrating,0,0,0,0,0,0.0
1.111741491000089,113,283.06,95.5,6.5,1.7,0.01,0.07,0.08,0.11,0.98,-0.07,-119.9,-0.1,-5.0,-1.26,0.03,-0.01,0.0,0.9886354231970448,0.10677078252031312,0.0,0.0,2.0,0.6,0.0027562641175610247,0.2,1.0,-160.0,0,0,calibrating,0,0,0,0,0,0.0
1.1239300570000523,114,283.07,95.5,6.5,1.7,0.01,0.02,0.06,0.1,0.98,-0.07,-119.9,0.1,6.0,-1.26,-0.01,0.2,0.0,0.9875727821279806,0.06403124237432849,0.0,0.0,2.0,0.6,0.003742527082892688,0.2,1.0,-160.0,0,0,calibrating,0,0,0,0,0,0.0
1.1317345759999853,115,283.08,95.5,6.5,1.7,0.01,-0.02,0.05,0.1,0.97,-0.07,-119.9,0.0,3.0,-1.26,-0.01,0.14,0.0,0.9776502442080194,0.05477225575051661,0.0,0.0,2.0,0.6,0.013391763702796822,0.2,1.0,-160.0,0,0,calibrating,0,0,0,0,0,0.0
1.1438111209999988,116,283.09,95.5,6.5,1.7,0.01,-0.06,0.03,0.1,0.97,-0.08,-119.9,-0.1,0.0,-1.26,0.0,-0.05,0.0,0.978417088975862,0.06782329983125268,0.0,0.0,2.0,0.6,0.012372420556255093,0.2,1.0,-160.0,0,0,calibrating,0,0,0,0,0,0.0
1.1517012620000742,117,283.1,95.5,6.5,1.7,0.01,-0.1,0.03,0.1,0.97,-0.08,-119.9,0.0,-2.0,-1.26,0.0,-0.1,0.0,0.978417088975862,0.10488088481701516,0.0,0.0,2.0,0.6,0.012124972145129975,0.2,1.0,-160.0,0,0,calibrating,0,0,0,0,0,0.0
1.1638381100000288,118,283.11,95.5,6.5,1.8,0.0,-0.14,0.01,0.1,0.98,-0.08,-119.9,0.0,1.0,-1.26,0.0,-0.03,0.0,0.9883319280484669,0.14035668847618202,0.0,0.0,2.0,0.6,0.0021659304110744904,0.2,1.0,-160.0,0,0,calibrating,0,0,0,0,0,0.0
1.17175635600006,119,283.12,95.5,6.5,1.8,-0.02,-0.16,0.01,0.1,0.98,-0.08,-119.9,-0.1,-3.0,-1.26,0.01,-0.1,0.0,0.9883319280484669,0.16155494421403513,0.0,0.0,2.0,0.6,0.0021226118028530028,0.2,1.0,-160.0,0,0,calibrating,0,0,0,0,0,0.0
1.1838277860000517,120,283.13,95.5,6.5,1.8,-0.04,-0.17,0.0,0.1,0.98,-0.08,-119.9,0.1,0.0,-1.26,0.0,-0.1,0.0,0.9883319280484669,0.1746424919657298,0.0,0.0,2.0,0.6,0.0020801595667959694,0.2,1.0,-160.0,0,0,calibrating,0,0,0,0,0,0.0
1.1917622250000477,121,283.14,95.5,6.5,1.8,-0.06,-0.16,0.0,0.11,0.98,-0.08,-119.9,0.0,2.0,-1.26,0.0,0.07,0.0,0.9893937537704591,0.17088007490635063,0.0,0.0,2.0,0.6,0.0009979671679076763,0.2,1.0,-160.0,0,0,calibrating,0,0,0,0,0,0.0
1.2038906920000727,122,283.15,95.5,6.5,1.8,-0.09,-0.15,0.0,0.11,0.98,-0.08,-119.9,0.1,-5.0,-1.26,0.01,-0.01,0.0,0.9893937537704591,0.17492855684535902,0.0,0.0,2.0,0.6,0.0009780078245494872,0.2,1.0,-160.0,0,0,calibrating,0,0,0,0,0,0.0
1.2117091559999835,123,283.16,95.4,6.5,1.8,-0.1,-0.13,0.0,0.11,0.98,-0.08,-119.9,-0.2,2.0,-1.26,0.0,0.03,0.0,0.9893937537704591,0.16401219466856726,0.0,0.0,2.0,0.6,0.0009584476680585263,0.2,1.0,-160.0,0,0,calibrating,0,0,0,0,0,0.0
1.2238793400000532,124,283.17,95.4,6.5,1.8,-0.1,-0.12,0.0,0.11,0.98,-0.08,-119.9,0.3,-3.0,-1.26,0.01,0.14,0.0,0.9893937537704591,0.1562049935181331,0.0,0.0,2.0,0.6,0.0009392787146973447,0.2,1.0,-160.0,0,0,calibrating,0,0,0,0,0,0.0
1.2318015010000636,125,283.18,95.4,6.5,1.9,-0.08,-0.1,0.0,0.11,0.98,-0.08,-119.9,-0.3,2.0,-1.26,0.0,-0.11,0.0,0.9893937537704591,0.12806248474865697,0.0,0.0,2.0,0.6,0.0009204931404034333,0.2,1.0,-160.0,0,0,calibrating,0,0,0,0,0,0.0
1.2438500289999865,126,283.19,95.4,6.5,1.9,-0.09,-0.08,0.02,0.11,0.98,-0.08,-119.9,0.0,-7.0,-1.26,0.03,-0.1,0.0,0.9893937537704591,0.12206555615733702,0.0,0.0,2.0,0.6,0.0009020832775953336,0.2,1.0,-160.0,0,0,calibrating,0,0,0,0,0,0.0
1.2517376130000457,127,283.2,95.4,6.5,1.9,-0.08,-0.08,0.01,0.11,0.97,-0.08,-119.9,0.1,4.0,-1.26,0.0,-0.03,0.0,0.9794896630388704,0.11357816691600547,0.0,0.0,2.0,0.6,0.010590050529000417,0.2,1.0,-160.0,0,0,calibrating,0,0,0,0,0,0.0
1.2639822610000238,128,283.21,95.4,6.5,1.9,-0.07,-0.07,0.02,0.11,0.97,-0.09,-119.9,-0.2,-5.0,-1.26,0.02,0.0,0.0,0.9803570778037969,0.10099504938362078,0.0,0.0,2.0,0.6,0.009528183048792438,0.2,1.0,-160.0,0,0,calibrating,0,0,0,0,0,0.0
1.2717158330000302,129,283.22,95.4,6.5,1.9,-0.04,-0.05,0.03,0.11,0.98,-0.08,-119.9,0.2,1.0,-1.26,0.0,-0.03,0.0,0.9893937537704591,0.07071067811865475,0.0,0.0,2.0,0.6,0.00048167694048761867,0.2,1.0,-160.0,0,0,calibrating,0,0,0,0,0,0.0
1.2837669550000328,130,283.23,95.4,6.5,1.9,-0.03,-0.04,0.03,0.11,0.98,-0.09,-119.9,0.0,1.0,-1.26,0.0,-0.27,0.0,0.9902524930541705,0.05830951894845301,0.0,0.0,2.0,0.6,0.0003695210963592377,0.2,1.0,-160.0,0,0,calibrating,0,0,0,0,0,0.0
1.2917642649999834,131,283.24,95.4,6.5,1.9,-0.08,-0.01,0.02,0.11,0.98,-0.09,-119.9,-0.2,-2.0,-1.26,0.0,0.0,0.0,0.9902524930541705,0.08306623862918075,0.0,0.0,2.0,0.6,0.0003621306744320263,0.2,1.0,-160.0,0,0,calibrating,0,0,0,0,0,0.0
1.3038592540000309,132,283.25,95.3,6.5,1.9,-0.12,0.0,0.0,0.11,0.98,-0.09,-119.9,0.0,-3.0,-1.26,0.02,-0.01,0.0,0.9902524930541705,0.12,0.0,0.0,2.0,0.6,0.00035488806094341463,0.2,1.0,-160.0,0,0,calibrating,0,0,0,0,0,0.0
1.3115425940000023,133,283.26,95.3,6.5,1.9,-0.13,0.02,0.01,0.11,0.98,-0.09,-119.9,0.3,5.0,-1.26,-0.02,-0.01,0.0,0.9902524930541705,0.1319090595827292,0.0,0.0,2.0,0.6,0.00034779029972453746,0.2,1.0,-160.0,0,0,calibrating,0,0,0,0,0,0.0
1.3241503049999892,134,283.27,95.3,6.5,1.9,-0.14,0.04,0.01,0.11,0.98,-0.08,-119.9,-0.1,-3.0,-1.26,0.0,0.21,0.0,0.9893937537704591,0.14594519519326427,0.0,0.0,2.0,0.6,0.0005007300043070595,0.2,1.0,-160.0,0,0,calibrating,0,0,0,0,0,0.0
1.331708580000054,135,283.28,95.3,6.5,1.9,-0.15,0.04,0.01,0.11,0.99,-0.08,-119.9,0.1,0.0,-1.26,0.0,0.03,0.0,0.9992997548283498,0.15556349186104046,0.0,0.0,2.0,0.6,0.009217165632511959,0.2,1.0,-160.0,0,0,calibrating,0,0,0,0,0,0.0
1.343936238000083,136,283.29,95.3,6.5,1.9,-0.18,0.05,0.0,0.11,0.99,-0.08,-119.9,-0.3,7.0,-1.26,-0.03,0.14,0.0,0.9992997548283498,0.18681541692269404,0.0,0.0,2.0,0.6,0.009032822319861689,0.2,1.0,-160.0,0,0,calibrating,0,0,0,0,0,0.0
1.3514952489999814,137,283.3,95.3,6.5,1.9,-0.2,0.08,0.0,0.11,0.99,-0.08,-119.9,0.1,0.0,-1.26,0.0,0.14,0.0,0.9992997548283498,0.2154065922853802,0.0,0.0,2.0,0.6,0.00885216587346449,0.2,1.0,-160.0,0,0,calibrating,0,0,0,0,0,0.0
1.3638802420000502,138,283.31,95.2,6.5,1.9,-0.19,0.1,-0.01,0.11,0.99,-0.08,-119.9,0.0,-9.0,-1.26,0.03,-0.09,0.0,0.9992997548283498,0.2149418526020468,0.0,0.0,2.0,0.6,0.00867512255599523,0.2,1.0,-160.0,0,0,calibrating,0,0,0,0,0,0.0
1.3717194380000137,139,283.32,95.2,6.5,1.8,-0.19,0.11,-0.02,0.11,0.99,-0.08,-119.9,0.0,5.0,-1.26,-0.01,-0.07,0.0,0.9992997548283498,0.220454076850486,0.0,0.0,2.0,0.6,0.008501620104875318,0.2,1.0,-160.0,0,0,calibrating,0,0,0,0,0,0.0
1.3840956380000762,140,283.33,95.2,6.5,1.8,-0.24,0.13,-0.04,0.11,0.99,-0.08,-119.9,0.0,-1.0,-1.26,0.0,0.22,0.0,0.9992997548283498,0.2758622844826744,0.0,0.0,2.0,0.6,0.008331587702777865,0.2,1.0,-160.0,0,0,calibrating,0,0,0,0,0,0.0
1.3917683140000463,141,283.34,95.1,6.5,1.8,-0.28,0.17,-0.04,0.11,0.99,-0.08,-119.9,0.0,-2.0,-1.26,0.0,-0.02,0.0,0.9992997548283498,0.33,0.0,0.0,2.0,0.6,0.008164955948722352,0.2,1.0,-160.0,0,0,calibrating,0,0,0,0,0,0.0
1.4038052470000366,142,283.35,95.1,6.5,1.8,-0.32,0.19,-0.04,0.11,0.98,-0.08,-119.9,-0.1,1.0,-1.26,0.0,0.07,0.0,0.9893937537704591,0.374299345444258,0.0,0.0,2.0,0.6,0.0017062242069849631,0.2,1.0,-160.0,0,0,calibrating,0,0,0,0,0,0.0
1.4117433580000807,143,283.36,95.1,6.5,1.8,-0.31,0.2,-0.04,0.11,0.98,-0.08,-119.9,0.0,4.0,-1.26,-0.02,0.06,0.0,0.9893937537704591,0.37107950630558945,0.0,0.0,2.0,0.6,0.0016720997228452106,0.2,1.0,-160.0,0,0,calibrating,0,0,0,0,0,0.0
1.4238543920000666,144,283.37,95.0,6.5,1.8,-0.27,0.2,-0.03,0.11,0.98,-0.07,-119.9,0.1,-1.0,-1.26,0.0,-0.02,0.0,0.9886354231970448,0.33734255586866,0.0,0.0,2.0,0.6,0.002381821690334407,0.2,1.0,-160.0,0,0,calibrating,0,0,0,0,0,0.0
1.4317663350000203,145,283.38,95.0,6.5,1.7,-0.27,0.22,-0.03,0.11,0.98,-0.08,-119.9,-0.1,1.0,-1.26,0.0,-0.11,0.0,0.9893937537704591,0.3495711658589707,0.0,0.0,2.0,0.6,0.0015910212945816626,0.2,1.0,-160.0,0,0,calibrating,0,0,0,0,0,0.0
1.4437310950000892,146,283.39,95.0,6.5,1.7,-0.28,0.24,-0.02,0.11,0.99,-0.08,-119.9,0.2,-5.0,-1.26,0.02,0.06,0.0,0.9992997548283498,0.3693237062523878,0.0,0.0,2.0,0.6,0.008148680168042821,0.2,1.0,-160.0,0,0,calibrating,0,0,0,0,0,0.0
1.451755591000051,147,283.4,94.9,6.5,1.7,-0.27,0.26,-0.01,0.11,1.0,-0.07,-119.9,-0.2,0.0,-1.26,0.0,-0.09,0.0,1.0084641788382966,0.3749666651850535,0.0,0.0,2.0,0.6,0.01696684209442989,0.2,1.0,-160.0,0,0,calibrating,0,0,0,0,0,0.0
1.4638492750000296,148,283.41,94.9,6.5,1.7,-0.31,0.27,0.0,0.11,1.0,-0.07,-119.9,0.0,2.0,-1.26,0.0,-0.04,0.0,1.0084641788382966,0.41109609582188933,0.0,0.0,2.0,0.6,0.016627505252541308,0.2,1.0,-160.0,0,0,calibrating,0,0,0,0,0,0.0
1.4717021070000555,149,283.42,94.9,6.5,1.6,-0.38,0.28,0.0,0.11,0.99,-0.07,-119.9,0.0,3.0,-1.26,0.0,-0.11,0.0,0.9985489472229191,0.47201694884823786,0.0,0.0,2.0,0.6,0.006578028164420435,0.2,1.0,-160.0,0,0,calibrating,0,0,0,0,0,0.0
1.4838276430000406,150,283.43,94.8,6.5,1.6,-0.42,0.29,0.0,0.11,0.98,-0.07,-119.9,-0.1,0.0,-1.26,0.0,0.15,0.0,0.9886354231970448,0.5103920062069938,0.0,0.0,2.0,0.6,0.0032687859442247502,0.2,1.0,-160.0,0,0,calibrating,0,0,0,0,0,0.0
1.491721396999992,151,283.44,94.8,6.5,1.6,-0.4,0.28,0.0,0.11,0.98,-0.07,-119.9,0.0,-3.0,-1.26,0.0,0.06,0.0,0.9886354231970448,0.48826222462934815,0.0,0.0,2.0,0.6,0.0032034102253402086,0.2,1.0,-160.0,0,0,calibrating,0,0,0,0,0,0.0
1.5038322579999885,152,283.45,94.7,6.6,1.5,-0.38,0.25,-0.01,0.11,0.98,-0.06,-119.9,0.0,-3.0,-1.26,0.02,0.21,0.0,0.9879777325425912,0.454972526643093,0.0,0.0,2.0,0.6,0.003783878862197887,0.2,1.0,-160.0,0,0,calibrating,0,0,0,0,0,0.0
1.5116546479999897,153,283.46,94.7,6.5,1.5,-0.37,0.22,-0.02,0.11,0.98,-0.07,-119.9,-0.2,3.0,-1.26,0.0,-0.01,0.0,0.9886354231970448,0.4309292285283049,0.0,0.0,2.0,0.6,0.003063664443589409,0.2,1.0,-160.0,0,0,calibrating,0,0,0,0,0,0.0
1.5238419859999794,154,283.47,94.6,6.5,1.5,-0.41,0.19,-0.03,0.11,0.98,-0.07,-119.9,0.0,0.0,-1.26,0.0,-0.18,0.0,0.9886354231970448,0.4528796749689701,0.0,0.0,2.0,0.6,0.0030023911547175652,0.2,1.0,-160.0,0,0,calibrating,0,0,0,0,0,0.0
1.5317748020000863,155,283.48,94.6,6.5,1.5,-0.42,0.14,-0.04,0.11,0.98,-0.07,-119.9,0.1,4.0,-1.26,-0.01,0.14,0.0,0.9886354231970448,0.44452221541785736,0.0,0.0,2.0,0.6,0.002942343331623243,0.2,1.0,-160.0,0,0,calibrating,0,0,0,0,0,0.0
1.5437000310000712,156,283.49,94.5,6.5,1.5,-0.46,0.11,-0.06,0.11,0.99,-0.07,-119.9,0.0,-8.0,-1.26,0.03,-0.43,0.0,0.9985489472229191,0.47675989764240867,0.0,0.0,2.0,0.6,0.0068317570803660965,0.2,1.0,-160.0,0,0,calibrating,0,0,0,0,0,0.0
1.5517398260000164,157,283.5,94.5,6.5,1.5,-0.54,0.12,-0.06,0.11,0.98,-0.08,-119.9,0.0,4.0,-1.26,-0.01,-0.27,0.0,0.9893937537704591,0.5564171097297422,0.0,0.0,2.0,0.6,0.002276967644652017,0.2,1.0,-160.0,0,0,calibrating,0,0,0,0,0,0.0
1.5638248679999833,158,283.51,94.4,6.5,1.4,-0.56,0.14,-0.07,0.11,0.98,-0.07,-119.9,0.4,-4.0,-1.26,0.0,-0.03,0.0,0.9886354231970448,0.5814636704042653,0.0,0.0,2.0,0.6,0.0029745922537049996,0.2,1.0,-160.0,0,0,calibrating,0,0,0,0,0,0.0
1.5717626620000829,159,283.52,94.3,6.5,1.4,-0.57,0.15,-0.08,0.12,0.98,-0.07,-119.9,-0.7,3.0,-1.26,0.0,0.14,0.0,0.9897979591815695,0.5948108943185221,0.0,0.0,2.0,0.6,0.0017758151437966552,0.2,1.0,-160.0,0,0,calibrating,0,0,0,0,0,0.0
1.5837820420000526,160,283.53,94.3,6.5,1.4,-0.57,0.17,-0.08,0.11,0.99,-0.06,-119.9,0.4,-5.0,-1.26,0.02,0.12,0.0,0.9978977903573091,0.6001666435249463,0.0,0.0,2.0,0.6,0.006197535711303992,0.2,1.0,-160.0,0,0,calibrating,0,0,0,0,0,0.0
1.5917707160000418,161,283.54,94.2,6.5,1.4,-0.58,0.19,-0.07,0.1,1.0,-0.06,-119.9,-0.3,5.0,-1.26,-0.02,-0.1,0.0,1.0067770358922576,0.6143289021363068,0.0,0.0,2.0,0.6,0.014775245621327482,0.2,1.0,-160.0,0,0,calibrating,0,0,0,0,0,0.0
1.6037793620000684,162,283.55,94.1,6.5,1.4,-0.61,0.19,-0.06,0.1,1.0,-0.06,-119.9,0.4,0.0,-1.26,0.0,-0.1,0.0,1.0067770358922576,0.6417164482853779,0.0,0.0,2.0,0.6,0.014479740708900901,0.2,1.0,-160.0,0,0,calibrating,0,0,0,0,0,0.0
1.6138114920000817,163,283.56,94.1,6.5,1.3,-0.63,0.17,-0.03,0.1,1.0,-0.05,-119.9,-0.1,0.0,-1.26,0.0,-0.27,0.0,1.0062305898749053,0.6532227797620044,0.0,0.0,2.0,0.6,0.013654628797717616,0.2,1.0,-160.0,0,0,calibrating,0,0,0,0,0,0.0
1.6237472200000411,164,283.57,94.0,6.5,1.3,-0.65,0.12,-0.03,0.1,0.99,-0.05,-119.9,0.0,0.0,-1.26,0.0,-0.25,0.0,0.9962931295557548,0.6616645675869308,0.0,0.0,2.0,0.6,0.0036428251089957175,0.2,1.0,-160.0,0,0,calibrating,0,0,0,0,0,0.0
1.631693863999999,165,283.58,93.9,6.5,1.3,-0.65,0.07,-0.04,0.09,0.99,-0.04,-119.9,0.4,3.0,-1.26,-0.01,-0.03,0.0,0.9948869282486327,0.6549809157525126,0.0,0.0,2.0,0.6,0.0021918913258361927,0.2,1.0,-160.0,0,0,calibrating,0,0,0,0,0,0.0
1.6437200840000514,166,283.59,93.8,6.5,1.3,-0.65,0.02,-0.05,0.09,0.98,-0.04,-119.9,-0.7,-9.0,-1.26,0.04,0.05,0.0,0.9849365461794988,0.6522269543648131,0.0,0.0,2.0,0.6,0.007603320928431745,0.2,1.0,-160.0,0,0,calibrating,0,0,0,0,0,0.0
1.6515034170000717,167,283.6,93.8,6.5,1.3,-0.62,0.0,-0.04,0.1,0.97,-0.04,-119.9,0.3,7.0,-1.26,-0.01,0.14,0.0,0.9759610647971567,0.6212889826803627,0.0,0.0,2.0,0.6,0.016247226264558323,0.2,1.0,-160.0,0,0,calibrating,0,0,0,0,0,0.0
1.6634603290000314,168,283.61,93.7,6.4,1.3,-0.57,-0.02,-0.03,0.1,0.97,-0.05,-119.9,-0.2,3.0,-1.26,-0.01,-0.01,0.0,0.9764220398987314,0.5711392124517454,0.0,0.0,2.0,0.6,0.015470526139723884,0.2,1.0,-160.0,0,0,calibrating,0,0,0,0,0,0.0
1.6758265880000636,169,283.62,93.6,6.4,1.3,-0.54,-0.01,-0.02,0.1,0.98,-0.05,-119.9,0.5,0.0,-1.26,0.0,0.07,0.0,0.9863569333664157,0.5404627646748664,0.0,0.0,2.0,0.6,0.005424920018598844,0.2,1.0,-160.0,0,0,calibrating,0,0,0,0,0,0.0
1.687830426000005,170,283.63,93.6,6.4,1.3,-0.54,0.01,0.0,0.11,0.97,-0.05,-119.9,-0.6,-2.0,-1.26,0.0,0.03,0.0,0.9774968030638258,0.540092584655631,0.0,0.0,2.0,0.6,0.013999349314764986,0.2,1.0,-160.0,0,0,calibrating,0,0,0,0,0,0.0
1.6997188750000305,171,283.64,93.5,6.4,1.3,-0.55,0.04,-0.01,0.11,0.98,-0.05,-119.9,0.4,0.0,-1.26,0.0,0.21,0.0,0.9874208829065749,0.5515432893255071,0.0,0.0,2.0,0.6,0.003993764082575568,0.2,1.0,-160.0,0,0,calibrating,0,0,0,0,0,0.0
1.7078579910000826,172,283.65,93.5,6.4,1.3,-0.57,0.11,-0.01,0.12,0.97,-0.05,-119.9,-0.2,0.0,-1.26,0.0,-0.01,0.0,0.9786725703727472,0.5806031346797914,0.0,0.0,2.0,0.6,0.012487235084075232,0.2,1.0,-160.0,0,0,calibrating,0,0,0,0,0,0.0
1.7157719140000154,173,283.66,93.4,6.4,1.3,-0.56,0.19,-0.02,0.12,0.97,-0.05,-119.9,0.0,-2.0,-1.26,0.0,0.14,0.0,0.9786725703727472,0.5916924876994807,0.0,0.0,2.0,0.6,0.012237490382393745,0.2,1.0,-160.0,0,0,calibrating,0,0,0,0,0,0.0
1.7277207210000824,174,283.67,93.3,6.5,1.3,-0.52,0.28,-0.03,0.12,0.97,-0.05,-119.9,0.0,1.0,-1.26,0.0,-0.11,0.0,0.9786725703727472,0.5913543776789009,0.0,0.0,2.0,0.6,0.011992740574745864,0.2,1.0,-160.0,0,0,calibrating,0,0,0,0,0,0.0
1.7357535050000479,175,283.68,93.3,6.5,1.2,-0.47,0.36,-0.04,0.12,0.97,-0.05,-119.9,0.0,0.0,-1.26,0.0,0.14,0.0,0.9786725703727472,0.5933801479658718,0.0,0.0,2.0,0.6,0.011752885763250953,0.2,1.0,-160.0,0,0,calibrating,0,0,0,0,0,0.0
1.7436636180000278,176,283.69,93.2,6.5,1.2,-0.39,0.44,-0.05,0.12,0.97,-0.05,-119.9,0.4,-3.0,-1.26,0.01,0.05,0.0,0.9786725703727472,0.5900847396772773,0.0,0.0,2.0,0.6,0.011517828047985956,0.2,1.0,-160.0,0,0,calibrating,0,0,0,0,0,0.0
1.7519068550000156,177,283.7,93.2,6.5,1.1,-0.31,0.5,-0.07,0.12,0.97,-0.05,-119.9,-0.1,1.0,-1.26,0.0,-0.19,0.0,0.9786725703727472,0.592452529743945,0.0,0.0,2.0,0.6,0.011287471487026246,0.2,1.0,-160.0,0,0,calibrating,0,0,0,0,0,0.0
1.7636795079999956,178,283.71,93.2,6.5,1.1,-0.26,0.56,-0.09,0.11,0.98,-0.05,-119.9,0.0,-1.0,-1.26,0.0,-0.01,0.0,0.9874208829065749,0.6239390995922599,0.0,0.0,2.0,0.6,0.0024883757741346324,0.2,1.0,-160.0,0,0,calibrating,0,0,0,0,0,0.0
1.7717761559999872,179,283.72,93.1,6.5,1.0,-0.22,0.63,-0.12,0.11,0.98,-0.05,-119.9,0.0,-1.0,-1.26,0.0,-0.01,0.0,0.9874208829065749,0.6780117993073572,0.0,0.0,2.0,0.6,0.002438608258651942,0.2,1.0,-160.0,0,0,calibrating,0,0,0,0,0,0.0
1.7839956520000442,180,283.73,93.1,6.4,0.9,-0.2,0.67,-0.13,0.11,0.98,-0.04,-119.9,-0.3,5.0,-1.26,-0.02,0.2,0.0,0.9869650449737316,0.711196175467782,0.0,0.0,2.0,0.6,0.002836557267665407,0.2,1.0,-160.0,0,0,calibrating,0,0,0,0,0,0.0
1.7917448910000076,181,283.74,93.1,6.4,0.9,-0.19,0.72,-0.14,0.11,0.98,-0.04,-119.9,0.1,-9.0,-1.26,0.03,0.05,0.0,0.9869650449737316,0.7576938695805846,0.0,0.0,2.0,0.6,0.00277982612231209,0.2,1.0,-160.0,0,0,calibrating,0,0,0,0,0,0.0
1.804077441000004,182,283.75,93.0,6.4,0.8,-0.18,0.74,-0.15,0.11,0.98,-0.04,-119.9,0.0,5.0,-1.26,-0.01,-0.21,0.0,0.9869650449737316,0.7762087348130011,0.0,0.0,2.0,0.6,0.002724229599865846,0.2,1.0,-160.0,0,0,calibrating,0,0,0,0,0,0.0
1.811737493999999,183,283.76,93.0,6.4,0.7,-0.14,0.77,-0.15,0.11,0.98,-0.04,-119.9,0.0,-4.0,-1.26,0.01,-0.05,0.0,0.9869650449737316,0.7968688725254613,0.0,0.0,2.0,0.6,0.0026697450078685403,0.2,1.0,-160.0,0,0,calibrating,0,0,0,0,0,0.0
1.823654296000086,184,283.77,93.0,6.4,0.6,-0.12,0.81,-0.16,0.11,0.98,-0.04,-119.9,0.0,3.0,-1.26,0.0,-0.01,0.0,0.9869650449737316,0.8343260753446461,0.0,0.0,2.0,0.6,0.0026163501077112183,0.2,1.0,-160.0,0,0,calibrating,0,0,0,0,0,0.0
1.8317293119999931,185,283.78,93.0,6.4,0.6,-0.09,0.83,-0.18,0.11,0.98,-0.04,-119.9,0.0,-1.0,-1.26,0.0,0.05,0.0,0.9869650449737316,0.854049178911847,0.0,0.0,2.0,0.6,0.002564023105557034,0.2,1.0,-160.0,0,0,calibrating,0,0,0,0,0,0.0
1.8436284929999829,186,283.79,92.9,6.4,0.5,-0.09,0.87,-0.18,0.12,0.98,-0.04,-119.9,-0.2,1.0,-1.26,0.0,0.07,0.0,0.98812954616285,0.892972563968233,0.0,0.0,2.0,0.6,0.0013715314781098664,0.2,1.0,-160.0,0,0,calibrating,0,0,0,0,0,0.0
1.8517463350000298,187,283.8,92.9,6.4,0.4,-0.09,0.91,-0.19,0.12,0.98,-0.04,-119.9,0.0,2.0,-1.26,0.0,0.22,0.0,0.98812954616285,0.9339700209321496,0.0,0.0,2.0,0.6,0.0013441008485476358,0.2,1.0,-160.0,0,0,calibrating,0,0,0,0,0,0.0
1.863576576000014,188,283.81,92.9,6.4,0.3,-0.08,0.95,-0.21,0.12,0.98,-0.04,-119.9,0.1,-2.0,-1.26,0.0,0.14,0.0,0.98812954616285,0.9762171889492625,0.0,0.0,2.0,0.6,0.0013172188315766498,0.2,1.0,-160.0,0,0,calibrating,0,0,0,0,0,0.0
1.8717810990000316,189,283.82,92.9,6.4,0.2,-0.09,0.97,-0.21,0.12,0.98,-0.04,-119.9,-0.2,-1.0,-1.26,0.0,0.07,0.0,0.98812954616285,0.9965440281292142,0.0,0.0,2.0,0.6,0.0012908744549451345,0.2,1.0,-160.0,0,0,calibrating,0,0,0,0,0,0.0
1.8836539110000103,190,283.83,92.8,6.3,0.1,-0.08,0.97,-0.22,0.11,0.98,-0.04,-119.9,0.1,-2.0,-1.26,0.01,-0.28,0.0,0.9869650449737316,0.9978476837674174,0.0,0.0,2.0,0.6,0.0024062681311822764,0.2,1.0,-160.0,0,0,calibrating,0,0,0,0,0,0.0
1.8915840860000799,191,283.84,92.8,6.3,0.0,-0.09,0.95,-0.21,0.11,0.99,-0.03,-119.9,-0.1,6.0,-1.26,-0.02,0.14,0.0,0.9965440281292142,0.9770875088752287,0.0,0.0,2.0,0.6,0.007029260723814268,0.2,1.0,-160.0,0,0,calibrating,0,0,0,0,0,0.0
1.9037480719999849,192,283.85,92.8,6.3,0.0,-0.11,0.91,-0.19,0.1,0.99,-0.03,-119.9,0.0,-8.0,-1.26,0.03,-0.03,0.0,0.9954898291795853,0.9361089680160104,0.0,0.0,2.0,0.6,0.005855560538701732,0.2,1.0,-160.0,0,0,calibrating,0,0,0,0,0,0.0
1.9117356220000374,193,283.86,92.8,6.3,-0.1,-0.13,0.87,-0.18,0.1,0.99,-0.03,-119.9,-0.3,11.0,-1.26,-0.03,-0.01,0.0,0.9954898291795853,0.897886407069402,0.0,0.0,2.0,0.6,0.005738449327927664,0.2,1.0,-160.0,0,0,calibrating,0,0,0,0,0,0.0
1.9236343950000219,194,283.87,92.7,6.3,-0.2,-0.15,0.81,-0.15,0.09,0.99,-0.03,-119.9,0.1,-8.0,-1.26,0.03,0.0,0.0,0.9945350672550466,0.8373171442171717,0.0,0.0,2.0,0.6,0.004688013655321233,0.2,1.0,-160.0,0,0,calibrating,0,0,0,0,0,0.0
1.9317767860000004,195,283.88,92.7,6.3,-0.3,-0.17,0.73,-0.13,0.09,0.99,-0.02,-119.9,0.0,2.0,-1.26,0.0,-0.12,0.0,0.9942836617384396,0.760723339986358,0.0,0.0,2.0,0.6,0.0043478759759399965,0.2,1.0,-160.0,0,0,calibrating,0,0,0,0,0,0.0
1.943674867000027,196,283.89,92.7,6.2,-0.3,-0.17,0.64,-0.11,0.09,0.99,-0.03,-119.9,0.0,0.0,-1.26,0.0,-0.01,0.0,0.9945350672550466,0.6712674578735365,0.0,0.0,2.0,0.6,0.004507295862696048,0.2,1.0,-160.0,0,0,calibrating,0,0,0,0,0,0.0
1.9516041760000462,197,283.9,92.6,6.2,-0.4,-0.18,0.56,-0.11,0.09,0.99,-0.02,-119.9,0.0,-3.0,-1.26,0.01,0.14,0.0,0.9942836617384396,0.5984145720150872,0.0,0.0,2.0,0.6,0.004170772539167311,0.2,1.0,-160.0,0,0,calibrating,0,0,0,0,0,0.0
1.9636896150000211,198,283.91,92.6,6.2,-0.5,-0.16,0.48,-0.12,0.09,0.99,-0.02,-119.9,-0.3,4.0,-1.26,-0.01,-0.05,0.0,0.9942836617384396,0.52,0.0,0.0,2.0,0.6,0.004087357088383925,0.2,1.0,-160.0,0,0,calibrating,0,0,0,0,0,0.0
1.971772761000011,199,283.92,92.6,6.2,-0.5,-0.16,0.39,-0.12,0.1,0.98,-0.02,-119.9,0.1,3.0,-1.26,-0.01,-0.03,0.0,0.985291834940288,0.4382921400162225,0.0,0.0,2.0,0.6,0.004806380315572345,0.2,1.0,-160.0,0,0,calibrating,0,0,0,0,0,0.0
1.983599885999979,200,283.93,92.5,6.2,-0.5,-0.14,0.32,-0.13,0.1,0.98,-0.03,-119.9,0.0,-1.0,-1.26,0.0,0.07,0.0,0.9855455342093535,0.3726929030716845,0.0,0.0,2.0,0.6,0.004461627425576764,0.2,1.0,-160.0,0,0,calibrating,0,0,0,0,0,0.0
1.9917339099999936,201,283.94,92.5,6.2,-0.6,-0.12,0.26,-0.14,0.1,0.98,-0.03,-119.9,0.0,5.0,-1.26,-0.01,-0.14,0.0,0.9855455342093535,0.31874754901018454,0.0,0.0,2.0,0.6,0.0043723948770652,0.2,1.0,-160.0,0,0,calibrating,0,0,0,0,0,0.0
2.0041451949999782,202,283.95,92.5,6.2,-0.6,-0.11,0.22,-0.13,0.1,0.98,-0.03,-119.9,0.0,-7.0,-1.26,0.03,0.07,0.0,0.9855455342093535,0.2782085548648711,0.0,0.0,2.0,0.6,0.004284946979523863,0.2,1.0,-160.0,0,0,calibrating,0,0,0,0,0,0.0
2.011684368000033,203,283.96,92.5,6.1,-0.6,-0.11,0.19,-0.13,0.1,0.98,-0.03,-119.9,-0.1,5.0,-1.26,-0.01,-0.12,0.0,0.9855455342093535,0.2551470164434615,0.0,0.0,2.0,0.6,0.004199248039933434,0.2,1.0,-160.0,0,0,calibrating,0,0,0,0,0,0.0
2.0240500240000756,204,283.97,92.5,6.1,-0.6,-0.12,0.14,-0.13,0.1,0.98,-0.03,-119.9,0.0,-4.0,-1.26,0.0,0.21,0.0,0.9855455342093535,0.22561028345356957,0.0,0.0,2.0,0.6,0.00411526307913479,0.2,1.0,-160.0,0,0,calibrating,0,0,0,0,0,0.0
2.031755047000047,205,283.98,92.4,6.1,-0.6,-0.12,0.12,-0.11,0.11,0.98,-0.04,-119.9,0.0,0.0,-1.26,0.0,0.14,0.0,0.9869650449737316,0.20223748416156684,0.0,0.0,2.0,0.6,0.0026418372684615665,0.2,1.0,-160.0,0,0,calibrating,0,0,0,0,0,0.0
2.0438562540000476,206,283.99,92.4,6.1,-0.7,-0.13,0.09,-0.1,0.11,0.97,-0.04,-119.9,-0.2,1.0,-1.26,0.0,0.23,0.0,0.9770363350459388,0.18708286933869708,0.0,0.0,2.0,0.6,0.012319136252329277,0.2,1.0,-160.0,0,0,calibrating,0,0,0,0,0,0.0
2.0517775409999786,207,284.0,92.4,6.1,-0.7,-0.12,0.08,-0.09,0.11,0.97,-0.04,-119.9,-0.1,-3.0,-1.26,0.01,-0.1,0.0,0.9770363350459388,0.16999999999999998,0.0,0.0,2.0,0.6,0.012072753527282654,0.2,1.0,-160.0,0,0,calibrating,0,0,0,0,0,0.0
2.0638141829999768,208,284.01,92.4,6.1,-0.7,-0.12,0.06,-0.09,0.11,0.97,-0.04,-119.9,-0.2,2.0,-1.26,0.0,0.05,0.0,0.9770363350459388,0.16155494421403513,0.0,0.0,2.0,0.6,0.011831298456737027,0.2,1.0,-160.0,0,0,calibrating,0,0,0,0,0,0.0
2.0717875850000382,209,284.02,92.4,6.1,-0.7,-0.1,0.04,-0.1,0.11,0.98,-0.04,-119.9,0.4,4.0,-1.26,-0.01,0.07,0.0,0.9869650449737316,0.1469693845669907,0.0,0.0,2.0,0.6,0.0018645367583652872,0.2,1.0,-160.0,0,0,calibrating,0,0,0,0,0,0.0
2.0837773460000335,210,284.03,92.4,6.1,-0.7,-0.09,0.02,-0.11,0.11,0.98,-0.04,-119.9,-0.4,-3.0,-1.26,0.0,0.14,0.0,0.9869650449737316,0.14352700094407325,0.0,0.0,2.0,0.6,0.0018272460231979482,0.2,1.0,-160.0,0,0,calibrating,0,0,0,0,0,0.0
2.0917485620000207,211,284.04,92.4,6.1,-0.7,-0.08,0.01,-0.13,0.12,0.98,-0.04,-119.9,-0.1,-1.0,-1.26,0.0,0.05,0.0,0.98812954616285,0.15297058540778355,0.0,0.0,2.0,0.6,0.0006494899373979957,0.2,1.0,-160.0,0,0,calibrating,0,0,0,0,0,0.0
2.1038046759999816,212,284.05,92.4,6.1,-0.7,-0.07,0.0,-0.16,0.12,0.98,-0.04,-119.9,-0.2,0.0,-1.26,0.0,-0.12,0.0,0.98812954616285,0.1746424919657298,0.0,0.0,2.0,0.6,0.0006365001386500202,0.2,1.0,-160.0,0,0,calibrating,0,0,0,0,0,0.0
2.1115936900000634,213,284.06,92.4,6.1,-0.7,-0.07,0.0,-0.2,0.12,0.97,-0.04,-119.9,0.0,-1.0,-1.26,0.0,-0.19,0.0,0.9782126558167197,0.21189620100417092,0.0,0.0,2.0,0.6,0.010342322675084725,0.2,1.0,-160.0,0,0,calibrating,0,0,0,0,0,0.0
2.1240861549999863,214,284.07,92.3,6.1,-0.7,-0.08,0.01,-0.24,0.12,0.97,-0.04,-119.9,-0.5,0.0,-1.26,0.01,0.12,0.0,0.9782126558167197,0.25317977802344327,0.0,0.0,2.0,0.6,0.010135476221583062,0.2,1.0,-160.0,0,0,calibrating,0,0,0,0,0,0.0
2.131773107000072,215,284.08,92.3,6.1,-0.7,-0.06,0.03,-0.28,0.12,0.97,-0.04,-119.9,-0.3,0.0,-1.26,0.01,0.06,0.0,0.9782126558167197,0.2879236009777594,0.0,0.0,2.0,0.6,0.009932766697151374,0.2,1.0,-160.0,0,0,calibrating,0,0,0,0,0,0.0
2.1437618780000776,216,284.09,92.3,6.0,-0.7,-0.02,0.05,-0.31,0.12,0.98,-0.05,-119.9,0.0,0.0,-1.26,0.0,0.06,0.0,0.9885848471426213,0.31464265445104544,0.0,0.0,2.0,0.6,0.000430636136175222,0.2,1.0,-160.0,0,0,calibrating,0,0,0,0,0,0.0
2.151824826000052,217,284.1,92.3,6.0,-0.7,-0.02,0.09,-0.33,0.12,0.98,-0.05,-119.9,-0.1,-1.0,-1.26,0.01,-0.19,0.0,0.9885848471426213,0.3426368339802363,0.0,0.0,2.0,0.6,0.0004220234134517664,0.2,1.0,-160.0,0,0,calibrating,0,0,0,0,0,0.0
2.163758575000088,218,284.11,92.4,6.0,-0.7,-0.03,0.13,-0.34,0.12,0.98,-0.05,-119.9,-1.4,-9.0,-1.26,0.05,0.12,0.0,0.9885848471426213,0.36523964735499354,0.0,0.0,2.0,0.6,0.0004135829451826778,0.2,1.0,-160.0,0,0,calibrating,0,0,0,0,0,0.0
2.1717534550000437,219,284.12,92.4,6.0,-0.7,-0.01,0.16,-0.34,0.12,0.98,-0.05,-120.0,-2.7,-1.0,-1.26,0.04,-0.02,0.0,0.9885848471426213,0.37589892258425006,0.0,0.0,2.0,0.6,0.0004053112862790753,0.2,1.0,-160.0,0,0,calibrating,0,0,0,0,0,0.0
2.183680836999997,220,284.13,92.4,6.0,-0.8,0.0,0.19,-0.34,0.12,0.98,-0.05,-120.0,-1.4,9.0,-1.25,0.01,-0.11,0.0,0.9885848471426213,0.38948684188300897,0.0,0.0,2.0,0.6,0.00039720506055351823,0.2,1.0,-160.0,0,0,calibrating,0,0,0,0,0,0.0
2.1917900419999796,221,284.14,92.4,5.9,-0.8,0.0,0.23,-0.35,0.13,0.97,-0.05,-120.0,-0.8,8.0,-1.25,0.0,-0.02,0.0,0.9799489782636644,0.41880783182743847,0.0,0.0,2.0,0.6,0.008073890542035222,0.2,1.0,-160.0,0,0,calibrating,0,0,0,0,0,0.0
2.2037797420000516,222,284.15,92.4,5.9,-0.8,0.0,0.28,-0.36,0.13,0.98,-0.05,-120.0,-1.0,-5.0,-1.25,0.03,0.05,0.0,0.9898484732523458,0.4560701700396552,0.0,0.0,2.0,0.6,0.0017890923577131845,0.2,1.0,-160.0,0,0,calibrating,0,0,0,0,0,0.0
2.2118166520000386,223,284.16,92.4,5.9,-0.8,0.01,0.34,-0.38,0.14,0.98,-0.05,-120.0,-2.4,-12.0,-1.25,0.08,0.05,0.0,0.9912113800799504,0.51,0.0,0.0,2.0,0.6,0.003088959201611452,0.2,1.0,-160.0,0,0,calibrating,0,0,0,0,0,0.0
2.2237699720000137,224,284.17,92.4,5.9,-0.9,0.02,0.4,-0.39,0.14,0.98,-0.05,-120.1,-4.7,-26.0,-1.25,0.19,0.09,0.0,0.9912113800799504,0.5590169943749475,0.0,0.0,2.0,0.6,0.0030271800175791785,0.2,1.0,-160.0,0,0,calibrating,0,0,0,0,0,0.0
2.231894827000019,225,284.18,92.4,5.9,-0.9,0.0,0.47,-0.41,0.15,0.98,-0.05,-120.1,-11.0,-60.0,-1.25,0.4,0.0,0.0,0.9926731586982696,0.623698645180507,0.0,0.0,2.0,0.6,0.004399179463180247,0.2,1.0,-160.0,0,0,calibrating,0,0,0,0,0,0.0
2.2436148630000616,226,284.19,92.4,5.9,-1.0,0.0,0.55,-0.44,0.15,0.98,-0.05,-120.3,-16.9,-47.0,-1.24,0.5,0.03,0.0,0.9926731586982696,0.7043436661176133,0.0,0.0,2.0,0.6,0.004311195873916596,0.2,1.0,-160.0,0,0,calibrating,0,0,0,0,0,0.0
2.2516883490000055,227,284.2,92.4,5.9,-1.0,-0.04,0.64,-0.48,0.15,0.99,-0.05,-120.5,-18.5,-18.0,-1.24,0.5,0.06,0.0,1.002546757014355,0.8009993757800314,0.0,0.0,2.0,0.6,0.013901098306201898,0.2,1.0,-160.0,0,0,calibrating,0,0,0,0,0,0.0
2.2637824720000026,228,284.21,92.4,5.8,-1.1,-0.08,0.72,-0.49,0.15,0.99,-0.05,-120.7,-21.0,-30.0,-1.23,0.61,0.04,0.0,1.002546757014355,0.8745856161634491,0.0,0.0,2.0,0.6,0.013623076340077866,0.2,1.0,-160.0,0,0,calibrating,0,0,0,0,0,0.0
2.2717381610000302,229,284.22,92.4,5.8,-1.2,-0.1,0.8,-0.5,0.14,0.98,-0.05,-120.9,-23.9,-29.0,-1.23,0.69,-0.04,0.0,0.9912113800799504,0.9486832980505139,0.0,0.0,2.0,0.6,0.002241945417559954,0.2,1.0,-160.0,0,0,calibrating,0,0,0,0,0,0.0
2.283695716000011,230,284.23,92.4,5.8,-1.3,-0.1,0.89,-0.49,0.14,0.98,-0.04,-121.2,-27.2,-30.0,-1.22,0.77,0.1,0.0,0.9907572861200667,1.0208819716304134,0.0,0.0,2.0,0.6,0.0017520944285227547,0.2,1.0,-160.0,0,0,calibrating,0,0,0,0,0,0.0
2.2918071940000573,231,284.24,92.3,5.8,-1.4,-0.12,0.98,-0.48,0.13,0.98,-0.04,-121.5,-29.8,-29.0,-1.21,0.83,-0.15,0.0,0.9893937537704591,1.0978160137290764,0.0,0.0,2.0,0.6,0.0003807908373367752,0.2,1.0,-160.0,0,0,calibrating,0,0,0,0,0,0.0
2.303723127000012,232,284.25,92.3,5.7,-1.5,-0.14,1.05,-0.47,0.13,0.98,-0.04,-121.8,-30.8,-3.0,-1.2,0.81,-0.09,0.0,0.9893937537704591,1.158878768465451,0.0,0.0,2.0,0.6,0.00037317502059008856,0.2,1.0,-160.0,0,0,calibrating,0,0,0,0,0,0.0
2.3118420120000565,233,284.26,92.3,5.7,-1.6,-0.14,1.15,-0.42,0.12,0.98,-0.03,-122.1,-30.1,4.0,-1.19,0.78,0.11,0.0,0.9877752780870758,1.23227432010896,0.0,0.0,2.0,0.6,0.0012203946495373819,0.2,1.0,-160.0,0,0,calibrating,0,0,0,0,0,0.0
2.32372521100001,234,284.27,92.3,5.7,-1.7,-0.09,1.22,-0.36,0.13,0.99,-0.03,-122.4,-28.3,5.0,-1.19,0.77,0.08,0.0,0.9989494481704267,1.275186260904657,0.0,0.0,2.0,0.6,0.009754699925137333,0.2,1.0,-160.0,0,0,calibrating,0,0,0,0,0,0.0
2.3317776390000517,235,284.28,92.2,5.7,-1.8,-0.01,1.29,-0.28,0.13,0.99,-0.02,-122.7,-29.0,3.0,-1.18,0.77,-0.04,0.0,0.9986991538997116,1.320075755401939,0.0,0.0,2.0,0.6,0.009314317541333827,0.2,1.0,-160.0,0,0,calibrating,0,0,0,0,0,0.0
2.344017710000003,236,284.29,92.2,5.7,-2.0,0.04,1.34,-0.26,0.12,0.99,-0.02,-123.0,-31.4,-20.0,-1.17,0.87,0.0,0.0,0.9974467404327911,1.365576801208925,0.0,0.0,2.0,0.6,0.00790066599292516,0.2,1.0,-160.0,0,0,calibrating,0,0,0,0,0,0.0
2.351808807999987,237,284.3,92.2,5.7,-2.1,0.14,1.38,-0.3,0.13,0.99,-0.02,-123.3,-32.7,-18.0,-1.16,0.93,-0.03,0.0,0.9986991538997116,1.4191546779685433,0.0,0.0,2.0,0.6,0.008970017870648661,0.2,1.0,-160.0,0,0,calibrating,0,0,0,0,0,0.0
2.3637473869999894,238,284.31,92.2,5.7,-2.3,0.18,1.39,-0.34,0.13,1.01,-0.02,-123.6,-34.7,-23.0,-1.15,0.98,-0.14,0.0,1.0185283501208986,1.442255178531178,0.0,0.0,2.0,0.6,0.02822322980999914,0.2,1.0,-160.0,0,0,calibrating,0,0,0,0,0,0.0
2.3717850080000744,239,284.32,92.2,5.7,-2.4,0.2,1.41,-0.48,0.13,0.98,-0.02,-124.0,-37.7,-26.0,-1.14,1.06,-0.13,0.0,0.9887871358386495,1.5028306624500312,0.0,0.0,2.0,0.6,0.0014876247828051747,0.2,1.0,-160.0,0,0,calibrating,0,0,0,0,0,0.0
2.3835805830000254,240,284.33,92.2,5.6,-2.5,0.22,1.44,-0.73,0.13,0.97,-0.03,-124.4,-38.6,-7.0,-1.13,1.04,-0.07,0.0,0.9791322688993556,1.6293863875704866,0.0,0.0,2.0,0.6,0.01091964188765715,0.2,1.0,-160.0,0,0,calibrating,0,0,0,0,0,0.0
2.3917827660000057,241,284.34,92.2,5.6,-2.7,0.06,1.55,-0.99,0.14,0.97,-0.05,-124.8,-37.6,6.0,-1.12,0.99,-0.06,0.0,0.9813256340277675,1.840163036255212,0.0,0.0,2.0,0.6,0.008551751224060267,0.2,1.0,-160.0,0,0,calibrating,0,0,0,0,0,0.0
2.403714879000063,242,284.35,92.2,5.5,-2.9,-0.01,1.79,-1.25,0.14,0.98,-0.06,-125.1,-36.3,11.0,-1.11,0.96,0.06,0.0,0.991766101457395,2.183277352971903,0.0,0.0,2.0,0.6,0.0018509418814558476,0.2,1.0,-160.0,0,0,calibrating,0,0,0,0,0,0.0
2.4116581090000864,243,284.36,92.2,5.4,-3.1,-0.07,2.08,-1.44,0.13,1.02,-0.06,-125.5,-36.0,-5.0,-1.1,1.01,-0.06,0.0,1.03,2.5307903903721463,0.0,0.0,2.0,0.6,0.03928314361557972,0.2,1.0,-160.0,0,0,calibrating,0,0,0,0,0,0.0
2.4237246470000855,244,284.37,92.2,5.3,-3.3,-0.31,2.44,-1.49,0.12,1.03,-0.07,-125.8,-36.1,3.0,-1.09,0.98,0.1,0.0,1.0393267051317405,2.8757259952923193,0.0,0.0,2.0,0.6,0.04763765177237378,0.2,1.0,-160.0,0,0,calibrating,0,0,0,0,0,0.0
2.4315388940000275,245,284.38,92.1,5.2,-3.6,-0.65,2.81,-1.42,0.11,1.03,-0.07,-126.2,-36.3,-1.0,-1.08,1.0,0.0,0.0,1.0382196299434912,3.2148094811357018,0.0,0.0,2.0,0.6,0.045599965052441904,0.2,1.0,-160.0,0,0,calibrating,0,0,0,0,0,0.0
2.4437108440000657,246,284.39,92.0,5.0,-3.9,-0.95,3.15,-1.28,0.09,1.01,-0.08,-126.6,-36.9,-3.0,-1.07,1.0,-0.09,0.0,1.017152889196113,3.5303540898895682,0.0,0.0,2.0,0.6,0.024042559818962528,0.2,1.0,-160.0,0,0,calibrating,0,0,0,0,0,0.0
2.4517817280000145,247,284.4,91.9,4.9,-4.2,-1.0,3.46,-1.09,0.07,1.0,-0.07,-127.0,-37.3,1.0,-1.06,0.99,0.06,0.0,1.0048880534666536,3.762937682183961,0.0,0.0,2.0,0.6,0.011542169607713038,0.2,1.0,-160.0,0,0,calibrating,0,0,0,0,0,0.0
2.46362947800003,248,284.41,91.8,4.8,-4.6,-0.96,3.67,-0.87,0.04,0.99,-0.07,-127.3,-33.9,33.0,-1.05,0.84,-0.04,0.0,0.9932774033471213,3.891966084127661,0.0,0.0,2.0,0.6,6.711090158284527e-05,0.2,1.0,-160.0,0,0,calibrating,0,0,0,0,0,0.0
2.4716749170000867,249,284.42,91.7,4.7,-5.0,-0.98,3.8,-0.66,0.01,0.99,-0.06,-127.6,-31.2,10.0,-1.04,0.86,0.14,0.0,0.9918669265581951,3.9794471977901655,0.0,0.0,2.0,0.6,0.0014480359366989548,0.2,1.0,-160.0,0,0,calibrating,0,0,0,0,0,0.0
2.4836613800000578,250,284.43,91.6,4.6,-5.3,-1.12,3.88,-0.49,0.0,0.99,-0.06,-127.9,-31.6,11.0,-1.03,0.83,0.13,0.0,0.9918165152889924,4.068033923162392,0.0,0.0,2.0,0.6,0.0014684782617836456,0.2,1.0,-160.0,0,0,calibrating,0,0,0,0,0,0.0
2.4917721250000113,251,284.44,91.5,4.6,-5.7,-1.26,3.93,-0.31,0.0,0.99,-0.06,-128.2,-29.8,19.0,-1.03,0.77,-0.01,0.0,0.9918165152889924,4.138671284361685,0.0,0.0,2.0,0.6,0.0014391086965479527,0.2,1.0,-160.0,0,0,calibrating,0,0,0,0,0,0.0
2.503655201000015,252,284.45,91.3,4.5,-6.1,-1.27,3.87,-0.18,-0.01,0.98,-0.05,-128.5,-25.9,32.0,-1.02,0.65,-0.12,0.0,0.9813256340277675,4.077033235086513,0.0,0.0,2.0,0.6,0.01169139015861742,0.2,1.0,-160.0,0,0,calibrating,0,0,0,0,0,0.0
2.511769505000075,253,284.46,91.2,4.4,-6.5,-1.09,3.71,-0.12,-0.02,0.99,-0.04,-128.7,-21.4,56.0,-1.01,0.45,0.14,0.0,0.9910095862301231,3.8686690217696316,0.0,0.0,2.0,0.6,0.0019672891971365125,0.2,1.0,-160.0,0,0,calibrating,0,0,0,0,0,0.0
2.52372939899999,254,284.47,91.1,4.4,-6.9,-0.89,3.46,-0.13,-0.03,1.0,-0.04,-128.9,-11.1,81.0,-1.01,0.2,-0.14,0.0,1.0012492197250393,3.5749965034947935,0.0,0.0,2.0,0.6,0.008106897411824132,0.2,1.0,-160.0,0,0,calibrating,0,0,0,0,0,0.0
2.5318157350000092,255,284.48,91.0,4.3,-7.2,-0.81,3.15,-0.16,-0.03,1.01,-0.03,-129.0,-4.2,74.0,-1.01,0.01,0.13,0.0,1.0108906963663282,3.2564090652127846,0.0,0.0,2.0,0.6,0.017393406572050796,0.2,1.0,-160.0,0,0,calibrating,0,0,0,0,0,0.0
2.5436776039999813,256,284.49,90.9,4.2,-7.5,-0.73,2.78,-0.24,-0.02,1.02,-0.03,-128.9,1.9,44.0,-1.01,-0.05,-0.01,0.0,1.0206370559606386,2.884250335875858,0.0,0.0,2.0,0.6,0.02659697084303414,0.2,1.0,-160.0,0,0,calibrating,0,0,0,0,0,0.0
2.551752575000023,257,284.5,90.8,4.1,-7.7,-0.61,2.43,-0.43,-0.01,1.01,-0.03,-128.9,4.0,42.0,-1.01,-0.17,-0.01,0.0,1.0104949282406122,2.5420267504493337,0.0,0.0,2.0,0.6,0.016125746260547302,0.2,1.0,-160.0,0,0,calibrating,0,0,0,0,0,0.0
2.563636746000043,258,284.51,90.8,4.0,-8.0,-0.38,2.09,-0.7,-0.01,1.02,-0.05,-128.8,11.7,88.0,-1.02,-0.49,0.12,0.0,1.0212737145349429,2.236626924634504,0.0,0.0,2.0,0.6,0.026366441903780458,0.2,1.0,-160.0,0,0,calibrating,0,0,0,0,0,0.0
2.5717849910000723,259,284.52,90.7,3.9,-8.2,-0.33,1.9,-0.93,-0.01,1.03,-0.06,-128.6,27.0,128.0,-1.02,-0.9,0.0,0.0,1.0317945531936095,2.1409810835222247,0.0,0.0,2.0,0.6,0.0361495349511981,0.2,1.0,-160.0,0,0,calibrating,0,0,0,0,0,0.0
2.58365892300003,260,284.53,90.7,3.8,-8.4,-0.44,1.83,-1.13,-0.02,1.03,-0.07,-128.2,42.2,160.0,-1.04,-1.38,-0.1,0.0,1.032569610244268,2.195313189501671,0.0,0.0,2.0,0.6,0.03618610016181978,0.2,1.0,-160.0,0,0,calibrating,0,0,0,0,0,0.0
2.5917347619999873,261,284.54,90.7,3.6,-8.5,-0.58,1.79,-1.24,-0.02,1.02,-0.07,-127.7,62.3,194.0,-1.05,-1.96,-0.05,0.0,1.0225947388873071,2.253464000156204,0.0,0.0,2.0,0.6,0.02568700422876169,0.2,1.0,-160.0,0,0,calibrating,0,0,0,0,0,0.0
2.603703610000025,262,284.55,90.6,3.5,-8.7,-0.74,1.76,-1.28,-0.02,1.01,-0.07,-126.9,85.5,221.0,-1.08,-2.61,-0.21,0.0,1.0126203632161461,2.298608274587038,0.0,0.0,2.0,0.6,0.015398375986448665,0.2,1.0,-160.0,0,0,calibrating,0,0,0,0,0,0.0
2.6117833320000727,263,284.56,90.5,3.4,-8.9,-0.83,1.7,-1.26,-0.03,1.0,-0.06,-125.9,108.8,228.0,-1.11,-3.24,0.05,0.0,1.0022474744293446,2.272993620756556,0.0,0.0,2.0,0.6,0.004924977455654012,0.2,1.0,-160.0,0,0,calibrating,0,0,0,0,0,0.0
2.62367469000003,264,284.57,90.4,3.3,-9.1,-0.86,1.62,-1.19,-0.03,0.99,-0.05,-124.6,131.6,223.0,-1.15,-3.84,0.16,0.0,0.9917156850630123,2.186343980255623,0.0,0.0,2.0,0.6,0.005494675672464644,0.2,1.0,-160.0,0,0,calibrating,0,0,0,0,0,0.0
2.631674899000018,265,284.58,90.3,3.1,-9.2,-0.86,1.51,-1.08,-0.04,0.99,-0.05,-123.2,153.3,215.0,-1.19,-4.41,0.01,0.0,0.9920685460188726,2.0459960899278373,0.0,0.0,2.0,0.6,0.0050389784222723,0.2,1.0,-160.0,0,0,calibrating,0,0,0,0,0,0.0
2.643701900999986,266,284.59,90.3,2.9,-9.4,-0.84,1.42,-0.98,-0.04,0.98,-0.05,-121.5,173.9,204.0,-1.24,-4.95,-0.16,0.0,0.982089608946149,1.9189580506097572,0.0,0.0,2.0,0.6,0.01471755718509593,0.2,1.0,-160.0,0,0,calibrating,0,0,0,0,0,0.0
2.6517307920000803,267,284.6,90.2,2.8,-9.5,-0.82,1.34,-0.88,-0.03,0.98,-0.05,-119.6,191.9,179.0,-1.29,-5.4,-0.06,0.0,0.9817331613019904,1.8006665432555802,0.0,0.0,2.0,0.6,0.014772524732669545,0.2,1.0,-160.0,0,0,calibrating,0,0,0,0,0,0.0
2.663703006999981,268,284.61,90.1,2.7,-9.6,-0.83,1.27,-0.8,-0.02,0.98,-0.06,-117.6,209.2,182.0,-1.35,-5.92,-0.11,0.0,0.9820386957752734,1.7151676302915702,0.0,0.0,2.0,0.6,0.014177650454198831,0.2,1.0,-160.0,0,0,calibrating,0,0,0,0,0,0.0
2.6718231739999965,269,284.62,90.1,2.5,-9.7,-0.83,1.22,-0.71,-0.01,0.97,-0.07,-115.4,227.6,175.0,-1.41,-6.38,-0.11,0.0,0.9725739046468397,1.6374980916019415,0.0,0.0,2.0,0.6,0.02316959275097985,0.2,1.0,-160.0,0,0,calibrating,0,0,0,0,0,0.0
2.6836135230000764,270,284.63,90.1,2.4,-9.9,-0.85,1.2,-0.63,-0.01,0.97,-0.08,-113.0,242.5,155.0,-1.48,-6.77,-0.17,0.0,0.973344748791506,1.5998124890123842,0.0,0.0,2.0,0.6,0.021950773634187293,0.2,1.0,-160.0,0,0,calibrating,0,0,0,0,0,0.0
2.6918026140000393,271,284.64,90.0,2.4,-10.0,-0.99,1.2,-0.52,-0.01,0.97,-0.08,-110.4,257.2,139.0,-1.55,-7.13,-0.21,0.0,0.973344748791506,1.6402743672934719,0.0,0.0,2.0,0.6,0.021511758161503525,0.2,1.0,-160.0,0,0,calibrating,0,0,0,0,0,0.0
2.70368725000003,272,284.65,89.9,2.3,-10.1,-1.15,1.22,-0.39,-0.02,0.96,-0.09,-107.8,265.3,76.0,-1.62,-7.23,0.02,0.0,0.9644169222903546,1.7213366899011942,0.0,0.0,2.0,0.6,0.02983079296940183,0.2,1.0,-160.0,0,0,calibrating,0,0,0,0,0,0.0
2.711679176000075,273,284.66,89.8,2.3,-10.2,-1.28,1.16,-0.22,-0.03,0.95,-0.08,-105.2,261.7,-25.0,-1.69,-6.98,-0.16,0.0,0.9538343671728337,1.7413787640832192,0.0,0.0,2.0,0.6,0.03960508112518435,0.2,1.0,-160.0,0,0,calibrating,0,0,0,0,0,0.0
2.723702157000048,274,284.67,89.6,2.3,-10.3,-1.23,1.01,-0.05,-0.04,0.95,-0.07,-102.6,249.1,-108.0,-1.76,-6.56,0.24,0.0,0.9534149149242422,1.5923253436405513,0.0,0.0,2.0,0.6,0.03922404270630031,0.2,1.0,-160.0,0,0,calibrating,0,0,0,0,0,0.0
2.7317747820000022,275,284.68,89.5,2.3,-10.4,-1.2,0.8,0.1,-0.05,0.96,-0.06,-100.3,232.0,-151.0,-1.82,-6.08,0.08,0.0,0.96317184344228,1.445683229480096,0.0,0.0,2.0,0.6,0.02887777190449714,0.2,1.0,-160.0,0,0,calibrating,0,0,0,0,0,0.0
2.743626925000058,276,284.69,89.4,2.3,-10.5,-1.22,0.56,0.25,-0.05,0.96,-0.06,-98.1,214.6,-165.0,-1.88,-5.62,-0.01,0.0,0.96317184344228,1.3654669530969983,0.0,0.0,2.0,0.6,0.028300216466407235,0.2,1.0,-160.0,0,0,calibrating,0,0,0,0,0,0.0
2.751631340000017,277,284.7,89.3,2.3,-10.5,-1.26,0.34,0.36,-0.05,0.96,-0.06,-96.0,199.2,-149.0,-1.93,-5.25,-0.12,0.0,0.96317184344228,1.3538094400616358,0.0,0.0,2.0,0.6,0.02773421213707905,0.2,1.0,-160.0,0,0,calibrating,0,0,0,0,0,0.0
2.763758744000029,278,284.71,89.1,2.4,-10.6,-1.29,0.17,0.44,-0.05,0.97,-0.05,-94.1,188.3,-115.0,-1.98,-4.99,0.12,0.0,0.9725739046468396,1.3735355838128112,0.0,0.0,2.0,0.6,0.017965507913868972,0.2,1.0,-160.0,0,0,calibrating,0,0,0,0,0,0.0
2.771822766000014,279,284.72,89.0,2.4,-10.6,-1.4,0.0,0.56,-0.06,0.97,-0.05,-92.3,181.7,-69.0,-2.03,-4.89,0.07,0.0,0.973139250056229,1.507846145997661,0.0,0.0,2.0,0.6,0.017052159254390076,0.2,1.0,-160.0,0,0,calibrating,0,0,0,0,0,0.0
2.783931296999981,280,284.73,88.8,2.5,-10.6,-1.66,-0.18,0.78,-0.07,0.97,-0.03,-90.5,178.6,-41.0,-2.08,-4.82,0.0,0.0,0.9729850975220535,1.8429324458590444,0.0,0.0,2.0,0.6,0.016862185552794284,0.2,1.0,-160.0,0,0,calibrating,0,0,0,0,0,0.0
2.7917519180000454,281,284.74,88.7,2.6,-10.5,-1.81,-0.46,1.02,-0.07,0.95,-0.02,-88.7,177.2,-23.0,-2.13,-4.79,-0.01,0.0,0.9527853903162034,2.1279332696304176,0.0,0.0,2.0,0.6,0.03632065490347158,0.2,1.0,-160.0,0,0,calibrating,0,0,0,0,0,0.0
2.8042023650000374,282,284.75,88.5,2.7,-10.5,-1.73,-0.82,1.24,-0.08,0.92,0.0,-87.0,173.6,-38.0,-2.17,-4.65,-0.01,0.0,0.9234717104492156,2.2809866286324434,0.0,0.0,2.0,0.6,0.06432164807505014,0.2,1.0,-160.0,0,0,calibrating,0,0,0,0,0,0.0
2.8118538969999918,283,284.76,88.3,2.8,-10.4,-1.42,-1.31,1.41,-0.08,0.9,0.0,-85.3,167.2,-60.0,-2.22,-4.45,-0.06,0.0,0.9035485598461214,2.3917775816325397,0.0,0.0,2.0,0.6,0.08255990270458147,0.2,1.0,-160.0,0,0,calibrating,0,0,0,0,0,0.0
2.823660622000034,284,284.77,88.2,3.0,-10.2,-1.07,-1.85,1.54,-0.09,0.89,0.0,-83.6,159.7,-74.0,-2.26,-4.23,0.19,0.0,0.8945389874119518,2.634198170221823,0.0,0.0,2.0,0.6,0.08973808563597596,0.2,1.0,-160.0,0,0,calibrating,0,0,0,0,0,0.0
2.8318005529999937,285,284.78,88.2,3.1,-10.0,-0.75,-2.32,1.63,-0.08,0.88,-0.01,-82.1,149.0,-107.0,-2.3,-3.88,0.02,0.0,0.8836854644046149,2.9328825411188904,0.0,0.0,2.0,0.6,0.09857977647044658,0.2,1.0,-160.0,0,0,calibrating,0,0,0,0,0,0.0
2.8440736080000306,286,284.79,88.1,3.3,-9.7,-0.49,-2.72,1.66,-0.07,0.88,-0.03,-80.7,133.1,-149.0,-2.34,-3.4,0.13,0.0,0.8832893070789434,3.2239882133779587,0.0,0.0,2.0,0.6,0.09699641512019574,0.2,1.0,-160.0,0,0,calibrating,0,0,0,0,0,0.0
2.8518445450000627,287,284.8,88.1,3.5,-9.5,-0.25,-3.03,1.66,-0.05,0.87,-0.05,-79.5,114.0,-190.0,-2.37,-2.81,0.21,0.0,0.8728688332160794,3.463957274563299,0.0,0.0,2.0,0.6,0.1052685512033984,0.2,1.0,-160.0,0,0,calibrating,0,0,0,0,0,0.0
2.8636138770000343,288,284.81,88.1,3.7,-9.1,0.04,-3.29,1.59,-0.04,0.87,-0.07,-78.6,89.1,-244.0,-2.39,-2.06,0.0,0.0,0.8737276463521113,3.654285155813651,0.0,0.0,2.0,0.6,0.10232154330601939,0.2,1.0,-160.0,0,0,calibrating,0,0,0,0,0,0.0
2.87172900500002,289,284.82,88.1,3.8,-8.8,0.26,-3.48,1.52,-0.02,0.88,-0.08,-77.9,58.7,-302.0,-2.41,-1.15,-0.12,0.0,0.8838551917593741,3.8063630935579438,0.0,0.0,2.0,0.6,0.0903501179407814,0.2,1.0,-160.0,0,0,calibrating,0,0,0,0,0,0.0
2.883715402000007,290,284.83,88.2,4.0,-8.5,0.5,-3.59,1.45,-0.01,0.91,-0.1,-77.6,17.7,-388.0,-2.41,0.04,0.12,0.0,0.9155326318597279,3.9039211057602072,0.0,0.0,2.0,0.6,0.05749922428361909,0.2,1.0,-160.0,0,0,calibrating,0,0,0,0,0,0.0
2.8916136799999776,291,284.84,88.3,4.1,-8.1,0.65,-3.62,1.4,0.0,0.94,-0.12,-77.6,-15.5,-290.0,-2.4,0.64,-0.07,0.0,0.9476286192385707,3.9353398836695157,0.0,0.0,2.0,0.6,0.0248951721666808,0.2,1.0,-160.0,0,0,calibrating,0,0,0,0,0,0.0
2.9039511550000725,292,284.85,88.4,4.3,-7.7,0.68,-3.59,1.36,0.04,0.97,-0.12,-77.9,-28.2,-150.0,-2.4,0.83,-0.02,0.0,0.9782126558167197,3.8987305626318935,0.0,0.0,2.0,0.6,0.005575087123238842,0.2,1.0,-160.0,0,0,calibrating,0,0,0,0,0,0.0
2.91168441800005,293,284.86,88.5,4.4,-7.4,0.98,-3.52,1.21,0.1,0.99,-0.1,-78.2,-31.7,-67.0,-2.39,0.88,0.01,0.0,1.0000499987500624,3.8490128604617575,0.0,0.0,2.0,0.6,0.026864181455449887,0.2,1.0,-160.0,0,0,calibrating,0,0,0,0,0,0.0
2.924197134999986,294,284.87,88.6,4.5,-7.0,1.32,-3.36,0.95,0.12,1.03,-0.1,-78.5,-35.8,-73.0,-2.38,1.09,-0.05,0.0,1.0417773274553443,3.7328943194256112,0.0,0.0,2.0,0.6,0.06721967995751721,0.2,1.0,-160.0,0,0,calibrating,0,0,0,0,0,0.0
2.931747568999981,295,284.88,88.8,4.6,-6.7,1.16,-3.04,0.66,0.11,1.08,-0.11,-79.0,-45.4,-97.0,-2.36,1.39,0.2,0.0,1.091146186356347,3.3200602404173334,0.0,0.0,2.0,0.6,0.11425676808134944,0.2,1.0,-160.0,0,0,calibrating,0,0,0,0,0,0.0
2.943782424999995,296,284.89,89.0,4.7,-6.4,0.86,-2.61,0.38,0.11,1.11,-0.1,-79.5,-60.7,-141.0,-2.35,1.84,0.12,0.0,1.1199107107265294,2.7741845648766774,0.0,0.0,2.0,0.6,0.14016086660250116,0.2,1.0,-160.0,0,0,calibrating,0,0,0,0,0,0.0
2.951699209000026,297,284.9,89.1,4.7,-6.2,0.84,-2.19,0.14,0.13,1.11,-0.07,-80.2,-72.5,-105.0,-2.33,2.05,-0.02,0.0,1.1197767634667188,2.3497446669797974,0.0,0.0,2.0,0.6,0.13722638095583684,0.2,1.0,-160.0,0,0,calibrating,0,0,0,0,0,0.0
2.963705645999994,298,284.91,89.3,4.8,-6.0,1.2,-1.89,-0.13,0.18,1.09,-0.04,-81.0,-74.5,-24.0,-2.31,1.98,-0.07,0.0,1.105486318323298,2.2425431991379785,0.0,0.0,2.0,0.6,0.12047721709616754,0.2,1.0,-160.0,0,0,calibrating,0,0,0,0,0,0.0
2.9715689330000714,299,284.92,89.5,4.8,-5.8,1.79,-1.62,-0.52,0.2,1.12,-0.03,-81.7,-69.4,24.0,-2.29,1.83,-0.13,0.0,1.138112472473613,2.469595108514754,0.0,0.0,2.0,0.6,0.1500413038215529,0.2,1.0,-160.0,0,0,calibrating,0,0,0,0,0,0.0
2.983680052000068,300,284.93,89.7,4.8,-5.7,2.07,-1.22,-0.97,0.2,1.18,-0.03,-82.3,-62.9,58.0,-2.27,1.61,0.03,0.0,1.197205078505767,2.591177338585686,0.0,0.0,2.0,0.6,0.20495123165663287,0.2,1.0,-160.0,0,0,calibrating,0,0,0,0,0,0.0
2.9917689970000083,301,284.94,89.9,4.7,-5.6,1.89,-0.7,-1.36,0.19,1.24,-0.01,-82.9,-56.5,47.0,-2.26,1.51,-0.26,0.0,1.2545118572576348,2.431398774368368,0.0,0.0,2.0,0.6,0.2570128502003306,0.2,1.0,-160.0,0,0,calibrating,0,0,0,0,0,0.0
3.0037447770000654,302,284.95,90.1,4.6,-5.5,1.34,-0.33,-1.61,0.15,1.3,-0.01,-83.5,-57.1,2.0,-2.24,1.57,0.02,0.0,1.3086634403084698,2.120518804443856,0.0,0.0,2.0,0.6,0.3049411445861423,0.2,1.0,-160.0,0,0,calibrating,0,0,0,0,0,0.0
3.0114793029999873,303,284.96,90.2,4.4,-5.5,0.44,-0.13,-1.45,0.08,1.28,0.0,-84.1,-61.7,-43.0,-2.22,1.78,0.0,0.0,1.2824975633505118,1.520855022676389,0.0,0.0,2.0,0.6,0.2731997622756206,0.2,1.0,-160.0,0,0,calibrating,0,0,0,0,0,0.0
3.0241304880000826,304,284.97,90.2,4.3,-5.5,-0.25,-0.25,-0.96,-0.02,1.21,0.02,-84.8,-72.9,-103.0,-2.2,2.15,0.05,0.0,1.2103305333668155,1.0230347012687302,0.0,0.0,2.0,0.6,0.19701207764608575,0.2,1.0,-160.0,0,0,calibrating,0,0,0,0,0,0.0
3.031682837000062,305,284.98,90.1,4.2,-5.4,-0.45,-0.72,-0.4,-0.13,1.13,0.05,-85.6,-86.2,-118.0,-2.18,2.49,0.2,0.0,1.1385517116055817,0.938562730988185,0.0,0.0,2.0,0.6,0.12272859076715492,0.2,1.0,-160.0,0,0,calibrating,0,0,0,0,0,0.0
3.043637383000032,306,284.99,90.1,4.2,-5.3,-0.04,-1.52,0.04,-0.21,1.06,0.1,-86.5,-99.6,-130.0,-2.15,2.87,-0.09,0.0,1.0852188719332152,1.5210522673465234,0.0,0.0,2.0,0.6,0.06800783607289262,0.2,1.0,-160.0,0,0,calibrating,0,0,0,0,0,0.0
3.051664143000039,307,285.0,90.2,4.2,-5.1,0.6,-2.49,0.29,-0.24,1.05,0.13,-87.4,-110.4,-176.0,-2.12,3.27,0.2,0.0,1.0848963084092416,2.5776345745663796,0.0,0.0,2.0,0.6,0.06633156709794052,0.2,1.0,-160.0,0,0,calibrating,0,0,0,0,0,0.0
3.0636099140000397,308,285.01,90.3,4.2,-4.8,0.88,-3.39,0.4,-0.22,1.07,0.13,-88.9,-124.8,-119.0,-2.09,3.47,0.31,0.0,1.1000909053346455,3.525124111290268,0.0,0.0,2.0,0.6,0.07989564074287747,0.2,1.0,-160.0,0,0,calibrating,0,0,0,0,0,0.0
3.0716436830000475,309,285.02,90.4,4.3,-4.4,0.82,-4.11,0.38,-0.17,1.08,0.1,-90.1,-130.3,-66.0,-2.05,3.57,-0.03,0.0,1.0978615577567146,4.208194387145157,0.0,0.0,2.0,0.6,0.07611296730164763,0.2,1.0,-160.0,0,0,calibrating,0,0,0,0,0,0.0
3.083606529000008,310,285.03,90.5,4.3,-4.0,0.69,-4.53,0.32,-0.09,1.07,0.06,-91.4,-129.8,-2.0,-2.01,3.47,0.05,0.0,1.0754533927604673,4.593408320626417,0.0,0.0,2.0,0.6,0.05263070625929234,0.2,1.0,-160.0,0,0,calibrating,0,0,0,0,0,0.0
3.091674937999983,311,285.04,90.6,4.3,-3.5,0.63,-4.66,0.29,0.0,1.05,0.04,-92.7,-125.5,30.0,-1.98,3.34,0.04,0.0,1.0507616285342742,4.711326777034257,0.0,0.0,2.0,0.6,0.0273801631924373,0.2,1.0,-160.0,0,0,calibrating,0,0,0,0,0,0.0
3.1036927960000185,312,285.05,90.6,4.3,-3.1,0.52,-4.62,0.34,0.08,1.02,0.02,-93.9,-118.6,62.0,-1.95,3.12,-0.05,0.0,1.0233279044372825,4.661587712357239,0.0,0.0,2.0,0.6,5.248968646331953e-05,0.2,1.0,-160.0,0,0,calibrating,0,0,0,0,0,0.0
3.111586136000028,313,285.06,90.7,4.4,-2.6,0.39,-4.44,0.44,0.14,0.98,0.01,-95.1,-109.9,77.0,-1.92,2.89,-0.06,0.0,0.9899999999999999,4.478760989380881,0.0,0.0,2.0,0.6,0.03271278624127083,0.2,1.0,-160.0,0,0,calibrating,0,0,0,0,0,0.0
3.1240625780000073,314,285.07,90.8,4.5,-2.2,0.35,-4.21,0.56,0.17,0.94,0.01,-96.1,-99.7,100.0,-1.89,2.57,-0.1,0.0,0.9553009996854395,4.261478616630617,0.0,0.0,2.0,0.6,0.06606355082471482,0.2,1.0,-160.0,0,0,calibrating,0,0,0,0,0,0.0
3.131700426000066,315,285.08,90.8,4.6,-1.8,0.43,-3.96,0.68,0.19,0.92,0.02,-97.0,-88.6,108.0,-1.87,2.25,-0.15,0.0,0.9396275858019495,4.040903364348126,0.0,0.0,2.0,0.6,0.08010222541404077,0.2,1.0,-160.0,0,0,calibrating,0,0,0,0,0,0.0
3.143537150000043,316,285.09,90.9,4.6,-1.4,0.56,-3.77,0.81,0.18,0.9,0.05,-97.8,-75.7,119.0,-1.85,1.92,-0.02,0.0,0.9191844211038392,3.8964855960211118,0.0,0.0,2.0,0.6,0.09853448230990802,0.2,1.0,-160.0,0,0,calibrating,0,0,0,0,0,0.0
3.151658800000064,317,285.1,91.0,4.7,-1.0,0.67,-3.67,0.89,0.16,0.89,0.08,-98.5,-63.5,120.0,-1.83,1.57,0.06,0.0,0.9077995373429092,3.835348745551048,0.0,0.0,2.0,0.6,0.10772097874942121,0.2,1.0,-160.0,0,0,calibrating,0,0,0,0,0,0.0
3.1637473380000074,318,285.11,91.1,4.8,-0.6,0.65,-3.66,0.9,0.15,0.89,0.1,-99.0,-51.5,115.0,-1.82,1.27,-0.02,0.0,0.9080748867797193,3.8246699203983607,0.0,0.0,2.0,0.6,0.10529671672635899,0.2,1.0,-160.0,0,0,calibrating,0,0,0,0,0,0.0
3.1717168580000816,319,285.12,91.2,4.9,-0.3,0.45,-3.67,0.86,0.13,0.89,0.12,-99.5,-39.9,115.0,-1.81,0.95,-0.01,0.0,0.9074139077620532,3.7961822927778375,0.0,0.0,2.0,0.6,0.10383854182914443,0.2,1.0,-160.0,0,0,calibrating,0,0,0,0,0,0.0
3.1836457809999956,320,285.13,91.3,5.0,0.0,0.28,-3.72,0.77,0.12,0.88,0.12,-99.8,-29.5,110.0,-1.8,0.67,-0.05,0.0,0.8962142600963231,3.8091600123911835,0.0,0.0,2.0,0.6,0.11273742570497691,0.2,1.0,-160.0,0,0,calibrating,0,0,0,0,0,0.0
3.1915455270000166,321,285.14,91.3,5.0,0.4,0.15,-3.76,0.64,0.11,0.88,0.12,-100.0,-19.5,85.0,-1.8,0.47,0.02,0.0,0.8949301648732151,3.8170276394073963,0.0,0.0,2.0,0.6,0.1117410905095233,0.2,1.0,-160.0,0,0,calibrating,0,0,0,0,0,0.0
3.2037183209999966,322,285.15,91.4,5.1,0.8,0.06,-3.76,0.52,0.11,0.88,0.11,-100.2,-13.7,78.0,-1.79,0.26,-0.08,0.0,0.8936442245099556,3.7962613187187206,0.0,0.0,2.0,0.6,0.11076649025532714,0.2,1.0,-160.0,0,0,calibrating,0,0,0,0,0,0.0
3.2116803400000435,323,285.16,91.4,5.1,1.1,0.0,-3.73,0.42,0.12,0.89,0.1,-100.3,-5.5,76.0,-1.79,0.06,-0.06,0.0,0.9036038955205982,3.7535716324588773,0.0,0.0,2.0,0.6,0.09879068285979098,0.2,1.0,-160.0,0,0,calibrating,0,0,0,0,0,0.0
3.223743883999987,324,285.17,91.4,5.1,1.5,-0.1,-3.63,0.33,0.13,0.9,0.09,-100.3,0.8,61.0,-1.79,-0.06,0.18,0.0,0.9137833441248533,3.646340631372774,0.0,0.0,2.0,0.6,0.08683900957042523,0.2,1.0,-160.0,0,0,calibrating,0,0,0,0,0,0.0
3.2316438010000184,325,285.18,91.4,5.1,1.9,-0.2,-3.47,0.24,0.15,0.91,0.07,-100.2,3.2,23.0,-1.79,-0.07,-0.06,0.0,0.9249324299644812,3.4840350170456094,0.0,0.0,2.0,0.6,0.07417612525618134,0.2,1.0,-160.0,0,0,calibrating,0,0,0,0,0,0.0
3.2439778100000467,326,285.19,91.4,5.2,2.2,-0.31,-3.19,0.19,0.18,0.92,0.04,-100.2,-0.2,-17.0,-1.79,0.03,-0.08,0.0,0.9382963284591921,3.2106541389567327,0.0,0.0,2.0,0.6,0.05959598222624107,0.2,1.0,-160.0,0,0,calibrating,0,0,0,0,0,0.0
3.251684957000066,327,285.2,91.4,5.2,2.5,-0.3,-2.85,0.15,0.2,0.93,0.02,-100.2,-1.1,0.0,-1.79,0.01,-0.06,0.0,0.9514725429564429,2.869668970456349,0.0,0.0,2.0,0.6,0.04549137237441048,0.2,1.0,-160.0,0,0,calibrating,0,0,0,0,0,0.0
3.2638475869999866,328,285.21,91.4,5.2,2.8,-0.19,-2.5,0.14,0.23,0.95,0.02,-100.2,1.2,14.0,-1.79,-0.05,0.18,0.0,0.9776502442080194,2.5111152900653524,0.0,0.0,2.0,0.6,0.018927397700377324,0.2,1.0,-160.0,0,0,calibrating,0,0,0,0,0,0.0
3.2716201950000823,329,285.22,91.5,5.2,3.0,-0.01,-2.19,0.17,0.25,0.97,0.01,-100.2,0.0,-15.0,-1.79,0.04,0.0,0.0,1.00174847142384,2.1966110261036205,0.0,0.0,2.0,0.6,0.005067412925134462,0.2,1.0,-160.0,0,0,calibrating,0,0,0,0,0,0.0
3.2836610110000493,330,285.23,91.5,5.2,3.2,0.08,-1.9,0.23,0.24,0.99,0.0,-100.2,-1.2,-5.0,-1.79,0.03,-0.14,0.0,1.0186756107809787,1.9155416988413487,0.0,0.0,2.0,0.6,0.021554661236627637,0.2,1.0,-160.0,0,0,calibrating,0,0,0,0,0,0.0
3.2915446819999943,331,285.24,91.5,5.2,3.4,0.18,-1.67,0.33,0.22,1.01,-0.01,-100.2,-0.6,1.0,-1.79,0.01,0.01,0.0,1.0337311062360464,1.7117826964892477,0.0,0.0,2.0,0.6,0.035877953557861386,0.2,1.0,-160.0,0,0,calibrating,0,0,0,0,0,0.0
3.303670387000011,332,285.25,91.5,5.3,3.5,0.24,-1.46,0.47,0.19,1.05,-0.02,-100.3,-2.4,-19.0,-1.79,0.1,0.01,0.0,1.067239429556461,1.552449677123223,0.0,0.0,2.0,0.6,0.06799855134071042,0.2,1.0,-160.0,0,0,calibrating,0,0,0,0,0,0.0
3.3115760190000856,333,285.26,91.6,5.4,3.7,0.31,-1.32,0.64,0.15,1.09,-0.02,-100.3,-5.5,-29.0,-1.79,0.19,0.0,0.0,1.100454451578983,1.4993665329064807,0.0,0.0,2.0,0.6,0.09918930189596775,0.2,1.0,-160.0,0,0,calibrating,0,0,0,0,0,0.0
3.3239901650000547,334,285.27,91.6,5.5,3.8,0.33,-1.31,0.87,0.12,1.14,0.0,-100.4,-10.6,-44.0,-1.79,0.35,-0.01,0.0,1.1462983904725679,1.6068291757371098,0.0,0.0,2.0,0.6,0.14213257597376172,0.2,1.0,-160.0,0,0,calibrating,0,0,0,0,0,0.0
3.3317262180000853,335,285.28,91.6,5.6,4.0,0.18,-1.42,1.1,0.11,1.15,0.0,-100.5,-17.1,-70.0,-1.78,0.58,0.03,0.0,1.155248890932166,1.8052146686751689,0.0,0.0,2.0,0.6,0.14806141490469282,0.2,1.0,-160.0,0,0,calibrating,0,0,0,0,0,0.0
3.3439750180000374,336,285.29,91.6,5.7,4.1,-0.11,-1.64,1.25,0.1,1.12,0.01,-100.8,-25.5,-68.0,-1.77,0.75,0.15,0.0,1.1244998888394788,2.0649939467223626,0.0,0.0,2.0,0.6,0.11496616455576536,0.2,1.0,-160.0,0,0,calibrating,0,0,0,0,0,0.0
3.3517592630000763,337,285.3,91.6,5.9,4.3,-0.41,-1.89,1.32,0.09,1.08,0.01,-101.1,-32.6,-74.0,-1.76,0.97,0.04,0.0,1.083789647487002,2.341495248767334,0.0,0.0,2.0,0.6,0.0727708047392226,0.2,1.0,-160.0,0,0,calibrating,0,0,0,0,0,0.0
3.3636304670000072,338,285.31,91.5,6.0,4.5,-0.6,-2.11,1.34,0.1,1.04,0.0,-101.5,-39.9,-74.0,-1.75,1.17,0.05,0.0,1.0447966309287182,2.570544689360603,0.0,0.0,2.0,0.6,0.03310223241732002,0.2,1.0,-160.0,0,0,calibrating,0,0,0,0,0,0.0
3.371556900000087,339,285.32,91.5,6.1,4.7,-0.66,-2.28,1.32,0.11,1.0,0.0,-101.9,-47.4,-68.0,-1.74,1.35,-0.01,0.0,1.0060318086422517,2.7159528714615058,0.0,0.0,2.0,0.6,0.005549338071763499,0.2,1.0,-160.0,0,0,calibrating,0,0,0,0,0,0.0
3.383736617000068,340,285.33,91.4,6.2,5.0,-0.68,-2.36,1.31,0.13,0.98,-0.01,-102.4,-51.9,-46.0,-1.73,1.44,0.15,0.0,0.9886354231970448,2.7835409104232687,0.0,0.0,2.0,0.6,0.02248680904663114,0.2,1.0,-160.0,0,0,calibrating,0,0,0,0,0,0.0
3.391635428000086,341,285.34,91.4,6.4,5.2,-0.71,-2.39,1.33,0.14,0.98,-0.03,-103.0,-56.0,-41.0,-1.71,1.56,-0.03,0.0,0.9904039579888602,2.825791924399247,0.0,0.0,2.0,0.6,0.020303908769719436,0.2,1.0,-160.0,0,0,calibrating,0,0,0,0,0,0.0
3.4036779730000717,342,285.35,91.4,6.5,5.4,-0.72,-2.33,1.32,0.16,0.97,-0.04,-103.5,-57.2,-8.0,-1.7,1.54,-0.11,0.0,0.9839207285142436,2.773030832861402,0.0,0.0,2.0,0.6,0.026251395479449324,0.2,1.0,-160.0,0,0,calibrating,0,0,0,0,0,0.0
3.4117019920000757,343,285.36,91.3,6.7,5.7,-0.78,-2.22,1.29,0.18,0.96,-0.05,-104.1,-54.6,9.0,-1.68,1.48,0.02,0.0,0.978008179924892,2.6834492728576036,0.0,0.0,2.0,0.6,0.03152066518742491,0.2,1.0,-160.0,0,0,calibrating,0,0,0,0,0,0.0
3.4237626880000107,344,285.37,91.3,6.9,5.9,-0.88,-2.05,1.24,0.19,0.95,-0.05,-104.6,-51.6,25.0,-1.67,1.36,-0.1,0.0,0.9701030873056739,2.552351856621653,0.0,0.0,2.0,0.6,0.03863724265051027,0.2,1.0,-160.0,0,0,calibrating,0,0,0,0,0,0.0
3.431649096000001,345,285.38,91.2,7.0,6.1,-0.97,-1.85,1.19,0.2,0.93,-0.05,-105.1,-48.0,37.0,-1.65,1.24,0.03,0.0,0.9525754563287887,2.404059067493975,0.0,0.0,2.0,0.6,0.055041576154847505,0.2,1.0,-160.0,0,0,calibrating,0,0,0,0,0,0.0
3.4439576500000157,346,285.39,91.2,7.2,6.3,-0.97,-1.63,1.15,0.21,0.92,-0.05,-105.6,-44.6,33.0,-1.64,1.17,0.1,0.0,0.944986772394196,2.2181749254736425,0.0,0.0,2.0,0.6,0.061377654887651456,0.2,1.0,-160.0,0,0,calibrating,0,0,0,0,0,0.0
3.4516969119999885,347,285.4,91.1,7.3,6.4,-0.94,-1.42,1.11,0.22,0.9,-0.05,-106.0,-40.8,45.0,-1.63,1.02,0.0,0.0,0.9278469701410896,2.0327567488511753,0.0,0.0,2.0,0.6,0.07694710799794269,0.2,1.0,-160.0,0,0,calibrating,0,0,0,0,0,0.0
3.463671922000003,348,285.41,91.0,7.4,6.6,-0.9,-1.2,1.05,0.23,0.88,-0.06,-106.3,-33.6,66.0,-1.62,0.81,0.05,0.0,0.9115371632577577,1.8309833423600554,0.0,0.0,2.0,0.6,0.09139177658364905,0.2,1.0,-160.0,0,0,calibrating,0,0,0,0,0,0.0
3.471713322000028,349,285.42,91.0,7.5,6.7,-0.85,-0.97,0.96,0.23,0.87,-0.06,-106.6,-24.9,72.0,-1.62,0.61,-0.09,0.0,0.9018869108707589,1.6077935190813526,0.0,0.0,2.0,0.6,0.09902118839123508,0.2,1.0,-160.0,0,0,calibrating,0,0,0,0,0,0.0
3.483754223999995,350,285.43,90.9,7.6,6.8,-0.84,-0.74,0.82,0.23,0.86,-0.07,-106.8,-18.0,68.0,-1.61,0.41,-0.11,0.0,0.892972563968233,1.3876599006961323,0.0,0.0,2.0,0.6,0.10577682458788562,0.2,1.0,-160.0,0,0,calibrating,0,0,0,0,0,0.0
3.49166909500002,351,285.44,90.8,7.7,6.8,-0.84,-0.54,0.65,0.24,0.85,-0.07,-106.9,-9.6,88.0,-1.61,0.12,-0.26,0.0,0.8860022573334675,1.1915116449284078,0.0,0.0,2.0,0.6,0.1104921885981981,0.2,1.0,-160.0,0,0,calibrating,0,0,0,0,0,0.0
3.50369023799999,352,285.45,90.7,7.8,6.9,-0.79,-0.3,0.45,0.24,0.85,-0.08,-107.0,-1.9,62.0,-1.61,0.02,0.04,0.0,0.8868483523128404,0.9573922915921144,0.0,0.0,2.0,0.6,0.10745317174644864,0.2,1.0,-160.0,0,0,calibrating,0,0,0,0,0,0.0
3.5116991250000638,353,285.46,90.7,7.8,6.9,-0.73,-0.06,0.24,0.23,0.85,-0.08,-107.0,0.2,29.0,-1.61,-0.01,0.07,0.0,0.8841945487278238,0.7707788269017254,0.0,0.0,2.0,0.6,0.10790483582483601,0.2,1.0,-160.0,0,0,calibrating,0,0,0,0,0,0.0
3.5235380149999855,354,285.47,90.6,7.8,6.9,-0.65,0.18,0.03,0.22,0.85,-0.09,-107.0,-0.2,7.0,-1.61,0.0,0.04,0.0,0.8826097665446491,0.67512961718473,0.0,0.0,2.0,0.6,0.10729982564785046,0.2,1.0,-160.0,0,0,calibrating,0,0,0,0,0,0.0
3.5316585240000222,355,285.48,90.5,7.8,6.9,-0.55,0.43,-0.17,0.22,0.87,-0.09,-107.0,0.0,3.0,-1.61,0.0,0.07,0.0,0.9018869108707588,0.7185401867675879,0.0,0.0,2.0,0.6,0.0862622276953059,0.2,1.0,-160.0,0,0,calibrating,0,0,0,0,0,0.0
3.5439495330000454,356,285.49,90.5,7.8,6.8,-0.43,0.65,-0.34,0.21,0.89,-0.09,-107.0,-1.0,-10.0,-1.61,0.06,-0.07,0.0,0.9188579868510695,0.8502940667792526,0.0,0.0,2.0,0.6,0.06790532868069532,0.2,1.0,-160.0,0,0,calibrating,0,0,0,0,0,0.0
3.55165747500007,357,285.5,90.4,7.7,6.7,-0.31,0.85,-0.43,0.21,0.9,-0.08,-107.0,-3.3,-26.0,-1.61,0.14,-0.06,0.0,0.9276313923105449,1.0017484714238398,0.0,0.0,2.0,0.6,0.057949284756795505,0.2,1.0,-160.0,0,0,calibrating,0,0,0,0,0,0.0
3.5636295350000182,358,285.51,90.4,7.7,6.6,-0.15,0.96,-0.49,0.2,0.91,-0.07,-107.1,-9.9,-58.0,-1.6,0.35,0.05,0.0,0.9343446901438462,1.0882095386459356,0.0,0.0,2.0,0.6,0.05021126718502433,0.2,1.0,-160.0,0,0,calibrating,0,0,0,0,0,0.0
3.571535868000069,359,285.52,90.4,7.6,6.5,-0.05,1.04,-0.58,0.2,0.9,-0.07,-107.2,-15.3,-51.0,-1.6,0.48,-0.06,0.0,0.924608025057105,1.1918473056562238,0.0,0.0,2.0,0.6,0.05874897362633025,0.2,1.0,-160.0,0,0,calibrating,0,0,0,0,0,0.0
3.5836124580000615,360,285.53,90.3,7.6,6.4,0.04,1.12,-0.69,0.2,0.88,-0.07,-107.4,-18.6,-31.0,-1.59,0.54,-0.05,0.0,0.90515192095029,1.3160927019021116,0.0,0.0,2.0,0.6,0.07664097617848242,0.2,1.0,-160.0,0,0,calibrating,0,0,0,0,0,0.0
3.5915334110000003,361,285.54,90.3,7.5,6.3,0.23,1.2,-0.81,0.18,0.88,-0.07,-107.6,-24.3,-65.0,-1.59,0.78,0.12,0.0,0.9009439494219382,1.4659467930317254,0.0,0.0,2.0,0.6,0.07923196875269745,0.2,1.0,-160.0,0,0,calibrating,0,0,0,0,0,0.0
3.603522097999985,362,285.55,90.4,7.4,6.2,0.48,1.32,-0.9,0.16,0.87,-0.07,-107.9,-33.3,-83.0,-1.58,1.02,0.2,0.0,0.8873556220591606,1.6681726529349412,0.0,0.0,2.0,0.6,0.09096389019316553,0.2,1.0,-160.0,0,0,calibrating,0,0,0,0,0,0.0
3.611763407000012,363,285.56,90.5,7.3,6.0,0.79,1.41,-0.99,0.14,0.86,-0.07,-108.3,-42.9,-100.0,-1.57,1.32,-0.02,0.0,0.8741281370600079,1.895336381753909,0.0,0.0,2.0,0.6,0.10210754768847186,0.2,1.0,-160.0,0,0,calibrating,0,0,0,0,0,0.0
3.623858756000004,364,285.57,90.6,7.3,5.9,1.08,1.44,-1.04,0.12,0.87,-0.06,-108.8,-53.9,-96.0,-1.55,1.57,0.13,0.0,0.8802840450672726,2.0788458336298055,0.0,0.0,2.0,0.6,0.09403260688758297,0.2,1.0,-160.0,0,0,calibrating,0,0,0,0,0,0.0
3.631528431999982,365,285.58,90.7,7.2,5.8,1.38,1.38,-1.0,0.11,0.9,-0.04,-109.5,-64.1,-114.0,-1.53,1.91,0.07,0.0,0.9075791976461338,2.192897626429469,0.0,0.0,2.0,0.6,0.06540270522254732,0.2,1.0,-160.0,0,0,calibrating,0,0,0,0,0,0.0
3.6435283970000683,366,285.59,90.9,7.1,5.6,1.57,1.23,-0.89,0.1,0.92,-0.03,-110.2,-76.9,-119.0,-1.51,2.24,0.03,0.0,0.9259049627256569,2.184010073236843,0.0,0.0,2.0,0.6,0.046135401340163695,0.2,1.0,-160.0,0,0,calibrating,0,0,0,0,0,0.0
3.651527263000048,367,285.6,91.0,7.0,5.5,1.64,1.03,-0.75,0.1,0.94,-0.04,-111.0,-88.8,-117.0,-1.49,2.55,0.05,0.0,0.9461500938011896,2.076776348093362,0.0,0.0,2.0,0.6,0.025372464859338306,0.2,1.0,-160.0,0,0,calibrating,0,0,0,0,0,0.0
3.663546062000023,368,285.61,91.2,6.9,5.4,1.64,0.83,-0.6,0.11,0.96,-0.05,-112.0,-98.5,-100.0,-1.46,2.79,0.05,0.0,0.9675742865537508,1.9335201059208045,0.0,0.0,2.0,0.6,0.003869306664641581,0.2,1.0,-160.0,0,0,calibrating,0,0,0,0,0,0.0
3.6714962099999866,369,285.62,91.4,6.9,5.3,1.62,0.7,-0.46,0.12,0.97,-0.08,-113.0,-108.0,-94.0,-1.43,3.04,-0.08,0.0,0.9806630410084801,1.8237324365158394,0.0,0.0,2.0,0.6,0.009035058834286014,0.2,1.0,-160.0,0,0,calibrating,0,0,0,0,0,0.0
3.6831893050000417,370,285.63,91.6,6.8,5.3,1.63,0.69,-0.37,0.14,0.97,-0.1,-114.2,-116.0,-73.0,-1.4,3.21,-0.11,0.0,0.9851395840184273,1.8082864817279367,0.0,0.0,2.0,0.6,0.013241369807348469,0.2,1.0,-160.0,0,0,calibrating,0,0,0,0,0,0.0
3.691160754000066,371,285.64,91.8,6.8,5.2,1.62,0.79,-0.36,0.18,0.95,-0.14,-115.3,-120.0,-50.0,-1.36,3.3,0.0,0.0,0.9769851585361979,1.8379608265684013,0.0,0.0,2.0,0.6,0.004985205438616913,0.2,1.0,-160.0,0,0,calibrating,0,0,0,0,0,0.0
3.7036206520000405,372,285.65,91.9,6.8,5.1,1.69,1.12,-0.37,0.23,0.98,-0.17,-116.6,-124.0,-41.0,-1.33,3.41,0.15,0.0,1.0208819716304132,2.0609221237106463,0.0,0.0,2.0,0.6,0.04790437816217563,0.2,1.0,-160.0,0,0,calibrating,0,0,0,0,0,0.0
3.7156419500000766,373,285.66,92.1,6.7,5.0,1.75,1.6,-0.26,0.25,1.02,-0.17,-117.9,-126.9,-33.0,-1.3,3.48,0.22,0.0,1.0638608931622593,2.385393049373625,0.0,0.0,2.0,0.6,0.08906563370014109,0.2,1.0,-160.0,0,0,calibrating,0,0,0,0,0,0.0
3.723782110000002,374,285.67,92.2,6.7,4.8,1.9,2.08,-0.1,0.25,1.04,-0.17,-119.2,-129.8,-21.0,-1.26,3.53,-0.12,0.0,1.0830512453249845,2.8189359694750076,0.0,0.0,2.0,0.6,0.10609086614560903,0.2,1.0,-160.0,0,0,calibrating,0,0,0,0,0,0.0
3.7317785410000397,375,285.68,92.4,6.7,4.5,2.04,2.51,0.05,0.22,1.06,-0.17,-120.5,-130.1,-9.0,-1.23,3.54,0.21,0.0,1.0958558299338468,3.23484157262763,0.0,0.0,2.0,0.6,0.11651754173938189,0.2,1.0,-160.0,0,0,calibrating,0,0,0,0,0,0.0
3.7434718000000657,376,285.69,92.6,6.8,4.3,2.05,2.84,0.17,0.19,1.08,-0.16,-121.8,-132.4,-27.0,-1.19,3.64,0.2,0.0,1.1081967334368028,3.506707857806236,0.0,0.0,2.0,0.6,0.1262812763374912,0.2,1.0,-160.0,0,0,calibrating,0,0,0,0,0,0.0
3.7518748900000674,377,285.7,92.8,6.8,4.0,1.92,3.12,0.28,0.17,1.11,-0.14,-123.1,-137.6,-48.0,-1.15,3.82,0.08,0.0,1.1316359838746735,3.674125746351096,0.0,0.0,2.0,0.6,0.14672611623985465,0.2,1.0,-160.0,0,0,calibrating,0,0,0,0,0,0.0
3.763502729000038,378,285.71,92.9,6.9,3.7,1.62,3.29,0.46,0.13,1.15,-0.09,-124.6,-144.5,-63.0,-1.11,4.02,0.14,0.0,1.1608186766243898,3.6959572508350256,0.0,0.0,2.0,0.6,0.1723906328097795,0.2,1.0,-160.0,0,0,calibrating,0,0,0,0,0,0.0
3.7718357470000683,379,285.72,93.0,6.9,3.3,1.16,3.3,0.68,0.08,1.17,-0.05,-126.1,-151.7,-67.0,-1.07,4.2,-0.01,0.0,1.1737972567696688,3.5634253184260785,0.0,0.0,2.0,0.6,0.18166182869595737,0.2,1.0,-160.0,0,0,calibrating,0,0,0,0,0,0.0
3.7833547010000075,380,285.73,93.1,7.0,3.0,0.78,3.18,0.92,0.07,1.15,-0.02,-127.6,-157.3,-53.0,-1.03,4.31,-0.06,0.0,1.1523020437367972,3.4010586587120195,0.0,0.0,2.0,0.6,0.156963283349824,0.2,1.0,-160.0,0,0,calibrating,0,0,0,0,0,0.0
3.79163083200001,381,285.74,93.1,7.1,2.7,0.58,2.97,1.11,0.08,1.13,0.0,-129.2,-159.9,-30.0,-0.98,4.37,0.08,0.0,1.132828318855068,3.2232592201062578,0.0,0.0,2.0,0.6,0.13473976729873294,0.2,1.0,-160.0,0,0,calibrating,0,0,0,0,0,0.0
3.80380725100008,382,285.75,93.1,7.2,2.4,0.45,2.68,1.26,0.12,1.1,-0.01,-130.8,-162.0,-23.0,-0.94,4.42,0.03,0.0,1.1065712810298305,2.995413160150032,0.0,0.0,2.0,0.6,0.10631307488402553,0.2,1.0,-160.0,0,0,calibrating,0,0,0,0,0,0.0
3.811716684000089,383,285.76,93.1,7.4,2.2,0.75,2.59,1.37,0.17,1.07,-0.03,-132.5,-164.2,-20.0,-0.9,4.48,0.0,0.0,1.0838357809188621,3.0244834269673224,0.0,0.0,2.0,0.6,0.08190602327759633,0.2,1.0,-160.0,0,0,calibrating,0,0,0,0,0,0.0
3.823577756000077,384,285.77,93.1,7.6,1.9,1.22,2.62,1.47,0.21,1.07,-0.02,-134.1,-165.9,-16.0,-0.85,4.52,-0.02,0.0,1.090596167240652,3.242483615995615,0.0,0.0,2.0,0.6,0.08689308140739826,0.2,1.0,-160.0,0,0,calibrating,0,0,0,0,0,0.0
3.8315622019999864,385,285.78,93.2,7.8,1.6,1.62,2.7,1.53,0.24,1.06,0.0,-135.8,-166.1,1.0,-0.8,4.48,0.12,0.0,1.0868302535354821,3.50075706097981,0.0,0.0,2.0,0.6,0.08146462434818402,0.2,1.0,-160.0,0,0,calibrating,0,0,0,0,0,0.0
3.84351535899998,386,285.79,93.4,7.9,1.4,1.81,2.69,1.41,0.25,1.03,0.0,-137.4,-164.3,13.0,-0.76,4.43,0.01,0.0,1.0599056561788884,3.5355763320850535,0.0,0.0,2.0,0.6,0.053449226451758536,0.2,1.0,-160.0,0,0,calibrating,0,0,0,0,0,0.0
3.8518032740000763,387,285.8,93.5,8.1,1.1,1.9,2.6,1.05,0.24,1.01,-0.01,-139.1,-161.4,24.0,-0.72,4.34,-0.04,0.0,1.0381714694596458,3.3871079108879893,0.0,0.0,2.0,0.6,0.03108073893786556,0.2,1.0,-160.0,0,0,calibrating,0,0,0,0,0,0.0
3.863371379,388,285.81,93.6,8.2,0.9,1.79,2.49,0.61,0.22,1.02,-0.02,-140.7,-159.6,17.0,-0.67,4.34,-0.04,0.0,1.04364745005198,3.1267075334926995,0.0,0.0,2.0,0.6,0.03582558513959566,0.2,1.0,-160.0,0,0,calibrating,0,0,0,0,0,0.0
3.8718665520000286,389,285.82,93.7,8.3,0.6,1.51,2.42,0.16,0.18,1.03,-0.03,-142.2,-158.8,8.0,-0.63,4.31,-0.03,0.0,1.0460401521930216,2.8569389212932084,0.0,0.0,2.0,0.6,0.03745392153502469,0.2,1.0,-160.0,0,0,calibrating,0,0,0,0,0,0.0
3.883543365000037,390,285.83,93.8,8.3,0.4,1.37,2.47,-0.23,0.14,1.03,-0.04,-143.8,-158.1,15.0,-0.59,4.25,-0.21,0.0,1.040240356840668,2.8338489726871474,0.0,0.0,2.0,0.6,0.0310210436590177,0.2,1.0,-160.0,0,0,calibrating,0,0,0,0,0,0.0
3.891616122000073,391,285.84,93.9,8.3,0.1,1.27,2.64,-0.55,0.11,1.03,-0.03,-145.4,-156.6,9.0,-0.54,4.24,-0.17,0.0,1.0362914647916386,2.980771712157776,0.0,0.0,2.0,0.6,0.02653070857778861,0.2,1.0,-160.0,0,0,calibrating,0,0,0,0,0,0.0
3.903753881000057,392,285.85,94.0,8.2,-0.1,1.09,2.85,-0.81,0.1,1.02,-0.02,-147.0,-156.6,0.0,-0.5,4.28,-0.03,0.0,1.02508536229916,3.1570080772782325,0.0,0.0,2.0,0.6,0.015018113963603863,0.2,1.0,-160.0,0,0,calibrating,0,0,0,0,0,0.0
3.9117301990000897,393,285.86,94.0,8.1,-0.4,0.92,3.05,-0.89,0.1,1.02,-0.01,-148.5,-158.1,-7.0,-0.46,4.3,-0.01,0.0,1.0249390225764652,3.3077182467677013,0.0,0.0,2.0,0.6,0.014574338756090821,0.2,1.0,-160.0,0,0,calibrating,0,0,0,0,0,0.0
3.9234505560000343,394,285.87,94.0,8.0,-0.7,0.81,3.17,-0.85,0.11,1.0,0.0,-150.1,-160.1,-21.0,-0.42,4.39,0.06,0.0,1.0060318086422517,3.380458548777074,0.0,0.0,2.0,0.6,0.0042462176745601266,0.2,1.0,-160.0,0,0,calibrating,0,0,0,0,0,0.0
3.9318877130000374,395,285.88,94.0,7.9,-1.1,0.79,3.19,-0.81,0.12,0.97,0.01,-151.8,-163.1,-34.0,-0.37,4.5,0.32,0.0,0.977445650662992,3.38471564536816,0.0,0.0,2.0,0.6,0.03217572814074332,0.2,1.0,-160.0,0,0,calibrating,0,0,0,0,0,0.0
3.943510253999989,396,285.89,94.0,7.9,-1.4,0.71,3.27,-0.77,0.11,0.96,0.01,-153.4,-166.5,-26.0,-0.33,4.53,0.14,0.0,0.9663332758422427,3.433642380912724,0.0,0.0,2.0,0.6,0.04242234090226282,0.2,1.0,-160.0,0,0,calibrating,0,0,0,0,0,0.0
3.9518432520000033,397,285.9,93.9,7.8,-1.7,0.51,3.34,-0.71,0.11,0.96,0.03,-155.1,-167.7,-14.0,-0.28,4.57,-0.03,0.0,0.9667471230885561,3.4525063359826,0.0,0.0,2.0,0.6,0.04116832378283031,0.2,1.0,-160.0,0,0,calibrating,0,0,0,0,0,0.0
3.963440404000039,398,285.91,93.9,7.8,-2.1,0.28,3.42,-0.66,0.09,0.93,0.05,-156.8,-167.3,2.0,-0.23,4.53,-0.12,0.0,0.9356815697661252,3.494338277843174,0.0,0.0,2.0,0.6,0.07078919956315599,0.2,1.0,-160.0,0,0,calibrating,0,0,0,0,0,0.0
3.9717853550000655,399,285.92,93.9,7.7,-2.4,0.23,3.45,-0.61,0.07,0.92,0.06,-158.4,-166.1,11.0,-0.19,4.49,0.01,0.0,0.924608025057105,3.5110539728121526,0.0,0.0,2.0,0.6,0.08022548938673268,0.2,1.0,-160.0,0,0,calibrating,0,0,0,0,0,0.0
3.9834160980000206,400,285.93,93.8,7.7,-2.8,0.24,3.42,-0.55,0.04,0.91,0.05,-160.1,-163.4,24.0,-0.14,4.4,0.0,0.0,0.9122499657440388,3.4722471110219097,0.0,0.0,2.0,0.6,0.09073187772580282,0.2,1.0,-160.0,0,0,calibrating,0,0,0,0,0,0.0
3.991742678000037,401,285.94,93.8,7.7,-3.1,0.33,3.32,-0.52,0.02,0.91,0.05,-161.7,-157.7,56.0,-0.1,4.18,-0.12,0.0,0.9115920140062659,3.3766403421152216,0.0,0.0,2.0,0.6,0.08956203287430431,0.2,1.0,-160.0,0,0,calibrating,0,0,0,0,0,0.0
4.003432530000055,402,285.95,93.8,7.6,-3.5,0.41,3.19,-0.47,0.0,0.93,0.04,-163.2,-148.6,82.0,-0.06,3.91,0.0,0.0,0.9308598175880191,3.2503999753876447,0.0,0.0,2.0,0.6,0.06888834470670013,0.2,1.0,-160.0,0,0,calibrating,0,0,0,0,0,0.0
4.011689453000031,403,285.96,93.8,7.6,-3.8,0.42,3.09,-0.37,0.0,0.95,0.03,-164.6,-137.3,106.0,-0.03,3.58,-0.04,0.0,0.9504735661763561,3.1402866111232584,0.0,0.0,2.0,0.6,0.04828910419599575,0.2,1.0,-160.0,0,0,calibrating,0,0,0,0,0,0.0
4.023554763999982,404,285.97,93.8,7.6,-4.1,0.43,2.99,-0.27,0.0,0.97,0.02,-165.9,-124.0,125.0,0.0,3.2,-0.1,0.0,0.9702061636580134,3.0328039831152958,0.0,0.0,2.0,0.6,0.027985376580051735,0.2,1.0,-160.0,0,0,calibrating,0,0,0,0,0,0.0
4.03172241499999,405,285.98,93.8,7.6,-4.4,0.39,2.93,-0.18,0.01,0.99,0.0,-167.0,-108.2,155.0,0.03,2.73,-0.14,0.0,0.9900505037623081,2.9613172744574334,0.0,0.0,2.0,0.6,0.007978215746241912,0.2,1.0,-160.0,0,0,calibrating,0,0,0,0,0,0.0
4.043317710999986,406,285.99,93.8,7.6,-4.7,0.33,2.88,-0.08,0.02,1.01,0.0,-168.0,-89.9,187.0,0.05,2.16,-0.11,0.0,1.010198000393982,2.8999482754007873,0.0,0.0,2.0,0.6,0.011925895267723474,0.2,1.0,-160.0,0,0,calibrating,0,0,0,0,0,0.0
4.051615946000084,407,286.0,93.8,7.6,-5.0,0.36,2.74,-0.04,0.04,1.02,0.0,-168.5,-72.7,275.0,0.07,1.53,-0.11,0.0,1.0207840124139875,2.763837911311009,0.0,0.0,2.0,0.6,0.02206166914197427,0.2,1.0,-160.0,0,0,calibrating,0,0,0,0,0,0.0
4.063518037999984,408,286.01,93.8,7.6,-5.2,0.52,2.59,-0.06,0.06,1.03,0.0,-169.2,-40.3,293.0,0.08,0.71,-0.15,0.0,1.031746092796091,2.6423663636975094,0.0,0.0,2.0,0.6,0.03236327453359622,0.2,1.0,-160.0,0,0,calibrating,0,0,0,0,0,0.0
4.071836180999981,409,286.02,93.8,7.6,-5.5,0.75,2.4,-0.16,0.08,1.04,-0.01,-169.4,-8.4,312.0,0.08,-0.16,-0.03,0.0,1.0431203190428227,2.5195436094658095,0.0,0.0,2.0,0.6,0.042862750764721236,0.2,1.0,-160.0,0,0,calibrating,0,0,0,0,0,0.0
4.083363101000032,410,286.03,93.8,7.6,-5.7,0.8,2.27,-0.34,0.08,1.06,-0.01,-169.3,17.5,246.0,0.07,-0.7,-0.09,0.0,1.0630616162763098,2.430740627874558,0.0,0.0,2.0,0.6,0.06154796703824417,0.2,1.0,-160.0,0,0,calibrating,0,0,0,0,0,0.0
4.091624815000046,411,286.04,93.8,7.5,-6.0,0.7,2.17,-0.55,0.07,1.06,-0.02,-169.0,35.4,198.0,0.06,-1.16,-0.01,0.0,1.0624970588194587,2.345506341922784,0.0,0.0,2.0,0.6,0.059763741389765146,0.2,1.0,-160.0,0,0,calibrating,0,0,0,0,0,0.0
4.103620019999994,412,286.05,93.9,7.4,-6.2,0.5,2.08,-0.74,0.07,1.05,-0.02,-168.5,51.6,179.0,0.05,-1.62,-0.23,0.0,1.0525207836427743,2.263625410707346,0.0,0.0,2.0,0.6,0.04879171688881945,0.2,1.0,-160.0,0,0,calibrating,0,0,0,0,0,0.0
4.1117683060000445,413,286.06,93.8,7.3,-6.4,0.3,2.03,-0.88,0.07,1.04,-0.02,-167.9,70.4,193.0,0.03,-2.18,-0.17,0.0,1.042544963059148,2.2327785380552183,0.0,0.0,2.0,0.6,0.038039578379089,0.2,1.0,-160.0,0,0,calibrating,0,0,0,0,0,0.0
4.123381073000019,414,286.07,93.8,7.2,-6.6,0.14,1.99,-0.97,0.06,1.02,-0.02,-167.0,91.9,216.0,0.0,-2.79,-0.08,0.0,1.0219589032832974,2.218242547603846,0.0,0.0,2.0,0.6,0.01710444823117374,0.2,1.0,-160.0,0,0,calibrating,0,0,0,0,0,0.0
4.131721449999986,415,286.08,93.8,7.1,-6.8,0.06,1.98,-1.0,0.05,1.01,-0.02,-165.9,116.6,233.0,-0.02,-3.45,-0.12,0.0,1.0114346246792225,2.2190087877248255,0.0,0.0,2.0,0.6,0.006448566234556807,0.2,1.0,-160.0,0,0,calibrating,0,0,0,0,0,0.0
4.143390661000012,416,286.09,93.7,6.9,-7.0,-0.02,1.97,-0.99,0.05,1.0,-0.01,-164.6,140.3,238.0,-0.06,-4.11,-0.09,0.0,1.0012991560967182,2.2048582720891607,0.0,0.0,2.0,0.6,0.0036131643009886805,0.2,1.0,-160.0,0,0,calibrating,0,0,0,0,0,0.0
4.151696838000021,417,286.1,93.6,6.8,-7.2,-0.14,1.93,-0.96,0.05,0.99,-0.01,-163.0,165.7,248.0,-0.11,-4.81,-0.09,0.0,0.991312261600753,2.1601157376399995,0.0,0.0,2.0,0.6,0.013328057621014522,0.2,1.0,-160.0,0,0,calibrating,0,0,0,0,0,0.0
4.163716759000067,418,286.11,93.6,6.7,-7.5,-0.26,1.9,-0.92,0.04,0.98,-0.01,-161.2,189.4,235.0,-0.16,-5.43,-0.13,0.0,0.9808669634563089,2.126969675383267,0.0,0.0,2.0,0.6,0.0232978886501497,0.2,1.0,-160.0,0,0,calibrating,0,0,0,0,0,0.0
4.171635513000069,419,286.12,93.5,6.6,-7.6,-0.35,1.83,-0.93,0.03,0.96,-0.02,-159.1,210.6,212.0,-0.22,-5.96,0.07,0.0,0.9606768447297978,2.0823784478331504,0.0,0.0,2.0,0.6,0.04261824722912766,0.2,1.0,-160.0,0,0,calibrating,0,0,0,0,0,0.0
4.183472728000083,420,286.13,93.4,6.4,-7.8,-0.34,1.75,-0.94,0.03,0.95,-0.02,-156.9,230.7,206.0,-0.28,-6.52,0.0,0.0,0.9506839643120104,2.015365971728212,0.0,0.0,2.0,0.6,0.05155890509397665,0.2,1.0,-160.0,0,0,calibrating,0,0,0,0,0,0.0
4.191812450000043,421,286.14,93.4,6.3,-8.0,-0.26,1.67,-0.98,0.03,0.95,-0.03,-154.4,252.2,217.0,-0.35,-7.13,-0.02,0.0,0.950946896519464,1.9536888186197923,0.0,0.0,2.0,0.6,0.05027005342879265,0.2,1.0,-160.0,0,0,calibrating,0,0,0,0,0,0.0
4.203734338000004,422,286.15,93.3,6.2,-8.2,-0.2,1.58,-1.0,0.03,0.95,-0.03,-151.8,274.4,216.0,-0.43,-7.72,-0.07,0.0,0.950946896519464,1.8805318396666408,0.0,0.0,2.0,0.6,0.04926465236021682,0.2,1.0,-160.0,0,0,calibrating,0,0,0,0,0,0.0
4.211735259000079,423,286.16,93.2,6.0,-8.3,-0.14,1.49,-1.01,0.03,0.94,-0.03,-148.9,294.2,203.0,-0.51,-8.24,0.0,0.0,0.9409569596958194,1.8054916227997293,0.0,0.0,2.0,0.6,0.05806949740018419,0.2,1.0,-160.0,0,0,calibrating,0,0,0,0,0,0.0
4.223397091000038,424,286.17,93.2,5.9,-8.5,-0.08,1.42,-1.02,0.03,0.94,-0.04,-145.8,316.8,232.0,-0.59,-8.93,-0.06,0.0,0.9413288479590965,1.7501999885727346,0.0,0.0,2.0,0.6,0.05654365695416885,0.2,1.0,-160.0,0,0,calibrating,0,0,0,0,0,0.0
4.231794239999999,425,286.18,93.2,5.8,-8.6,0.02,1.36,-1.03,0.03,0.94,-0.06,-142.5,338.1,192.0,-0.69,-9.36,-0.05,0.0,0.9423905772024675,1.7061359852016487,0.0,0.0,2.0,0.6,0.05437228915658188,0.2,1.0,-160.0,0,0,calibrating,0,0,0,0,0,0.0
4.243567748000032,426,286.19,93.2,5.7,-8.8,0.11,1.33,-1.01,0.03,0.95,-0.07,-139.0,352.4,167.0,-0.78,-9.8,-0.04,0.0,0.9530477427705287,1.6736487086602134,0.0,0.0,2.0,0.6,0.04284082111675025,0.2,1.0,-160.0,0,0,calibrating,0,0,0,0,0,0.0
4.251815255999986,427,286.2,93.2,5.5,-8.9,0.15,1.33,-0.95,0.04,0.96,-0.08,-135.3,371.7,189.0,-0.88,-10.35,-0.08,0.0,0.964157663455516,1.6413104520473878,0.0,0.0,2.0,0.6,0.031096282423127675,0.2,1.0,-160.0,0,0,calibrating,0,0,0,0,0,0.0
4.263501396000038,428,286.21,93.2,5.4,-9.1,0.13,1.37,-0.87,0.05,0.97,-0.09,-131.5,387.3,145.0,-0.99,-10.66,-0.17,0.0,0.9754486147409304,1.6280970487044069,0.0,0.0,2.0,0.6,0.019409224514959078,0.2,1.0,-160.0,0,0,calibrating,0,0,0,0,0,0.0
4.271615666000002,429,286.22,93.3,5.3,-9.2,0.06,1.42,-0.77,0.05,0.97,-0.1,-127.5,404.0,197.0,-1.1,-11.29,0.03,0.0,0.9764220398987314,1.6164467204334325,0.0,0.0,2.0,0.6,0.018067083370014836,0.2,1.0,-160.0,0,0,calibrating,0,0,0,0,0,0.0
4.283459653000023,430,286.23,93.3,5.2,-9.4,0.01,1.48,-0.64,0.05,0.98,-0.1,-123.3,423.5,143.0,-1.22,-11.57,0.06,0.0,0.9863569333664157,1.6124825580452027,0.0,0.0,2.0,0.6,0.007969546104283909,0.2,1.0,-160.0,0,0,calibrating,0,0,0,0,0,0.0
4.291522358000066,431,286.24,93.3,5.2,-9.5,-0.06,1.56,-0.48,0.04,0.99,-0.11,-119.1,424.0,23.0,-1.33,-11.45,0.03,0.0,0.9968951800465282,1.633278910657944,0.0,0.0,2.0,0.6,0.002517326564312028,0.2,1.0,-160.0,0,0,calibrating,0,0,0,0,0,0.0
4.3035626530000854,432,286.25,93.3,5.1,-9.7,-0.18,1.61,-0.29,0.02,0.99,-0.1,-114.9,412.8,-102.0,-1.44,-10.96,0.13,0.0,0.995238664843765,1.6457824886661057,0.0,0.0,2.0,0.6,0.0008435951343178649,0.2,1.0,-160.0,0,0,calibrating,0,0,0,0,0,0.0
4.311639952000064,433,286.26,93.3,5.1,-9.8,-0.33,1.62,-0.12,0.03,0.99,-0.1,-110.9,387.2,-219.0,-1.55,-10.17,-0.01,0.0,0.9954898291795853,1.6576187740249568,0.0,0.0,2.0,0.6,0.001072864280735386,0.2,1.0,-160.0,0,0,calibrating,0,0,0,0,0,0.0
4.323539815000004,434,286.27,93.3,5.0,-10.0,-0.43,1.58,0.02,0.03,0.99,-0.09,-107.3,355.5,-304.0,-1.64,-9.21,0.17,0.0,0.9945350672550466,1.6375896922000945,0.0,0.0,2.0,0.6,0.0001157403090727982,0.2,1.0,-160.0,0,0,calibrating,0,0,0,0,0,0.0
4.331607829000063,435,286.28,93.2,5.0,-10.1,-0.41,1.51,0.09,0.05,0.98,-0.09,-104.0,315.6,-375.0,-1.73,-8.07,0.01,0.0,0.985393322486001,1.567258753365251,0.0,0.0,2.0,0.6,0.008845484370773371,0.2,1.0,-160.0,0,0,calibrating,0,0,0,0,0,0.0
4.34360230499999,436,286.29,93.2,5.0,-10.3,-0.34,1.42,0.11,0.07,0.99,-0.1,-101.1,277.2,-360.0,-1.8,-7.12,0.21,0.0,0.9974968671630001,1.4642745644174797,0.0,0.0,2.0,0.6,0.003192899100101232,0.2,1.0,-160.0,0,0,calibrating,0,0,0,0,0,0.0
4.351938838000024,437,286.3,93.2,5.1,-10.4,-0.4,1.37,0.12,0.09,0.99,-0.12,-98.6,247.3,-304.0,-1.87,-6.4,0.19,0.0,1.0012991560967182,1.432236014070307,0.0,0.0,2.0,0.6,0.006855284273142859,0.2,1.0,-160.0,0,0,calibrating,0,0,0,0,0,0.0
4.36353895700006,438,286.31,93.2,5.1,-10.6,-0.58,1.38,0.12,0.1,0.97,-0.12,-96.3,221.1,-271.0,-1.93,-5.72,0.19,0.0,0.9824968193332739,1.5017323330074503,0.0,0.0,2.0,0.6,0.011708111440495328,0.2,1.0,-160.0,0,0,calibrating,0,0,0,0,0,0.0
4.371693591000053,439,286.32,93.1,5.1,-10.7,-0.6,1.46,0.11,0.09,0.95,-0.13,-94.2,197.2,-240.0,-1.98,-5.11,0.11,0.0,0.9630680142129111,1.5823084402227017,0.0,0.0,2.0,0.6,0.030514178229640976,0.2,1.0,-160.0,0,0,calibrating,0,0,0,0,0,0.0
4.383350854000014,440,286.33,93.1,5.1,-10.8,-0.47,1.53,0.13,0.07,0.94,-0.12,-92.4,178.4,-195.0,-2.03,-4.65,0.0,0.0,0.9502105029939418,1.6058331171077522,0.0,0.0,2.0,0.6,0.042504255659638,0.2,1.0,-160.0,0,0,calibrating,0,0,0,0,0,0.0
4.39170310999998,441,286.34,93.1,5.1,-11.0,-0.29,1.56,0.19,0.05,0.94,-0.11,-90.7,165.3,-136.0,-2.07,-4.37,0.08,0.0,0.9477341399358787,1.5980613254815974,0.0,0.0,2.0,0.6,0.04408100634334711,0.2,1.0,-160.0,0,0,calibrating,0,0,0,0,0,0.0
4.403654016000019,442,286.35,93.1,5.1,-11.1,-0.18,1.5,0.25,0.04,0.95,-0.11,-89.1,156.7,-97.0,-2.11,-4.18,0.15,0.0,0.957183368012629,1.5313066316058321,0.0,0.0,2.0,0.6,0.03393914270126486,0.2,1.0,-160.0,0,0,calibrating,0,0,0,0,0,0.0
4.411699629000054,443,286.36,93.1,5.2,-11.3,-0.06,1.38,0.3,0.03,0.97,-0.12,-87.6,149.9,-79.0,-2.15,-3.99,-0.12,0.0,0.9778547949465708,1.4135062787267696,0.0,0.0,2.0,0.6,0.01300236145197664,0.2,1.0,-160.0,0,0,calibrating,0,0,0,0,0,0.0
4.423366754000085,444,286.37,93.1,5.2,-11.4,-0.03,1.23,0.37,0.02,0.99,-0.12,-86.1,142.6,-76.0,-2.19,-3.78,-0.01,0.0,0.9974467404327911,1.2847957036042734,0.0,0.0,2.0,0.6,0.006457792353558922,0.2,1.0,-160.0,0,0,calibrating,0,0,0,0,0,0.0
4.431804531000012,445,286.38,93.1,5.2,-11.5,-0.06,1.07,0.45,0.02,0.99,-0.13,-84.8,135.4,-68.0,-2.23,-3.6,-0.13,0.0,0.9986991538997116,1.1623252556836232,0.0,0.0,2.0,0.6,0.007556001704069781,0.2,1.0,-160.0,0,0,calibrating,0,0,0,0,0,0.0
4.44360197200001,446,286.39,93.1,5.3,-11.6,-0.12,0.91,0.52,0.02,1.0,-0.13,-83.5,129.6,-54.0,-2.26,-3.47,-0.03,0.0,1.008612908900139,1.0549407566304376,0.0,0.0,2.0,0.6,0.017120361570407194,0.2,1.0,-160.0,0,0,calibrating,0,0,0,0,0,0.0
4.451644670000064,447,286.4,93.1,5.3,-11.7,-0.16,0.74,0.6,0.02,0.99,-0.12,-82.2,125.3,-48.0,-2.3,-3.34,-0.26,0.0,0.9974467404327911,0.9660227740586658,0.0,0.0,2.0,0.6,0.005835109240998282,0.2,1.0,-160.0,0,0,calibrating,0,0,0,0,0,0.0
4.463537975000008,448,286.41,93.1,5.3,-11.7,-0.17,0.52,0.66,0.02,0.99,-0.11,-81.0,120.3,-47.0,-2.33,-3.21,0.01,0.0,0.9962931295557548,0.8572630868059117,0.0,0.0,2.0,0.6,0.004587868396682571,0.2,1.0,-160.0,0,0,calibrating,0,0,0,0,0,0.0
4.4717451800000845,449,286.42,93.1,5.4,-11.8,-0.15,0.29,0.69,0.02,0.98,-0.11,-79.8,115.6,-50.0,-2.36,-3.07,0.16,0.0,0.9863569333664157,0.7633478892353079,0.0,0.0,2.0,0.6,0.005241361236803299,0.2,1.0,-160.0,0,0,calibrating,0,0,0,0,0,0.0
4.48336912000002,450,286.43,93.2,5.4,-11.8,-0.1,0.04,0.69,0.02,0.98,-0.1,-78.7,110.6,-45.0,-2.39,-2.96,-0.03,0.0,0.985291834940288,0.6983552104767314,0.0,0.0,2.0,0.6,0.006180330469672368,0.2,1.0,-160.0,0,0,calibrating,0,0,0,0,0,0.0
4.491022809000015,451,286.44,93.2,5.4,-11.8,-0.03,-0.2,0.67,0.02,0.98,-0.1,-77.6,104.4,-60.0,-2.42,-2.76,0.1,0.0,0.985291834940288,0.6998571282769077,0.0,0.0,2.0,0.6,0.00605672386027889,0.2,1.0,-160.0,0,0,calibrating,0,0,0,0,0,0.0
4.503170093999984,452,286.45,93.2,5.4,-11.7,0.0,-0.44,0.62,0.03,0.99,-0.11,-76.6,98.9,-56.0,-2.45,-2.61,-0.05,0.0,0.9965440281292142,0.7602631123499285,0.0,0.0,2.0,0.6,0.005091559942074331,0.2,1.0,-160.0,0,0,calibrating,0,0,0,0,0,0.0
4.51103991399998,453,286.46,93.3,5.5,-11.7,-0.04,-0.64,0.58,0.03,1.0,-0.11,-75.7,92.4,-70.0,-2.47,-2.39,0.01,0.0,1.0064790112068904,0.8646386528486915,0.0,0.0,2.0,0.6,0.01472601215935554,0.2,1.0,-160.0,0,0,calibrating,0,0,0,0,0,0.0
4.523078305000013,454,286.47,93.3,5.5,-11.6,-0.19,-0.83,0.55,0.03,1.0,-0.12,-74.8,82.1,-97.0,-2.49,-2.09,-0.02,0.0,1.0076209604806758,1.0136567466356647,0.0,0.0,2.0,0.6,0.015550602204478348,0.2,1.0,-160.0,0,0,calibrating,0,0,0,0,0,0.0
4.533151812000028,455,286.48,93.3,5.5,-11.5,-0.32,-0.98,0.52,0.03,0.99,-0.13,-74.1,68.9,-138.0,-2.51,-1.64,0.05,0.0,0.9989494481704267,1.1546428019088848,0.0,0.0,2.0,0.6,0.00674150809634444,0.2,1.0,-160.0,0,0,calibrating,0,0,0,0,0,0.0
4.542814828000019,456,286.49,93.3,5.5,-11.4,-0.44,-1.16,0.52,0.02,0.98,-0.13,-73.5,49.9,-180.0,-2.52,-1.09,0.12,0.0,0.9887871358386495,1.345213737664019,0.0,0.0,2.0,0.6,0.0033523881507241393,0.2,1.0,-160.0,0,0,calibrating,0,0,0,0,0,0.0
4.550944166000022,457,286.5,93.3,5.6,-11.2,-0.43,-1.36,0.55,0.02,0.97,-0.13,-73.2,26.7,-215.0,-2.53,-0.44,0.16,0.0,0.9788769074812216,1.528724958911838,0.0,0.0,2.0,0.6,0.012997364177989024,0.2,1.0,-160.0,0,0,calibrating,0,0,0,0,0,0.0
4.563141363999989,458,286.51,93.2,5.6,-11.1,-0.4,-1.57,0.57,0.02,0.97,-0.14,-73.1,3.1,-222.0,-2.53,0.16,0.04,0.0,0.9802550688468792,1.7174981804939418,0.0,0.0,2.0,0.6,0.011386818756084716,0.2,1.0,-160.0,0,0,calibrating,0,0,0,0,0,0.0
4.570972997000013,459,286.52,93.2,5.7,-10.9,-0.42,-1.79,0.6,0.02,0.97,-0.14,-73.1,-6.2,-79.0,-2.53,0.12,-0.13,0.0,0.9802550688468792,1.9340372281835736,0.0,0.0,2.0,0.6,0.01115908238096297,0.2,1.0,-160.0,0,0,calibrating,0,0,0,0,0,0.0
4.583157624000023,460,286.53,93.2,5.7,-10.7,-0.52,-2.0,0.66,0.01,0.98,-0.14,-73.1,-2.0,-3.0,-2.53,0.02,-0.05,0.0,0.9899999999999999,2.169331694324314,0.0,0.0,2.0,0.6,0.0013858682032854563,0.2,1.0,-160.0,0,0,calibrating,0,0,0,0,0,0.0
4.591011726000033,461,286.54,93.1,5.8,-10.5,-0.66,-2.22,0.73,0.0,0.97,-0.14,-73.2,-1.8,-14.0,-2.53,0.09,0.08,0.0,0.9800510190801293,2.42835335155327,0.0,0.0,2.0,0.6,0.01110815214069305,0.2,1.0,-160.0,0,0,calibrating,0,0,0,0,0,0.0
4.603074762000006,462,286.55,93.1,5.9,-10.3,-0.71,-2.42,0.78,0.0,0.97,-0.15,-73.2,-6.7,-47.0,-2.53,0.28,0.07,0.0,0.9815294188153506,2.6398674209134065,0.0,0.0,2.0,0.6,0.00943715735736228,0.2,1.0,-160.0,0,0,calibrating,0,0,0,0,0,0.0
4.611083215999997,463,286.56,93.1,5.9,-10.0,-0.69,-2.63,0.79,0.0,0.96,-0.16,-73.4,-18.3,-112.0,-2.52,0.69,-0.09,0.0,0.9732420048477152,2.8314483926075713,0.0,0.0,2.0,0.6,0.017370079898497814,0.2,1.0,-160.0,0,0,calibrating,0,0,0,0,0,0.0
4.623087616000021,464,286.57,93.0,6.0,-9.7,-0.68,-2.81,0.77,0.01,0.97,-0.17,-73.6,-33.3,-129.0,-2.51,1.07,0.12,0.0,0.9848350115628506,2.991889035375477,0.0,0.0,2.0,0.6,0.00566153171969519,0.2,1.0,-160.0,0,0,calibrating,0,0,0,0,0,0.0
4.6309996890000775,465,286.58,93.0,6.0,-9.4,-0.76,-2.98,0.76,0.01,0.99,-0.17,-74.1,-50.5,-169.0,-2.5,1.61,-0.01,0.0,1.0045396955820112,3.167901513620649,0.0,0.0,2.0,0.6,0.013762289253476112,0.2,1.0,-160.0,0,0,calibrating,0,0,0,0,0,0.0
4.643029723000041,466,286.59,92.9,6.1,-9.1,-0.93,-3.11,0.77,0.01,1.0,-0.18,-74.7,-67.5,-158.0,-2.48,2.01,0.33,0.0,1.0161200716450787,3.336150476222558,0.0,0.0,2.0,0.6,0.024835812010212788,0.2,1.0,-160.0,0,0,calibrating,0,0,0,0,0,0.0
4.651033100000063,467,286.6,92.9,6.2,-8.8,-1.11,-3.21,0.81,0.0,1.0,-0.19,-75.5,-85.1,-189.0,-2.45,2.57,0.05,0.0,1.0178899744078433,3.491747413545258,0.0,0.0,2.0,0.6,0.026073600477517944,0.2,1.0,-160.0,0,0,calibrating,0,0,0,0,0,0.0
4.663069620999977,468,286.61,92.8,6.2,-8.5,-1.16,-3.3,0.88,0.0,0.98,-0.19,-76.5,-106.2,-200.0,-2.42,3.14,-0.04,0.0,0.9982484660644363,3.6069377593742864,0.0,0.0,2.0,0.6,0.006303450291428647,0.2,1.0,-160.0,0,0,calibrating,0,0,0,0,0,0.0
4.671130809000033,469,286.62,92.7,6.3,-8.1,-1.13,-3.39,0.96,0.0,0.97,-0.18,-77.7,-124.5,-168.0,-2.39,3.54,0.0,0.0,0.9865596788841514,3.700081080192703,0.0,0.0,2.0,0.6,0.005277630151079071,0.2,1.0,-160.0,0,0,calibrating,0,0,0,0,0,0.0
4.683115284999985,470,286.63,92.6,6.4,-7.8,-0.92,-3.57,0.99,0.03,0.94,-0.13,-79.0,-131.2,-61.0,-2.35,3.53,-0.04,0.0,0.9494208761134337,3.8172503192743332,0.0,0.0,2.0,0.6,0.04156810426336077,0.2,1.0,-160.0,0,0,calibrating,0,0,0,0,0,0.0
4.691270035999992,471,286.64,92.7,6.5,-7.4,0.08,-3.8,0.72,0.09,0.94,-0.12,-80.3,-124.8,42.0,-2.32,3.25,-0.12,0.0,0.951892851112981,3.868436376625574,0.0,0.0,2.0,0.6,0.03831420667853713,0.2,1.0,-160.0,0,0,calibrating,0,0,0,0,0,0.0
4.703081191000024,472,286.65,92.8,6.5,-7.0,0.74,-3.88,0.35,0.14,0.99,-0.12,-81.5,-113.8,76.0,-2.29,3.0,-0.14,0.0,1.0070253224224304,3.965412967144784,0.0,0.0,2.0,0.6,0.016481899338293915,0.2,1.0,-160.0,0,0,calibrating,0,0,0,0,0,0.0
4.711152723000055,473,286.66,93.0,6.5,-6.6,0.38,-3.57,0.04,0.12,1.03,-0.17,-82.6,-111.0,11.0,-2.26,3.08,-0.04,0.0,1.0508092119885513,3.590389950966329,0.0,0.0,2.0,0.6,0.05906047312632656,0.2,1.0,-160.0,0,0,calibrating,0,0,0,0,0,0.0
4.723089188000017,474,286.67,93.0,6.5,-6.3,-0.7,-3.08,-0.04,0.07,1.02,-0.18,-83.7,-119.3,-66.0,-2.23,3.38,0.02,0.0,1.038123306741545,3.1587972394568156,0.0,0.0,2.0,0.6,0.045447076521734076,0.2,1.0,-160.0,0,0,calibrating,0,0,0,0,0,0.0
4.73112509300006,475,286.68,92.9,6.5,-6.0,-1.2,-2.7,0.02,0.07,0.95,-0.13,-85.0,-126.8,-41.0,-2.19,3.44,-0.14,0.0,0.9614052215377239,2.9547250295078222,0.0,0.0,2.0,0.6,0.030645588508445454,0.2,1.0,-160.0,0,0,calibrating,0,0,0,0,0,0.0
4.74306061499999,476,286.69,92.9,6.5,-5.7,-0.31,-2.7,0.0,0.12,0.9,-0.07,-86.2,-122.8,34.0,-2.16,3.22,-0.14,0.0,0.910659101969557,2.7177380300536695,0.0,0.0,2.0,0.6,0.07976387391508011,0.2,1.0,-160.0,0,0,calibrating,0,0,0,0,0,0.0
4.751053590000083,477,286.7,93.0,6.5,-5.4,0.62,-2.98,-0.12,0.14,0.93,-0.07,-87.4,-114.0,66.0,-2.13,2.99,0.02,0.0,0.9430800602281866,3.0461779330827015,0.0,0.0,2.0,0.6,0.04639605734332153,0.2,1.0,-160.0,0,0,calibrating,0,0,0,0,0,0.0
4.763078551000035,478,286.71,93.1,6.4,-5.1,0.64,-3.12,-0.34,0.17,0.99,-0.11,-88.5,-106.2,69.0,-2.1,2.81,0.01,0.0,1.0104949282406122,3.203061035946708,0.0,0.0,2.0,0.6,0.02059843445572196,0.2,1.0,-160.0,0,0,calibrating,0,0,0,0,0,0.0
4.771004699000059,479,286.72,93.2,6.4,-4.8,0.35,-2.79,-0.61,0.2,1.04,-0.11,-89.5,-98.2,79.0,-2.07,2.57,-0.13,0.0,1.0647534925981694,2.877273014505228,0.0,0.0,2.0,0.6,0.07335985883701368,0.2,1.0,-160.0,0,0,calibrating,0,0,0,0,0,0.0
4.783044839000013,480,286.73,93.3,6.4,-4.6,0.1,-2.23,-0.94,0.22,1.06,-0.09,-90.4,-88.1,106.0,-2.05,2.22,-0.11,0.0,1.086324076875773,2.422085877915975,0.0,0.0,2.0,0.6,0.09303183425232486,0.2,1.0,-160.0,0,0,calibrating,0,0,0,0,0,0.0
4.791085182000074,481,286.74,93.3,6.3,-4.4,0.0,-1.68,-1.25,0.24,1.07,-0.08,-91.2,-74.6,129.0,-2.03,1.84,-0.06,0.0,1.099499886311954,2.0940152817016404,0.0,0.0,2.0,0.6,0.10408349081473589,0.2,1.0,-160.0,0,0,calibrating,0,0,0,0,0,0.0
4.803161014000011,482,286.75,93.4,6.2,-4.2,0.05,-1.24,-1.45,0.23,1.06,-0.07,-91.8,-58.9,145.0,-2.01,1.41,0.07,0.0,1.086922260329597,1.9085596663452782,0.0,0.0,2.0,0.6,0.08967574753573115,0.2,1.0,-160.0,0,0,calibrating,0,0,0,0,0,0.0
4.811025244000007,483,286.76,93.4,6.1,-4.1,0.17,-1.01,-1.53,0.2,1.05,-0.05,-92.3,-44.1,135.0,-2.0,1.06,-0.06,0.0,1.0700467279516348,1.8411681074795967,0.0,0.0,2.0,0.6,0.07134421085461362,0.2,1.0,-160.0,0,0,calibrating,0,0,0,0,0,0.0
4.823064591000048,484,286.77,93.4,6.0,-4.1,0.21,-0.94,-1.5,0.13,1.05,-0.04,-92.7,-35.1,94.0,-1.99,0.87,0.05,0.0,1.058772874605314,1.7826104453862037,0.0,0.0,2.0,0.6,0.058868950358127003,0.2,1.0,-160.0,0,0,calibrating,0,0,0,0,0,0.0
4.83107640500009,485,286.78,93.4,5.8,-4.0,-0.02,-1.0,-1.39,0.04,1.05,-0.02,-93.0,-30.3,55.0,-1.98,0.78,0.11,0.0,1.050951949424901,1.7124543789543707,0.0,0.0,2.0,0.6,0.05002706467415985,0.2,1.0,-160.0,0,0,calibrating,0,0,0,0,0,0.0
4.843151588000069,486,286.79,93.4,5.7,-3.9,-0.38,-1.16,-1.15,-0.05,1.05,0.01,-93.3,-29.3,14.0,-1.98,0.82,0.12,0.0,1.0512373661547614,1.6770509831248424,0.0,0.0,2.0,0.6,0.049306231775939624,0.2,1.0,-160.0,0,0,calibrating,0,0,0,0,0,0.0
4.85107055800006,487,286.8,93.3,5.6,-3.7,-0.52,-1.59,-0.79,-0.12,1.04,0.04,-93.6,-33.6,-28.0,-1.97,0.96,0.06,0.0,1.0476640682967036,1.8500270268296082,0.0,0.0,2.0,0.6,0.044818275239524086,0.2,1.0,-160.0,0,0,calibrating,0,0,0,0,0,0.0
4.863067761000025,488,286.81,93.3,5.5,-3.5,-0.04,-2.25,-0.54,-0.16,1.01,0.07,-94.0,-40.1,-61.0,-1.96,1.19,0.01,0.0,1.024987804805501,2.3142385356743156,0.0,0.0,2.0,0.6,0.02169917151335521,0.2,1.0,-160.0,0,0,calibrating,0,0,0,0,0,0.0
4.870982862000005,489,286.82,93.4,5.4,-3.3,0.49,-2.98,-0.38,-0.14,1.03,0.08,-94.5,-47.7,-68.0,-1.94,1.38,-0.03,0.0,1.042544963059148,3.0438298244152873,0.0,0.0,2.0,0.6,0.03847120317166208,0.2,1.0,-160.0,0,0,calibrating,0,0,0,0,0,0.0
4.8830882729999985,490,286.83,93.5,5.4,-2.9,0.83,-3.62,-0.29,-0.08,1.06,0.08,-95.0,-54.9,-73.0,-1.93,1.59,0.03,0.0,1.0660206376989143,3.725238247414519,0.0,0.0,2.0,0.6,0.06070794025519999,0.2,1.0,-160.0,0,0,calibrating,0,0,0,0,0,0.0
4.890904624000086,491,286.84,93.6,5.3,-2.6,0.9,-4.03,-0.31,0.0,1.09,0.07,-95.6,-62.3,-62.0,-1.91,1.73,0.15,0.0,1.0922453936730518,4.1408936233619915,0.0,0.0,2.0,0.6,0.0851940423047508,0.2,1.0,-160.0,0,0,calibrating,0,0,0,0,0,0.0
4.9032133279999925,492,286.85,93.7,5.3,-2.1,0.87,-4.23,-0.36,0.09,1.11,0.06,-96.2,-64.1,-23.0,-1.89,1.73,0.21,0.0,1.1152578177264665,4.333520508778054,0.0,0.0,2.0,0.6,0.10604233703100219,0.2,1.0,-160.0,0,0,calibrating,0,0,0,0,0,0.0
4.910987876000036,493,286.86,93.8,5.2,-1.7,0.73,-4.15,-0.36,0.16,1.11,0.01,-96.9,-64.8,-20.0,-1.88,1.8,0.03,0.0,1.1215168300119265,4.229066090758101,0.0,0.0,2.0,0.6,0.11005532233013304,0.2,1.0,-160.0,0,0,calibrating,0,0,0,0,0,0.0
4.923118595000005,494,286.87,93.9,5.2,-1.3,0.44,-3.81,-0.28,0.2,1.1,0.0,-97.5,-65.8,-7.0,-1.86,1.78,-0.01,0.0,1.118033988749895,3.8455298724623113,0.0,0.0,2.0,0.6,0.10444103144673944,0.2,1.0,-160.0,0,0,calibrating,0,0,0,0,0,0.0
4.931167856999991,495,286.88,93.9,5.1,-1.0,0.09,-3.41,-0.1,0.2,1.08,0.0,-98.2,-65.6,-1.0,-1.84,1.78,-0.1,0.0,1.0983624174196784,3.412652926976314,0.0,0.0,2.0,0.6,0.08307407091419261,0.2,1.0,-160.0,0,0,calibrating,0,0,0,0,0,0.0
4.942992451000009,496,286.89,94.0,5.1,-0.7,-0.1,-3.08,0.11,0.17,1.03,0.0,-98.8,-65.1,6.0,-1.82,1.75,0.01,0.0,1.0439348638684312,3.0835855752678567,0.0,0.0,2.0,0.6,0.02807358701568652,0.2,1.0,-160.0,0,0,calibrating,0,0,0,0,0,0.0
4.951022749999993,497,286.9,94.0,5.1,-0.4,-0.1,-2.83,0.31,0.14,0.99,0.02,-99.5,-63.9,5.0,-1.8,1.74,-0.15,0.0,1.0000499987500624,2.848683906648823,0.0,0.0,2.0,0.6,0.015495052540628551,0.2,1.0,-160.0,0,0,calibrating,0,0,0,0,0,0.0
4.963019206000013,498,286.91,94.0,5.1,-0.1,0.0,-2.75,0.46,0.12,0.95,0.04,-100.1,-63.7,1.0,-1.79,1.73,0.12,0.0,0.9583840566286566,2.788207309365643,0.0,0.0,2.0,0.6,0.05601777476879377,0.2,1.0,-160.0,0,0,calibrating,0,0,0,0,0,0.0
4.971037007000064,499,286.92,94.0,5.2,0.1,0.09,-2.75,0.52,0.11,0.93,0.07,-100.8,-62.6,16.0,-1.77,1.66,0.11,0.0,0.939095309327014,2.8001785657346927,0.0,0.0,2.0,0.6,0.07380039162902752,0.2,1.0,-160.0,0,0,calibrating,0,0,0,0,0,0.0
4.983045133000019,500,286.93,94.1,5.2,0.4,0.03,-2.85,0.51,0.1,0.91,0.08,-101.3,-57.8,42.0,-1.75,1.5,0.0,0.0,0.9189668111526118,2.8954274295861744,0.0,0.0,2.0,0.6,0.09205031200736113,0.2,1.0,-160.0,0,0,calibrating,0,0,0,0,0,0.0
4.991016602000059,501,286.94,94.1,5.2,0.7,-0.04,-2.98,0.43,0.09,0.9,0.08,-101.9,-51.5,57.0,-1.74,1.32,-0.02,0.0,0.9080198235721508,3.011129356238287,0.0,0.0,2.0,0.6,0.1009373535960656,0.2,1.0,-160.0,0,0,calibrating,0,0,0,0,0,0.0
5.003036227000052,502,286.95,94.1,5.2,1.0,-0.07,-3.12,0.3,0.09,0.89,0.07,-102.4,-45.2,58.0,-1.73,1.15,-0.15,0.0,0.8972736483370054,3.13517144666763,0.0,0.0,2.0,0.6,0.10944985825458686,0.2,1.0,-160.0,0,0,calibrating,0,0,0,0,0,0.0
5.010970305000001,503,286.96,94.1,5.3,1.3,-0.01,-3.22,0.19,0.11,0.89,0.06,-102.8,-40.4,43.0,-1.72,1.06,-0.07,0.0,0.8987769467448529,3.225616220197313,0.0,0.0,2.0,0.6,0.10578762864980462,0.2,1.0,-160.0,0,0,calibrating,0,0,0,0,0,0.0
5.023060825000016,504,286.97,94.2,5.2,1.6,-0.04,-3.23,0.09,0.12,0.91,0.04,-103.2,-38.3,24.0,-1.71,1.02,-0.03,0.0,0.9187491496594705,3.231501199133307,0.0,0.0,2.0,0.6,0.08409911722048313,0.2,1.0,-160.0,0,0,calibrating,0,0,0,0,0,0.0
5.0310206249999965,505,286.98,94.2,5.2,2.0,-0.13,-3.19,0.03,0.14,0.93,0.03,-103.5,-32.2,63.0,-1.7,0.77,0.01,0.0,0.9409569596958195,3.192788749666974,0.0,0.0,2.0,0.6,0.06065348104045143,0.2,1.0,-160.0,0,0,calibrating,0,0,0,0,0,0.0
5.042985591000047,506,286.99,94.2,5.2,2.3,-0.23,-3.11,0.02,0.15,0.95,0.01,-103.8,-22.8,87.0,-1.69,0.49,0.13,0.0,0.9618211892030659,3.118557358779857,0.0,0.0,2.0,0.6,0.038993466502540874,0.2,1.0,-160.0,0,0,calibrating,0,0,0,0,0,0.0
5.051117192999982,507,287.0,94.2,5.2,2.6,-0.31,-2.98,0.08,0.16,0.97,-0.01,-103.9,-13.7,139.0,-1.69,0.16,-0.02,0.0,0.9831581764904364,2.997148644962408,0.0,0.0,2.0,0.6,0.017303349630867104,0.2,1.0,-160.0,0,0,calibrating,0,0,0,0,0,0.0
5.063351377000004,508,287.01,94.2,5.2,2.9,-0.27,-2.83,0.14,0.17,0.98,-0.02,-104.0,-4.0,74.0,-1.69,0.08,0.11,0.0,0.994836670011716,2.8462958384539023,0.0,0.0,2.0,0.6,0.00551235898739566,0.2,1.0,-160.0,0,0,calibrating,0,0,0,0,0,0.0
5.07161227000006,509,287.02,94.1,5.3,3.1,-0.21,-2.67,0.24,0.18,1.0,-0.03,-104.0,-2.9,32.0,-1.69,0.05,0.11,0.0,1.0165136496870073,2.688977500835587,0.0,0.0,2.0,0.6,0.015841328274137867,0.2,1.0,-160.0,0,0,calibrating,0,0,0,0,0,0.0
5.083211946000006,510,287.03,94.1,5.3,3.4,-0.18,-2.53,0.36,0.19,1.02,-0.03,-104.0,-1.2,28.0,-1.69,0.01,0.06,0.0,1.0379788051786027,2.561815762306103,0.0,0.0,2.0,0.6,0.03656035409041847,0.2,1.0,-160.0,0,0,calibrating,0,0,0,0,0,0.0
5.0917277429999785,511,287.04,94.1,5.4,3.7,-0.18,-2.43,0.47,0.19,1.03,-0.03,-104.0,-0.7,10.0,-1.69,0.02,-0.02,0.0,1.047807234180028,2.4815720823703673,0.0,0.0,2.0,0.6,0.045461007430006806,0.2,1.0,-160.0,0,0,calibrating,0,0,0,0,0,0.0
5.1033684970000195,512,287.05,94.1,5.5,3.9,-0.21,-2.32,0.58,0.18,1.03,-0.05,-104.0,-1.4,-8.0,-1.69,0.07,-0.06,0.0,1.0468046618161384,2.4006040906405204,0.0,0.0,2.0,0.6,0.043569266364794856,0.2,1.0,-160.0,0,0,calibrating,0,0,0,0,0,0.0
5.111647235000078,513,287.06,94.1,5.6,4.1,-0.19,-2.21,0.66,0.18,1.04,-0.06,-104.1,-3.0,-9.0,-1.69,0.09,0.1,0.0,1.0571660229122009,2.3142601409521792,0.0,0.0,2.0,0.6,0.052852014911640266,0.2,1.0,-160.0,0,0,calibrating,0,0,0,0,0,0.0
5.123289611000018,514,287.07,94.1,5.7,4.3,-0.14,-2.05,0.79,0.16,1.06,-0.07,-104.1,-3.9,-12.0,-1.69,0.14,-0.19,0.0,1.074290463515338,2.2014086399394364,0.0,0.0,2.0,0.6,0.06857692640448199,0.2,1.0,-160.0,0,0,calibrating,0,0,0,0,0,0.0
5.1317820650000385,515,287.08,94.1,5.8,4.5,-0.04,-1.91,0.95,0.15,1.08,-0.07,-104.2,-6.4,-25.0,-1.68,0.24,0.16,0.0,1.0926115503691145,2.133588526403346,0.0,0.0,2.0,0.6,0.08516005299309315,0.2,1.0,-160.0,0,0,calibrating,0,0,0,0,0,0.0
