host_time_s,seq,device_time_s,roll,pitch,yaw,gyro_x,gyro_y,gyro_z,accel_x,accel_y,accel_z,belt_length,belt_velocity,belt_acceleration,motor_belt_length,motor_pos,motor_vel,motor_iq_meas,motor_iq_set,acc_mag,gyro_mag,acc_residual,threshold,heel_strike,hs_count,torque_cmd_nm
3.070022011999754,1,4480.2,-95.3,-0.8,-99.3,-0.22,2.98,0.44,-0.03,-0.99,-0.08,-209.6,-0.3,0.0,0.0,1.17,0.0,-0.09,0.0,0.9936800289831732,3.0203311076767725,0.0,0.28,0,0,0.0
3.077956864999578,2,4480.21,-95.4,-0.9,-98.7,-0.06,2.81,0.44,-0.04,-1.0,-0.08,-209.6,-0.5,0.0,0.0,1.17,0.0,0.0,0.0,1.0039920318408906,2.844872580626415,0.010105762800563078,0.28,0,0,0.0
3.0860465249998015,3,4480.22,-95.4,-0.9,-98.4,0.02,2.7,0.42,-0.04,-1.0,-0.08,-209.6,-0.9,-3.0,0.0,1.17,0.03,-0.04,0.0,1.0039920318408906,2.7325446016488004,0.009903647544551863,0.28,0,0,0.0
3.0941032820001055,4,4480.23,-95.4,-1.0,-98.1,0.05,2.61,0.4,-0.04,-1.0,-0.08,-209.6,-1.5,-7.0,0.0,1.17,0.05,0.04,0.0,1.0039920318408906,2.6409467999185443,0.009705574593660837,0.28,0,0,0.0
3.106035783000152,5,4480.24,-95.4,-1.0,-97.9,0.03,2.55,0.39,-0.05,-0.99,-0.08,-209.6,-2.8,-11.0,0.0,1.17,0.09,-0.01,0.0,0.9944847912361455,2.579825575499243,0.00019436730913746647,0.28,0,0,0.0
3.114087425999969,6,4480.25,-95.3,-1.0,-97.6,-0.01,2.46,0.35,-0.05,-0.99,-0.07,-209.7,-4.4,-15.0,0.0,1.17,0.16,0.06,0.0,0.9937303457175894,2.4847937540166183,0.0005488766452302896,0.28,0,0,0.0
3.1258988079998744,7,4480.26,-95.3,-1.1,-97.4,-0.07,2.36,0.3,-0.05,-0.98,-0.07,-209.7,-6.8,-14.0,0.0,1.17,0.19,0.01,0.0,0.9837682653958705,2.380021008310641,0.010300737827610318,0.28,0,0,0.0
3.13408032299958,8,4480.27,-95.4,-1.1,-97.1,-0.13,2.3,0.25,-0.05,-0.98,-0.07,-209.8,-6.4,1.0,0.010000000000000009,1.18,0.14,0.01,0.0,0.9837682653958705,2.3171965820793017,0.010094723071058076,0.28,0,0,0.0
3.1458395709996694,9,4480.28,-95.4,-1.1,-96.9,-0.19,2.24,0.2,-0.04,-0.98,-0.08,-209.9,-4.9,6.0,0.010000000000000009,1.18,0.15,0.0,0.0,0.9840731680114034,2.2569226836557785,0.009594024046414629,0.28,0,0,0.0
3.1540170230000513,10,4480.29,-95.4,-1.1,-96.7,-0.25,2.18,0.17,-0.04,-0.99,-0.08,-209.9,-7.2,-23.0,0.010000000000000009,1.18,0.25,0.07,0.0,0.9940321926376429,2.2008634669147473,0.0003577005682282586,0.28,0,0,0.0
3.165862130000278,11,4480.3,-95.4,-1.1,-96.5,-0.29,2.11,0.13,-0.04,-0.99,-0.08,-210.0,-9.2,-4.0,0.010000000000000009,1.18,0.2,-0.03,0.0,0.9940321926376429,2.1337994282499935,0.00035054655686372893,0.28,0,0,0.0
3.1740510649997304,12,4480.31,-95.4,-1.1,-96.3,-0.34,2.07,0.11,-0.03,-1.0,-0.08,-210.1,-6.0,20.0,0.010000000000000009,1.18,0.12,0.12,0.0,1.0036433629531956,2.100618956403088,0.009762482534968142,0.28,0,0,0.0
3.185793437999564,13,4480.32,-95.5,-1.1,-96.1,-0.32,2.0,0.1,-0.03,-1.0,-0.08,-210.1,-5.7,0.0,0.020000000000000018,1.19,0.16,0.22,0.0,1.0036433629531956,2.0279053232338042,0.00956723288426875,0.28,0,0,0.0
3.1940128539999932,14,4480.33,-95.5,-1.1,-95.9,-0.28,1.94,0.09,-0.02,-1.0,-0.07,-210.2,-7.0,-8.0,0.020000000000000018,1.19,0.22,0.15,0.0,1.002646498024104,1.9621671692289624,0.008398960596073701,0.28,0,0,0.0
3.205805192000298,15,4480.34,-95.5,-1.1,-95.7,-0.22,1.9,0.08,-0.02,-1.0,-0.07,-210.3,-8.1,-7.0,0.020000000000000018,1.19,0.25,0.16,0.0,1.002646498024104,1.914366736025258,0.008230981384152236,0.28,0,0,0.0
3.214046699999926,16,4480.35,-95.5,-1.1,-95.5,-0.19,1.87,0.08,-0.02,-0.99,-0.07,-210.4,-12.8,-51.0,0.020000000000000018,1.19,0.44,0.2,0.0,0.9926731586982696,1.88132931726479,0.001707510782848698,0.28,0,0,0.0
3.2258678890002557,17,4480.36,-95.5,-1.1,-95.3,-0.22,1.85,0.08,-0.03,-0.98,-0.08,-210.5,-15.7,-17.0,0.030000000000000027,1.2,0.42,-0.11,0.0,0.983717439105356,1.864751994234086,0.010449965768246972,0.28,0,0,0.0
3.234043634000045,18,4480.37,-95.6,-1.1,-95.1,-0.28,1.81,0.09,-0.03,-0.98,-0.08,-210.7,-14.8,5.0,0.030000000000000027,1.2,0.36,0.03,0.0,0.983717439105356,1.833739348980656,0.010240966452882083,0.28,0,0,0.0
3.2457725000003848,19,4480.38,-95.6,-1.1,-94.9,-0.31,1.76,0.08,-0.03,-0.98,-0.08,-210.8,-15.7,-19.0,0.040000000000000036,1.21,0.46,-0.16,0.0,0.983717439105356,1.7888823326311878,0.01003614712382439,0.28,0,0,0.0
3.2539039709999997,20,4480.39,-95.6,-1.1,-94.8,-0.36,1.71,0.08,-0.04,-0.98,-0.08,-211.0,-16.5,0.0,0.040000000000000036,1.21,0.42,-0.11,0.0,0.9840731680114034,1.7493141513175956,0.00948680985342143,0.28,0,0,0.0
3.265869257000304,21,4480.4,-95.7,-1.1,-94.6,-0.38,1.68,0.07,-0.03,-0.98,-0.08,-211.2,-13.9,22.0,0.040000000000000036,1.21,0.35,0.0,0.0,0.983717439105356,1.7238619434281852,0.00964568798427945,0.28,0,0,0.0
3.274069060000329,22,4480.41,-95.7,-1.1,-94.4,-0.41,1.65,0.06,-0.03,-0.99,-0.08,-211.3,-13.6,-1.0,0.050000000000000044,1.22,0.41,-0.03,0.0,0.9936800289831732,1.701234845634194,0.00031056385566696765,0.28,0,0,0.0
3.285809187999803,23,4480.42,-95.7,-1.1,-94.3,-0.42,1.6,0.04,-0.03,-1.0,-0.08,-211.4,-14.8,-6.0,0.050000000000000044,1.22,0.41,-0.08,0.0,1.0036433629531956,1.6546903033498446,0.010068419869175504,0.28,0,0,0.0
3.293839764999575,24,4480.43,-95.8,-1.1,-94.1,-0.43,1.54,0.05,-0.03,-1.0,-0.08,-211.6,-12.9,24.0,0.06000000000000005,1.23,0.28,-0.18,0.0,1.0036433629531956,1.5996874694764598,0.00986705147179201,0.28,0,0,0.0
3.3057963390001532,25,4480.44,-95.8,-1.1,-93.9,-0.37,1.49,0.06,-0.03,-1.0,-0.08,-211.7,-11.1,-1.0,0.06000000000000005,1.23,0.36,0.15,0.0,1.0036433629531956,1.536424420529692,0.009669710442356205,0.28,0,0,0.0
3.314035854999929,26,4480.45,-95.8,-1.1,-93.8,-0.32,1.47,0.08,-0.03,-0.99,-0.08,-211.8,-14.7,-21.0,0.06000000000000005,1.23,0.45,-0.02,0.0,0.9936800289831732,1.5065523555456013,0.00028775105711287274,0.28,0,0,0.0
3.3258559209998566,27,4480.46,-95.9,-1.1,-93.7,-0.29,1.43,0.11,-0.02,-0.99,-0.08,-212.0,-17.0,-13.0,0.07000000000000006,1.24,0.45,-0.05,0.0,0.9934284070832683,1.4632498077908638,0.0005285854978773763,0.28,0,0,0.0
3.3340158099999826,28,4480.47,-95.9,-1.1,-93.5,-0.24,1.38,0.1,-0.02,-0.99,-0.08,-212.2,-17.1,-11.0,0.07000000000000006,1.24,0.48,-0.11,0.0,0.9934284070832683,1.4042791745233565,0.0005180137879198243,0.28,0,0,0.0
3.34578276800039,29,4480.48,-95.9,-1.1,-93.4,-0.26,1.35,0.1,-0.03,-0.98,-0.08,-212.3,-18.0,-5.0,0.08000000000000007,1.25,0.47,0.02,0.0,0.983717439105356,1.3784411485442534,0.010024402130515475,0.28,0,0,0.0
3.353856267000083,30,4480.49,-95.9,-1.1,-93.2,-0.31,1.3,0.1,-0.03,-0.98,-0.08,-212.5,-15.2,20.0,0.08000000000000007,1.25,0.38,0.11,0.0,0.983717439105356,1.340186554178186,0.009823914087905172,0.28,0,0,0.0
3.365888016000099,31,4480.5,-95.9,-1.1,-93.1,-0.37,1.26,0.1,-0.03,-0.99,-0.08,-212.6,-14.1,16.0,0.09000000000000008,1.26,0.35,-0.08,0.0,0.9936800289831732,1.3170041761513136,0.00013590227411375277,0.28,0,0,0.0
3.373837013999946,32,4480.51,-96.0,-1.1,-93.0,-0.36,1.2,0.06,-0.03,-1.0,-0.08,-212.8,-11.5,18.0,0.09000000000000008,1.26,0.3,-0.14,0.0,1.0036433629531956,1.2542726976220122,0.009897251519253358,0.28,0,0,0.0
3.385865260999708,33,4480.52,-96.0,-1.1,-92.9,-0.32,1.14,0.04,-0.03,-1.0,-0.09,-212.9,-10.0,23.0,0.09000000000000008,1.26,0.21,-0.18,0.0,1.0044899203078146,1.1847362575695908,0.010528932696394988,0.28,0,0,0.0
3.3939961280002535,34,4480.53,-96.0,-1.1,-92.8,-0.24,1.09,0.03,-0.03,-1.0,-0.09,-213.0,-7.0,18.0,0.09000000000000008,1.26,0.2,-0.03,0.0,1.0044899203078146,1.1165124271587845,0.01031835404246706,0.28,0,0,0.0
3.4057877730001564,35,4480.54,-96.0,-1.1,-92.7,-0.14,1.03,0.02,-0.02,-0.99,-0.09,-213.0,-8.4,-6.0,0.09000000000000008,1.26,0.26,0.21,0.0,0.9942836617384396,1.0396634070698074,0.00010985356363024668,0.28,0,0,0.0
3.4180224570000064,36,4480.55,-96.0,-1.1,-92.6,-0.1,0.97,0.02,-0.02,-0.99,-0.09,-213.1,-8.1,15.0,0.10000000000000009,1.27,0.16,0.22,0.0,0.9942836617384396,0.9753460924205315,0.00010765649235766617,0.28,0,0,0.0
3.4260589140003503,37,4480.56,-96.1,-1.1,-92.5,-0.11,0.93,0.0,-0.02,-0.98,-0.09,-213.2,-5.1,18.0,0.10000000000000009,1.27,0.11,-0.19,0.0,0.9843271813782244,0.9364827814754525,0.009651847390500401,0.28,0,0,0.0
3.434010132000367,38,4480.57,-96.1,-1.1,-92.4,-0.15,0.9,0.02,-0.02,-0.98,-0.09,-213.2,-4.3,6.0,0.10000000000000009,1.27,0.11,0.16,0.0,0.9843271813782244,0.912633551870629,0.009458810442690369,0.28,0,0,0.0
3.445924227999967,39,4480.58,-96.1,-1.1,-92.3,-0.21,0.85,0.0,-0.02,-0.99,-0.09,-213.3,-4.3,7.0,0.10000000000000009,1.27,0.08,0.05,0.0,0.9942836617384396,0.8755569655939013,0.00048771651917434156,0.28,0,0,0.0
3.4539989140002945,40,4480.59,-96.1,-1.1,-92.2,-0.24,0.79,-0.01,-0.02,-0.99,-0.09,-213.3,-2.9,9.0,0.10000000000000009,1.27,0.08,-0.18,0.0,0.9942836617384396,0.8257118141337206,0.00047796218879081476,0.28,0,0,0.0
3.4660761750001257,41,4480.6,-96.1,-1.1,-92.1,-0.25,0.72,0.0,-0.02,-1.0,-0.09,-213.3,-2.9,3.0,0.10000000000000009,1.27,0.07,0.3,0.0,1.0042410069301093,0.7621679604916491,0.01022660123285124,0.28,0,0,0.0
3.474032387999614,42,4480.61,-96.1,-1.1,-92.1,-0.24,0.66,0.0,-0.03,-1.0,-0.09,-213.4,-3.9,-14.0,0.10000000000000009,1.27,0.15,0.2,0.0,1.0044899203078146,0.7022819946431775,0.010266004318345345,0.28,0,0,0.0
3.486111381000228,43,4480.62,-96.2,-1.1,-92.0,-0.2,0.58,0.01,-0.03,-1.0,-0.09,-213.4,-9.0,-44.0,0.1100000000000001,1.28,0.34,0.08,0.0,1.0044899203078146,0.6135959582656978,0.010060684231978478,0.28,0,0,0.0
3.4939836419998755,44,4480.63,-96.2,-1.1,-91.9,-0.17,0.5,0.02,-0.03,-0.99,-0.1,-213.6,-12.5,-17.0,0.1100000000000001,1.28,0.32,0.15,0.0,0.9954898291795853,0.5284884104689525,0.001039381241674242,0.28,0,0,0.0
3.5058817970002565,45,4480.64,-96.2,-1.1,-91.9,-0.15,0.45,0.04,-0.03,-0.99,-0.1,-213.7,-10.9,4.0,0.1100000000000001,1.28,0.26,0.07,0.0,0.9954898291795853,0.4760252094164762,0.0010185936168407572,0.28,0,0,0.0
3.5140345930003605,46,4480.65,-96.2,-1.1,-91.9,-0.1,0.4,0.04,-0.02,-0.99,-0.1,-213.8,-7.2,35.0,0.1100000000000001,1.28,0.1,-0.03,0.0,0.995238664843765,0.41424630354415964,0.0007520806954001147,0.28,0,0,0.0
3.5262191270003314,47,4480.66,-96.2,-1.1,-91.8,-0.06,0.37,0.04,-0.02,-1.0,-0.1,-213.8,-2.0,37.0,0.1100000000000001,1.28,0.02,0.04,0.0,1.005186549850325,0.3769615364994153,0.010485966387920875,0.28,0,0,0.0
3.5338510709998445,48,4480.67,-96.2,-1.1,-91.8,-0.05,0.36,0.02,-0.02,-1.0,-0.1,-213.8,-0.2,17.0,0.1100000000000001,1.28,0.0,-0.02,0.0,1.005186549850325,0.3640054944640259,0.010276247060162502,0.28,0,0,0.0
3.546134879999954,49,4480.68,-96.2,-1.1,-91.7,-0.03,0.33,0.0,-0.02,-1.0,-0.1,-213.8,-0.3,5.0,0.1100000000000001,1.28,0.01,-0.02,0.0,1.005186549850325,0.3313608305156178,0.010070722118959208,0.28,0,0,0.0
3.554071477999969,50,4480.69,-96.2,-1.1,-91.7,0.04,0.3,-0.01,-0.03,-1.0,-0.09,-213.8,-0.8,-3.0,0.1100000000000001,1.28,0.04,0.06,0.0,1.0044899203078146,0.3028200785945344,0.009186610724919886,0.28,0,0,0.0
3.566088628000216,51,4480.7,-96.2,-1.1,-91.7,0.12,0.25,-0.04,-0.03,-0.99,-0.09,-213.8,-1.2,-2.0,0.1200000000000001,1.29,0.06,0.13,0.0,0.9945350672550466,0.28017851452243797,0.0007528774812911587,0.28,0,0,0.0
3.574065607999728,52,4480.71,-96.2,-1.1,-91.7,0.12,0.19,-0.06,-0.03,-0.99,-0.09,-213.8,-2.3,-9.0,0.1200000000000001,1.29,0.08,0.0,0.0,0.9945350672550466,0.23259406699226015,0.0007378199316653289,0.28,0,0,0.0
3.5860152659997766,53,4480.72,-96.2,-1.1,-91.6,0.08,0.12,-0.08,-0.04,-0.98,-0.09,-213.9,-3.6,-14.0,0.1200000000000001,1.29,0.12,0.07,0.0,0.9849365461794988,0.1649242250247064,0.010129614187068925,0.28,0,0,0.0
3.5939269259997673,54,4480.73,-96.1,-1.1,-91.6,0.02,0.04,-0.08,-0.04,-0.98,-0.09,-213.9,-4.9,-4.0,0.1200000000000001,1.29,0.11,-0.08,0.0,0.9849365461794988,0.09165151389911681,0.009927021903327504,0.28,0,0,0.0
3.605874982000387,55,4480.74,-96.1,-1.1,-91.6,0.03,-0.05,-0.09,-0.04,-0.99,-0.09,-214.0,-3.1,14.0,0.1200000000000001,1.29,0.03,0.03,0.0,0.9948869282486327,0.10723805294763608,2.2892962490250746e-05,0.28,0,0,0.0
3.613985822000359,56,4480.75,-96.1,-1.1,-91.6,0.05,-0.13,-0.05,-0.04,-0.99,-0.1,-214.0,0.0,25.0,0.1200000000000001,1.29,0.0,-0.01,0.0,0.9958413528268446,0.14798648586948743,0.0009577711898881569,0.28,0,0,0.0
3.625877798000147,57,4480.76,-96.1,-1.1,-91.7,0.08,-0.22,-0.03,-0.03,-0.99,-0.1,-214.0,0.0,6.0,0.1200000000000001,1.29,0.0,0.03,0.0,0.9954898291795853,0.23600847442411893,0.0005941225917762694,0.28,0,0,0.0
3.6338812900003177,58,4480.77,-96.1,-1.1,-91.7,0.1,-0.3,-0.02,-0.03,-0.99,-0.1,-214.0,-0.1,2.0,0.1200000000000001,1.29,-0.02,0.07,0.0,0.9954898291795853,0.3168595903550972,0.0005822401399407928,0.28,0,0,0.0
3.646135822999895,59,4480.78,-96.1,-1.2,-91.7,0.13,-0.38,-0.02,-0.03,-0.99,-0.1,-214.0,0.1,3.0,0.1200000000000001,1.29,0.0,-0.1,0.0,0.9954898291795853,0.402119385257662,0.0005705953371419881,0.28,0,0,0.0
3.65397205499994,60,4480.79,-96.1,-1.2,-91.8,0.15,-0.46,-0.02,-0.03,-0.99,-0.1,-214.0,0.1,0.0,0.1200000000000001,1.29,0.0,0.08,0.0,0.9954898291795853,0.4842520005121301,0.0005591834303991794,0.28,0,0,0.0
3.6657831660004376,61,4480.8,-96.0,-1.2,-91.8,0.15,-0.54,-0.03,-0.03,-0.99,-0.09,-214.0,-0.1,-2.0,0.1200000000000001,1.29,0.0,-0.05,0.0,0.9945350672550466,0.5612486080160912,0.00038766692425673543,0.28,0,0,0.0
3.673851122999622,62,4480.81,-96.0,-1.2,-91.9,0.12,-0.61,-0.04,-0.03,-0.98,-0.09,-214.0,0.0,3.0,0.1200000000000001,1.29,-0.01,0.07,0.0,0.9845811292118085,0.6229767250869008,0.010134772868144903,0.28,0,0,0.0
3.6858551249997618,63,4480.82,-96.0,-1.2,-91.9,0.08,-0.68,-0.05,-0.03,-0.98,-0.09,-214.0,0.0,-3.0,0.1200000000000001,1.29,0.0,0.08,0.0,0.9845811292118085,0.686512927773396,0.009932077410782059,0.28,0,0,0.0
3.6939042789999803,64,4480.83,-96.0,-1.2,-92.0,0.08,-0.74,-0.05,-0.03,-0.98,-0.09,-214.0,0.1,1.0,0.1200000000000001,1.29,0.01,-0.05,0.0,0.9845811292118085,0.7459892760623305,0.009733435862566364,0.28,0,0,0.0
3.7058357469995826,65,4480.84,-96.0,-1.2,-92.1,0.09,-0.83,-0.05,-0.03,-0.99,-0.09,-214.0,0.0,3.0,0.1200000000000001,1.29,-0.01,0.03,0.0,0.9945350672550466,0.8363611660042567,0.0002160921370583102,0.28,0,0,0.0
3.7140326110002206,66,4480.85,-96.0,-1.2,-92.2,0.09,-0.91,-0.04,-0.03,-0.99,-0.09,-214.0,0.1,-2.0,0.1200000000000001,1.29,0.0,0.08,0.0,0.9945350672550466,0.9153141537199128,0.00021177029431718175,0.28,0,0,0.0
3.725888355999814,67,4480.86,-96.0,-1.2,-92.3,0.1,-0.98,-0.04,-0.02,-0.99,-0.09,-214.0,0.0,0.0,0.1200000000000001,1.29,0.0,-0.01,0.0,0.9942836617384396,0.985900603509299,3.884251784402881e-05,0.28,0,0,0.0
3.7339236839998193,68,4480.87,-95.9,-1.2,-92.4,0.1,-1.04,-0.05,-0.02,-0.99,-0.1,-214.0,0.1,-2.0,0.1200000000000001,1.29,0.0,0.03,0.0,0.995238664843765,1.0459923517884824,0.0008978373757316804,0.28,0,0,0.0
3.7459252290000222,69,4480.88,-95.9,-1.3,-92.5,0.07,-1.09,-0.06,-0.02,-0.99,-0.1,-214.0,0.0,-2.0,0.1200000000000001,1.29,0.0,0.03,0.0,0.995238664843765,1.0938921336219583,0.000879880628217089,0.28,0,0,0.0
3.7537684970002374,70,4480.89,-95.9,-1.3,-92.6,0.09,-1.13,-0.09,-0.02,-1.0,-0.1,-214.0,0.0,0.0,0.1200000000000001,1.29,0.0,-0.05,0.0,1.005186549850325,1.137145549171257,0.010611210322081566,0.28,0,0,0.0
3.7659290769997824,71,4480.9,-95.9,-1.3,-92.7,0.09,-1.15,-0.11,-0.01,-0.99,-0.11,-214.0,0.2,3.0,0.1200000000000001,1.29,-0.02,0.0,0.0,0.9961425600786264,1.1587493257818966,0.0015358761393753362,0.28,0,0,0.0
3.773931914000059,72,4480.91,-95.9,-1.3,-92.8,0.07,-1.16,-0.11,-0.01,-0.99,-0.11,-214.0,0.1,-3.0,0.1200000000000001,1.29,0.0,0.07,0.0,0.9961425600786264,1.1673045875006232,0.0015051586165878428,0.28,0,0,0.0
3.785896835999665,73,4480.92,-95.9,-1.2,-93.0,0.08,-1.16,-0.12,0.0,-0.99,-0.1,-214.0,-0.2,0.0,0.1200000000000001,1.29,-0.01,0.02,0.0,0.9950376877284598,1.1689311356961964,0.0003922805410927488,0.28,0,0,0.0
3.7938964839995606,74,4480.93,-95.9,-1.2,-93.1,0.11,-1.17,-0.13,0.0,-0.98,-0.09,-214.0,0.1,2.0,0.1200000000000001,1.29,0.0,-0.05,0.0,0.9841239759298621,1.1823282116231515,0.010311002632354849,0.28,0,0,0.0
3.8060641060001217,75,4480.94,-95.9,-1.2,-93.2,0.02,-1.17,-0.14,-0.01,-0.98,-0.09,-214.0,0.0,0.0,0.1200000000000001,1.29,0.0,-0.09,0.0,0.9841747812253675,1.178516016013359,0.01005499339011251,0.28,0,0,0.0
3.8138531900003727,76,4480.95,-95.9,-1.2,-93.3,-0.04,-1.17,-0.14,0.0,-0.98,-0.09,-214.0,0.0,-1.0,0.1200000000000001,1.29,0.0,0.02,0.0,0.9841239759298621,1.1790250209389113,0.00990368271190556,0.28,0,0,0.0
3.8262785999995685,77,4480.96,-95.9,-1.2,-93.4,-0.07,-1.15,-0.14,0.0,-0.98,-0.1,-214.0,0.0,1.0,0.1200000000000001,1.29,0.0,0.07,0.0,0.9850888284819801,1.1606032913963322,0.008760053556591818,0.28,0,0,0.0
3.8339025989998845,78,4480.97,-95.9,-1.2,-93.5,-0.06,-1.12,-0.15,0.0,-0.99,-0.1,-214.0,0.2,3.0,0.1200000000000001,1.29,0.0,0.02,0.0,0.9950376877284598,1.131591799192624,0.0011650295760901042,0.28,0,0,0.0
3.846010971999931,79,4480.98,-95.9,-1.2,-93.7,-0.02,-1.1,-0.17,0.0,-0.99,-0.1,-214.0,-0.1,-2.0,0.1200000000000001,1.29,0.0,-0.1,0.0,0.9950376877284598,1.1132385189167684,0.0011417289845683243,0.28,0,0,0.0
3.8539000009996016,80,4480.99,-95.9,-1.2,-93.8,0.02,-1.09,-0.17,0.0,-0.98,-0.09,-214.0,0.1,0.0,0.1200000000000001,1.29,0.0,0.07,0.0,0.9841239759298621,1.1033585092797353,0.009576543157748807,0.28,0,0,0.0
3.865956648000065,81,4481.0,-95.9,-1.1,-93.9,0.07,-1.05,-0.19,0.0,-0.98,-0.1,-214.0,0.0,0.0,0.1200000000000001,1.29,0.0,-0.15,0.0,0.9850888284819801,1.0693455942771728,0.008439456793518207,0.28,0,0,0.0
3.873825417000262,82,4481.01,-95.9,-1.1,-94.0,0.0,-1.03,-0.2,-0.01,-0.98,-0.1,-214.0,0.0,1.0,0.1200000000000001,1.29,0.0,0.02,0.0,0.9851395840184273,1.049237818609299,0.008220927231929576,0.28,0,0,0.0
3.8859280099995885,83,4481.02,-95.9,-1.1,-94.1,-0.14,-0.98,-0.21,0.0,-0.98,-0.1,-214.0,0.1,2.0,0.1200000000000001,1.29,-0.01,0.07,0.0,0.9850888284819801,1.0119782606360672,0.008106249113009167,0.28,0,0,0.0
3.89404387400009,84,4481.03,-95.9,-1.1,-94.2,-0.2,-0.93,-0.22,0.0,-0.99,-0.11,-214.0,0.0,0.0,0.1200000000000001,1.29,0.0,0.07,0.0,0.9960923651951158,0.9763708311906907,0.002839341848123955,0.28,0,0,0.0
3.9059954610002023,85,4481.04,-95.9,-1.1,-94.3,-0.22,-0.87,-0.21,0.0,-0.99,-0.1,-214.0,0.0,-1.0,0.1200000000000001,1.29,0.0,-0.05,0.0,0.9950376877284598,0.9216289925995167,0.0017489710938386471,0.28,0,0,0.0
3.9137655630001973,86,4481.05,-95.9,-1.0,-94.4,-0.18,-0.82,-0.2,0.0,-0.99,-0.11,-213.9,0.2,3.0,0.1200000000000001,1.29,-0.01,0.0,0.0,0.9960923651951158,0.8630179604156567,0.0027475755892847342,0.28,0,0,0.0
3.9262739180003337,87,4481.06,-95.9,-1.0,-94.4,-0.16,-0.76,-0.16,0.0,-0.99,-0.11,-213.9,0.0,-3.0,0.1200000000000001,1.29,0.01,0.12,0.0,0.9960923651951158,0.7929691040639603,0.0026926240774990395,0.28,0,0,0.0
3.9338847830003942,88,4481.07,-96.0,-1.0,-94.5,-0.21,-0.7,-0.12,0.0,-1.0,-0.11,-213.9,0.3,4.0,0.1200000000000001,1.29,-0.02,-0.11,0.0,1.0060318086422517,0.7406078584514209,0.012379426174142227,0.28,0,0,0.0
3.9460789849999856,89,4481.08,-96.0,-1.0,-94.6,-0.19,-0.67,-0.1,0.0,-1.01,-0.1,-213.9,0.2,-5.0,0.1200000000000001,1.29,0.0,-0.1,0.0,1.0149384217774002,0.7035623639735145,0.02086031852310488,0.28,0,0,0.0
3.953868636000152,90,4481.09,-96.0,-1.0,-94.7,-0.13,-0.65,-0.1,0.0,-1.0,-0.1,-213.9,0.0,1.0,0.1200000000000001,1.29,0.0,0.0,0.0,1.004987562112089,0.6703730304837748,0.010691269680637716,0.28,0,0,0.0
3.965867775999868,91,4481.1,-96.0,-1.0,-94.7,-0.1,-0.63,-0.1,0.0,-1.0,-0.11,-213.9,0.0,0.0,0.1200000000000001,1.29,0.0,-0.06,0.0,1.0060318086422517,0.6456779382943172,0.01150080588658453,0.28,0,0,0.0
3.9739175940003406,92,4481.11,-96.0,-1.0,-94.8,-0.02,-0.62,-0.1,-0.01,-0.99,-0.11,-213.9,0.0,-2.0,0.1200000000000001,1.29,0.0,0.02,0.0,0.9961425600786264,0.6283311228962004,0.0015793261765000288,0.28,0,0,0.0
3.9860969430001205,93,4481.12,-96.0,-1.0,-94.8,-0.01,-0.62,-0.11,-0.01,-0.98,-0.11,-213.9,0.1,-3.0,0.1200000000000001,1.29,0.0,0.0,0.0,0.9862048468751307,0.6297618597533515,0.00819121928645583,0.28,0,0,0.0
3.993921236999995,94,4481.13,-96.0,-1.0,-94.9,-0.03,-0.63,-0.11,-0.01,-0.98,-0.11,-213.9,-0.1,0.0,0.1200000000000001,1.29,0.0,0.02,0.0,0.9862048468751307,0.6402343321003646,0.008027394900726681,0.28,0,0,0.0
4.005901825000365,95,4481.14,-96.0,-0.9,-95.0,-0.07,-0.63,-0.12,-0.01,-0.99,-0.11,-213.9,0.0,0.0,0.1200000000000001,1.29,0.0,0.02,0.0,0.9961425600786264,0.6451356446515726,0.0018721119367137717,0.28,0,0,0.0
4.0139591939996535,96,4481.15,-96.1,-0.9,-95.0,-0.1,-0.61,-0.13,0.0,-0.99,-0.11,-213.9,0.1,0.0,0.1200000000000001,1.29,0.0,-0.04,0.0,0.9960923651951158,0.6316644678941503,0.001785478712139077,0.28,0,0,0.0
4.026244601999679,97,4481.16,-96.1,-0.9,-95.1,-0.08,-0.58,-0.13,0.0,-0.99,-0.11,-213.9,0.0,0.0,0.1200000000000001,1.29,0.0,0.07,0.0,0.9960923651951158,0.599749947894954,0.001749769137896262,0.28,0,0,0.0
4.033904990000337,98,4481.17,-96.1,-0.9,-95.2,-0.04,-0.54,-0.14,0.0,-0.99,-0.11,-213.9,0.0,2.0,0.1200000000000001,1.29,0.0,0.08,0.0,0.9960923651951158,0.5592852581643826,0.001714773755138288,0.28,0,0,0.0
4.046261251999567,99,4481.18,-96.1,-0.9,-95.2,0.0,-0.5,-0.15,0.0,-0.99,-0.11,-213.9,0.2,-2.0,0.1200000000000001,1.29,0.0,0.06,0.0,0.9960923651951158,0.5220153254455275,0.00168047828003548,0.28,0,0,0.0
4.053918759000226,100,4481.19,-96.1,-0.9,-95.3,0.03,-0.43,-0.16,0.0,-0.99,-0.11,-213.9,0.0,0.0,0.1200000000000001,1.29,0.0,-0.09,0.0,0.9960923651951158,0.45978255730290596,0.0016468687144347571,0.28,0,0,0.0
4.065980778999801,101,4481.2,-96.1,-0.8,-95.3,0.0,-0.38,-0.15,0.0,-0.99,-0.11,-213.9,-0.3,1.0,0.1200000000000001,1.29,0.0,-0.01,0.0,0.9960923651951158,0.40853396431630995,0.0016139313401460909,0.28,0,0,0.0
4.073933243999818,102,4481.21,-96.1,-0.8,-95.3,-0.03,-0.32,-0.12,0.01,-0.99,-0.11,-213.9,0.1,0.0,0.1200000000000001,1.29,0.0,-0.04,0.0,0.9961425600786264,0.34307433596816883,0.0016308436991836484,0.28,0,0,0.0
4.086022626999693,103,4481.22,-96.1,-0.8,-95.4,0.0,-0.24,-0.11,0.01,-0.99,-0.11,-213.9,0.1,3.0,0.1200000000000001,1.29,-0.01,0.08,0.0,0.9961425600786264,0.2640075756488817,0.0015982268251999443,0.28,0,0,0.0
4.093826684000305,104,4481.23,-96.1,-0.8,-95.4,0.08,-0.18,-0.1,0.01,-1.0,-0.11,-213.9,0.0,-3.0,0.1200000000000001,1.29,0.0,-0.01,0.0,1.006081507632458,0.22090722034374521,0.011306430891450892,0.28,0,0,0.0
4.106333319999976,105,4481.24,-96.1,-0.7,-95.4,0.18,-0.14,-0.12,0.0,-0.99,-0.1,-213.9,0.3,0.0,0.1200000000000001,1.29,0.0,-0.01,0.0,0.9950376877284598,0.25768197453450253,0.0002573587677036082,0.28,0,0,0.0
4.113926136999908,106,4481.25,-96.1,-0.7,-95.4,0.21,-0.12,-0.12,0.0,-0.98,-0.1,-213.9,-0.2,0.0,0.1200000000000001,1.29,0.0,0.03,0.0,0.9850888284819801,0.26999999999999996,0.009497670469200581,0.28,0,0,0.0
4.12630084400007,107,4481.26,-96.0,-0.7,-95.4,0.17,-0.09,-0.14,0.0,-0.98,-0.1,-213.9,0.3,3.0,0.1200000000000001,1.29,-0.01,0.07,0.0,0.9850888284819801,0.2379075450674064,0.00930771705981659,0.28,0,0,0.0
4.134023986000102,108,4481.27,-96.0,-0.7,-95.4,0.05,-0.08,-0.14,-0.01,-0.98,-0.1,-213.9,0.0,-1.0,0.1200000000000001,1.29,0.0,-0.04,0.0,0.9851395840184273,0.16881943016134132,0.009071822292902043,0.28,0,0,0.0
4.14597765399958,109,4481.28,-96.0,-0.7,-95.5,-0.01,-0.04,-0.12,-0.01,-1.0,-0.1,-213.9,0.1,0.0,0.1200000000000001,1.29,0.0,0.07,0.0,1.0050373127401788,0.1268857754044952,0.010609388300272471,0.28,0,0,0.0
4.153794173999813,110,4481.29,-96.0,-0.7,-95.5,0.04,-0.02,-0.12,-0.01,-1.01,-0.09,-213.9,0.3,1.0,0.1200000000000001,1.29,-0.01,-0.1,0.0,1.014051280754578,0.12806248474865697,0.01923088918837823,0.28,0,0,0.0
4.165938670000287,111,4481.3,-96.0,-0.7,-95.5,0.14,-0.02,-0.14,-0.01,-1.0,-0.09,-213.9,0.1,-2.0,0.1200000000000001,1.29,0.0,-0.03,0.0,1.0040916292848974,0.198997487421324,0.009085812964323536,0.28,0,0,0.0
4.173972421999679,112,4481.31,-96.0,-0.6,-95.5,0.17,-0.03,-0.13,-0.01,-0.99,-0.1,-213.9,0.0,1.0,0.1200000000000001,1.29,0.0,0.07,0.0,0.9950879358127099,0.2161018278497431,8.04771022934192e-05,0.28,0,0,0.0
4.185981825999988,113,4481.32,-96.0,-0.6,-95.5,0.16,-0.04,-0.13,-0.01,-0.98,-0.1,-213.9,0.0,2.0,0.1200000000000001,1.29,-0.01,0.0,0.0,0.9851395840184273,0.21,0.009670517198149486,0.28,0,0,0.0
4.193957532999775,114,4481.33,-96.0,-0.6,-95.5,0.13,-0.05,-0.13,-0.01,-0.98,-0.1,-213.9,0.5,1.0,0.1200000000000001,1.29,-0.01,0.07,0.0,0.9851395840184273,0.1905255888325765,0.009477106854186457,0.28,0,0,0.0
4.205890547999843,115,4481.34,-95.9,-0.6,-95.5,0.11,-0.05,-0.12,-0.01,-0.98,-0.09,-213.9,0.4,1.0,0.1200000000000001,1.29,-0.02,0.09,0.0,0.9841747812253675,0.170293863659264,0.010233071454301301,0.28,0,0,0.0
4.213958860000275,116,4481.35,-95.9,-0.6,-95.5,0.1,-0.02,-0.13,-0.01,-0.99,-0.09,-213.9,0.6,0.0,0.1200000000000001,1.29,-0.03,-0.01,0.0,0.9941327879111522,0.16522711641858306,0.0002695634731462171,0.28,0,0,0.0
4.225998148000144,117,4481.36,-95.9,-0.6,-95.5,0.13,0.0,-0.15,0.0,-0.99,-0.09,-213.9,0.4,-2.0,0.1200000000000001,1.29,0.0,-0.01,0.0,0.9940824915468535,0.1984943324127921,0.00031346264069609386,0.28,0,0,0.0
4.2339914410003985,118,4481.37,-95.9,-0.6,-95.5,0.16,0.03,-0.18,0.0,-0.99,-0.1,-213.9,0.4,1.0,0.1200000000000001,1.29,-0.01,0.11,0.0,0.9950376877284598,0.24269322199023194,0.0006288988700919873,0.28,0,0,0.0
4.24596134300009,119,4481.38,-95.9,-0.5,-95.5,0.19,0.07,-0.18,0.0,-1.0,-0.09,-213.9,0.5,0.0,0.1200000000000001,1.29,-0.01,0.04,0.0,1.004041831797859,0.2709243436828813,0.009440382080701415,0.28,0,0,0.0
4.2540655450002305,120,4481.39,-95.9,-0.5,-95.5,0.23,0.07,-0.17,0.0,-1.0,-0.09,-213.9,0.7,1.0,0.1200000000000001,1.29,-0.02,-0.07,0.0,1.004041831797859,0.29444863728670917,0.009251574439087418,0.28,0,0,0.0
4.265956717000336,121,4481.4,-95.8,-0.5,-95.5,0.25,0.07,-0.16,0.0,-1.0,-0.09,-213.9,0.9,0.0,0.1200000000000001,1.29,-0.03,-0.04,0.0,1.004041831797859,0.30495901363953815,0.009066542950305623,0.28,0,0,0.0
4.27393337400008,122,4481.41,-95.8,-0.5,-95.5,0.24,0.06,-0.14,0.0,-0.99,-0.1,-213.9,0.6,0.0,0.1200000000000001,1.29,-0.02,0.05,0.0,0.9950376877284598,0.2842534080710379,6.115090328828732e-05,0.28,0,0,0.0
4.28590877500028,123,4481.42,-95.8,-0.5,-95.5,0.25,0.04,-0.1,0.0,-0.99,-0.1,-213.9,0.7,0.0,0.1200000000000001,1.29,-0.01,0.69,0.0,0.9950376877284598,0.272213151776324,5.992788522257708e-05,0.28,0,0,0.0
4.293962949000161,124,4481.43,-95.8,-0.5,-95.5,0.23,0.02,-0.07,0.0,-0.99,-0.1,-213.9,0.5,1.0,0.1200000000000001,1.29,-0.02,0.05,0.0,0.9950376877284598,0.24124676163629638,5.872932751815885e-05,0.28,0,0,0.0
4.305988006000007,125,4481.44,-95.7,-0.4,-95.5,0.2,0.0,-0.02,0.0,-0.98,-0.11,-213.9,0.2,-3.0,0.1200000000000001,1.29,0.0,-0.01,0.0,0.986154146165801,0.2009975124224178,0.008648315990437805,0.28,0,0,0.0
4.314029725999717,126,4481.45,-95.7,-0.4,-95.5,0.16,-0.02,0.0,-0.01,-0.98,-0.11,-213.9,0.7,5.0,0.1200000000000001,1.29,-0.03,0.0,0.0,0.9862048468751307,0.161245154965971,0.00842566297548597,0.28,0,0,0.0
4.3260183980000875,127,4481.46,-95.7,-0.5,-95.5,0.12,-0.04,0.02,-0.01,-0.97,-0.11,-213.8,0.6,0.0,0.1200000000000001,1.29,-0.02,0.08,0.0,0.9762684057163787,0.12806248474865697,0.017994862051553095,0.28,0,0,0.0
4.33400827100013,128,4481.47,-95.7,-0.5,-95.5,0.07,-0.09,0.03,-0.02,-0.97,-0.1,-213.8,0.4,0.0,0.1200000000000001,1.29,-0.02,0.02,0.0,0.9753460924205315,0.11789826122551596,0.018538831840452352,0.28,0,0,0.0
4.345955613999649,129,4481.48,-95.7,-0.5,-95.5,0.0,-0.12,0.02,-0.02,-0.98,-0.11,-213.8,0.4,0.0,0.1200000000000001,1.29,-0.03,0.09,0.0,0.9863569333664157,0.1216552506059644,0.007377431076676766,0.28,0,0,0.0
4.353760123000029,130,4481.49,-95.7,-0.5,-95.5,0.0,-0.1,0.01,-0.02,-0.99,-0.11,-213.8,0.6,-1.0,0.1200000000000001,1.29,0.0,0.09,0.0,0.9962931295557548,0.1004987562112089,0.0025075898104089944,0.28,0,0,0.0
4.36585118200037,131,4481.5,-95.7,-0.5,-95.5,0.06,-0.08,0.0,-0.01,-0.99,-0.1,-213.8,0.5,0.0,0.1200000000000001,1.29,-0.01,0.0,0.0,0.9950879358127099,0.1,0.001276348146016848,0.28,0,0,0.0
4.37402224699963,132,4481.51,-95.7,-0.5,-95.5,0.13,-0.1,0.0,-0.01,-0.99,-0.09,-213.8,0.0,-4.0,0.1200000000000001,1.29,0.0,-0.04,0.0,0.9941327879111522,0.16401219466856726,0.00031477623956999157,0.28,0,0,0.0
4.386231858999963,133,4481.52,-95.7,-0.5,-95.5,0.14,-0.15,0.02,0.0,-0.98,-0.09,-213.8,0.0,-1.0,0.1200000000000001,1.29,0.0,-0.04,0.0,0.9841239759298621,0.206155281280883,0.009500155026885726,0.28,0,0,0.0
4.394005731999641,134,4481.53,-95.7,-0.5,-95.6,0.12,-0.18,0.02,0.0,-0.98,-0.1,-213.8,0.4,1.0,0.1100000000000001,1.28,0.0,-0.05,0.0,0.9850888284819801,0.2172556098240043,0.00836459642527243,0.28,0,0,0.0
4.405925592999665,135,4481.54,-95.7,-0.5,-95.6,0.09,-0.18,0.04,0.0,-0.98,-0.12,-213.8,0.3,2.0,0.1100000000000001,1.28,-0.01,-0.01,0.0,0.9873196037757985,0.2051828452868319,0.0060111447088249115,0.28,0,0,0.0
4.413948022999648,136,4481.55,-95.7,-0.5,-95.6,0.1,-0.17,0.04,0.0,-0.99,-0.11,-213.8,-0.2,0.0,0.1100000000000001,1.28,0.0,-0.1,0.0,0.9960923651951158,0.20124611797498107,0.0027063843762824558,0.28,0,0,0.0
4.425907980000375,137,4481.56,-95.7,-0.5,-95.6,0.15,-0.18,0.04,-0.01,-0.99,-0.11,-213.8,0.2,2.0,0.1100000000000001,1.28,0.0,0.04,0.0,0.9961425600786264,0.23769728648009425,0.002701447674597235,0.28,0,0,0.0
4.433960016999663,138,4481.57,-95.7,-0.5,-95.6,0.17,-0.19,0.03,-0.01,-0.99,-0.11,-213.8,0.0,-3.0,0.1100000000000001,1.28,0.0,-0.11,0.0,0.9961425600786264,0.2567099530598687,0.002647418721105299,0.28,0,0,0.0
4.446032965000086,139,4481.58,-95.7,-0.5,-95.6,0.19,-0.2,0.02,-0.01,-0.99,-0.12,-213.8,0.2,2.0,0.1100000000000001,1.28,0.0,-0.02,0.0,0.9972963451251589,0.2765863337187866,0.003725179692284919,0.28,0,0,0.0
4.45397197300008,140,4481.59,-95.7,-0.5,-95.7,0.19,-0.21,0.01,-0.01,-0.99,-0.12,-213.8,0.1,-3.0,0.1100000000000001,1.28,0.0,-0.01,0.0,0.9972963451251589,0.2833725463060951,0.003650676098439165,0.28,0,0,0.0
4.465998452000349,141,4481.6,-95.7,-0.5,-95.7,0.14,-0.21,0.01,-0.01,-0.98,-0.12,-213.8,-0.1,-1.0,0.1100000000000001,1.28,0.0,0.08,0.0,0.9873702446397703,0.2525866188063018,0.006149915899210434,0.28,0,0,0.0
4.473921822999728,142,4481.61,-95.7,-0.5,-95.7,0.11,-0.22,0.01,0.0,-0.98,-0.11,-213.8,0.2,0.0,0.1100000000000001,1.28,0.0,0.0,0.0,0.986154146165801,0.24617067250182342,0.007218694085716182,0.28,0,0,0.0
4.486024312000154,143,4481.62,-95.7,-0.5,-95.7,0.09,-0.23,0.0,0.0,-0.99,-0.11,-213.8,0.0,0.0,0.1100000000000001,1.28,0.0,0.01,0.0,0.9960923651951158,0.2469817807045694,0.0026651344447266023,0.28,0,0,0.0
4.493911276999825,144,4481.63,-95.7,-0.5,-95.8,0.07,-0.23,0.0,0.0,-0.99,-0.12,-213.8,0.1,2.0,0.1100000000000001,1.28,0.0,0.07,0.0,0.9972462083156797,0.24041630560342617,0.003742598013984688,0.28,0,0,0.0
4.506001044000186,145,4481.64,-95.7,-0.5,-95.8,0.08,-0.21,-0.02,0.0,-1.0,-0.12,-213.8,0.1,2.0,0.1100000000000001,1.28,-0.01,0.0,0.0,1.0071742649611337,0.22561028345356954,0.013397241566249996,0.28,0,0,0.0
4.514025208999556,146,4481.65,-95.7,-0.5,-95.8,0.11,-0.2,-0.03,0.0,-1.0,-0.12,-213.8,0.0,-2.0,0.1100000000000001,1.28,0.0,-0.01,0.0,1.0071742649611337,0.23021728866442678,0.013129296734925022,0.28,0,0,0.0
4.526019719999567,147,4481.66,-95.7,-0.5,-95.8,0.13,-0.19,-0.01,0.0,-0.99,-0.11,-213.8,0.3,5.0,0.1100000000000001,1.28,-0.02,-0.08,0.0,0.9960923651951158,0.23043437243605827,0.002006449029528956,0.28,0,0,0.0
4.533947791999708,148,4481.67,-95.7,-0.5,-95.8,0.16,-0.17,0.0,0.0,-0.99,-0.11,-213.8,0.1,-1.0,0.1100000000000001,1.28,0.0,-0.08,0.0,0.9960923651951158,0.23345235059857505,0.0019663200489383748,0.28,0,0,0.0
4.5460105909996855,149,4481.68,-95.7,-0.5,-95.9,0.19,-0.16,0.01,0.0,-0.99,-0.11,-213.8,0.4,2.0,0.1100000000000001,1.28,-0.02,0.07,0.0,0.9960923651951158,0.2485960578931211,0.0019269936479595628,0.28,0,0,0.0
4.554016189999857,150,4481.69,-95.6,-0.5,-95.9,0.2,-0.15,0.02,0.0,-0.99,-0.11,-213.8,0.6,-1.0,0.1100000000000001,1.28,0.0,0.04,0.0,0.9960923651951158,0.25079872407968906,0.0018884537750003538,0.28,0,0,0.0
4.565938069999902,151,4481.7,-95.6,-0.5,-95.9,0.22,-0.14,0.02,0.0,-0.99,-0.11,-213.8,1.0,5.0,0.1100000000000001,1.28,-0.04,-0.09,0.0,0.9960923651951158,0.2615339366124404,0.0018506846995003379,0.28,0,0,0.0
4.573987978000332,152,4481.71,-95.6,-0.5,-95.9,0.21,-0.11,0.02,-0.01,-0.99,-0.11,-213.8,1.2,0.0,0.1100000000000001,1.28,-0.03,-0.02,0.0,0.9961425600786264,0.23790754506740636,0.0018628619913507727,0.28,0,0,0.0
4.586010492999776,153,4481.72,-95.6,-0.5,-95.9,0.14,-0.11,0.01,-0.01,-0.98,-0.1,-213.8,1.4,1.0,0.1100000000000001,1.28,-0.04,0.06,0.0,0.9851395840184273,0.1783255450012701,0.00895731178747139,0.28,0,0,0.0
4.593887881000228,154,4481.73,-95.6,-0.5,-95.9,0.06,-0.1,0.01,-0.01,-0.98,-0.1,-213.7,1.7,1.0,0.1100000000000001,1.28,-0.04,-0.01,0.0,0.9851395840184273,0.11704699910719625,0.00877816555172195,0.28,0,0,0.0
4.606069423000008,155,4481.74,-95.6,-0.6,-95.9,0.02,-0.11,0.02,-0.01,-0.99,-0.1,-213.7,0.2,-10.0,0.1100000000000001,1.28,0.0,-0.01,0.0,0.9950879358127099,0.11357816691600546,0.0011467825177094992,0.28,0,0,0.0
4.614017079000405,156,4481.75,-95.6,-0.6,-95.9,0.05,-0.12,0.04,-0.01,-0.98,-0.1,-213.7,0.0,-1.0,0.1100000000000001,1.28,0.0,0.07,0.0,0.9851395840184273,0.13601470508735444,0.008625537891041701,0.28,0,0,0.0
4.625906295000277,157,4481.76,-95.6,-0.6,-95.9,0.1,-0.12,0.04,-0.01,-0.98,-0.1,-213.7,0.1,-5.0,0.1100000000000001,1.28,0.01,0.07,0.0,0.9851395840184273,0.161245154965971,0.008453027133220825,0.28,0,0,0.0
4.634098442000322,158,4481.77,-95.6,-0.6,-96.0,0.11,-0.11,0.06,-0.01,-0.98,-0.1,-213.7,-0.1,-3.0,0.1100000000000001,1.28,0.01,0.07,0.0,0.9851395840184273,0.16673332000533067,0.008283966590556413,0.28,0,0,0.0
4.645719735000057,159,4481.78,-95.6,-0.6,-96.0,0.04,-0.1,0.05,-0.01,-0.98,-0.1,-213.7,-0.1,1.0,0.1100000000000001,1.28,0.0,-0.01,0.0,0.9851395840184273,0.11874342087037919,0.008118287258745305,0.28,0,0,0.0
4.65364718300043,160,4481.79,-95.6,-0.6,-96.0,-0.07,-0.09,0.03,-0.01,-0.99,-0.1,-213.7,-0.1,-2.0,0.1100000000000001,1.28,0.0,0.97,0.0,0.9950879358127099,0.11789826122551596,0.001793463244826654,0.28,0,0,0.0
4.66557157599982,161,4481.8,-95.6,-0.6,-96.0,-0.15,-0.09,0.01,-0.01,-0.99,-0.09,-213.7,-0.1,1.0,0.1100000000000001,1.28,0.0,-0.01,0.0,0.9941327879111522,0.1752141546793523,0.0008215490364035238,0.28,0,0,0.0
4.675656551999964,162,4481.81,-95.6,-0.6,-96.0,-0.17,-0.09,0.01,-0.01,-1.0,-0.09,-213.7,0.3,0.0,0.1100000000000001,1.28,0.0,0.06,0.0,1.0040916292848974,0.19261360284258225,0.01056478260194571,0.28,0,0,0.0
4.68541832200026,163,4481.82,-95.6,-0.6,-96.0,-0.14,-0.12,0.01,-0.02,-1.0,-0.08,-213.7,0.0,0.0,0.1100000000000001,1.28,0.0,-0.09,0.0,1.0033942395688744,0.1846618531261939,0.009670045028204344,0.28,0,0,0.0
4.693337888000315,164,4481.83,-95.6,-0.6,-96.0,-0.07,-0.16,0.02,-0.02,-0.99,-0.07,-213.7,-0.2,2.0,0.1100000000000001,1.28,-0.01,0.07,0.0,0.9926731586982696,0.17578395831246946,0.0010300151255524526,0.28,0,0,0.0
4.706009405000259,165,4481.84,-95.6,-0.6,-96.0,-0.07,-0.24,0.03,-0.03,-0.99,-0.07,-213.7,0.0,-1.0,0.1100000000000001,1.28,0.0,0.06,0.0,0.9929249719893241,0.25179356624028343,0.0007626377978079413,0.28,0,0,0.0
4.713972450000256,166,4481.85,-95.6,-0.6,-96.1,-0.12,-0.32,0.02,-0.03,-0.98,-0.07,-213.7,0.3,4.0,0.1100000000000001,1.28,-0.01,-0.09,0.0,0.9829547293746543,0.3423448553724738,0.010518222804228095,0.28,0,0,0.0
4.726033595000445,167,4481.86,-95.6,-0.7,-96.1,-0.16,-0.4,0.01,-0.04,-0.98,-0.07,-213.7,0.6,0.0,0.1100000000000001,1.28,0.0,-0.02,0.0,0.9833107342035884,0.4309292285283049,0.009958973615788125,0.28,0,0,0.0
4.737924820000444,168,4481.87,-95.6,-0.7,-96.2,-0.18,-0.47,0.01,-0.04,-0.98,-0.07,-213.7,-1.0,-4.0,0.1100000000000001,1.28,0.01,0.07,0.0,0.9833107342035884,0.5033885179461287,0.009759794143472389,0.28,0,0,0.0
4.745954930999687,169,4481.88,-95.6,-0.7,-96.2,-0.14,-0.52,0.01,-0.04,-0.98,-0.07,-213.7,0.3,9.0,0.1100000000000001,1.28,-0.02,-0.09,0.0,0.9833107342035884,0.5386093203798092,0.009564598260602963,0.28,0,0,0.0
4.7539614899997105,170,4481.89,-95.6,-0.7,-96.3,-0.13,-0.56,0.02,-0.03,-0.98,-0.08,-213.7,0.0,-7.0,0.1100000000000001,1.28,0.03,0.06,0.0,0.983717439105356,0.5752390807307863,0.008974735491658614,0.28,0,0,0.0
4.765962583000146,171,4481.9,-95.6,-0.8,-96.3,-0.15,-0.58,0.02,-0.03,-0.99,-0.09,-213.7,-0.5,0.0,0.1100000000000001,1.28,0.0,0.06,0.0,0.9945350672550466,0.5994163828258283,0.0018060348048712926,0.28,0,0,0.0
4.773968843999683,172,4481.91,-95.7,-0.8,-96.4,-0.13,-0.62,0.01,-0.02,-0.99,-0.09,-213.7,0.4,0.0,0.1100000000000001,1.28,0.0,-0.08,0.0,0.9942836617384396,0.6335613624582863,0.001523536702499051,0.28,0,0,0.0
4.785944250999819,173,4481.92,-95.7,-0.8,-96.4,-0.07,-0.61,0.02,-0.01,-0.99,-0.09,-213.7,-0.4,0.0,0.1100000000000001,1.28,0.0,0.06,0.0,0.9941327879111522,0.6143289021363068,0.0013452096177074546,0.28,0,0,0.0
4.793936674000179,174,4481.93,-95.7,-0.8,-96.5,0.0,-0.58,0.04,-0.01,-0.98,-0.09,-213.7,0.4,-2.0,0.1100000000000001,1.28,0.01,-0.1,0.0,0.9841747812253675,0.5813776741499453,0.008440541126715773,0.28,0,0,0.0
4.805996207000135,175,4481.94,-95.7,-0.8,-96.6,0.0,-0.56,0.05,0.0,-0.99,-0.09,-213.7,-0.1,3.0,0.1100000000000001,1.28,-0.01,-0.02,0.0,0.9940824915468535,0.5622277118748239,0.0014378258108748154,0.28,0,0,0.0
4.813947525000003,176,4481.95,-95.7,-0.8,-96.6,-0.02,-0.52,0.05,0.0,-0.99,-0.1,-213.7,0.1,-3.0,0.1100000000000001,1.28,0.0,0.05,0.0,0.9950376877284598,0.5227810249043093,0.002345161552631536,0.28,0,0,0.0
4.826008418000129,177,4481.96,-95.7,-0.8,-96.7,-0.06,-0.47,0.04,0.0,-0.99,-0.1,-213.7,-0.2,5.0,0.1100000000000001,1.28,-0.01,-0.02,0.0,0.9950376877284598,0.4754997371187496,0.0022982583215789276,0.28,0,0,0.0
4.833980946000338,178,4481.97,-95.7,-0.8,-96.7,-0.06,-0.4,0.03,0.0,-1.0,-0.11,-213.7,0.2,0.0,0.1100000000000001,1.28,0.0,-0.1,0.0,1.0060318086422517,0.405585995813465,0.013026531650663475,0.28,0,0,0.0
4.846009148000121,179,4481.98,-95.7,-0.8,-96.7,-0.03,-0.35,0.04,0.0,-1.0,-0.1,-213.7,-0.4,0.0,0.1100000000000001,1.28,0.0,0.05,0.0,1.004987562112089,0.35355339059327373,0.011742639418090728,0.28,0,0,0.0
4.8540043729999525,180,4481.99,-95.7,-0.8,-96.8,0.04,-0.31,0.05,-0.01,-1.0,-0.09,-213.7,0.3,2.0,0.1100000000000001,1.28,0.0,-0.01,0.0,1.0040916292848974,0.3165438358268883,0.010629772459081144,0.28,0,0,0.0
4.866087241000059,181,4482.0,-95.7,-0.8,-96.8,0.12,-0.29,0.06,-0.01,-1.0,-0.1,-213.7,0.0,-4.0,0.1100000000000001,1.28,0.01,-0.1,0.0,1.0050373127401788,0.3195309061734091,0.01134394679607531,0.28,0,0,0.0
4.873954659999981,182,4482.01,-95.7,-0.8,-96.8,0.13,-0.27,0.07,-0.01,-1.0,-0.1,-213.7,0.1,1.0,0.1100000000000001,1.28,0.0,-0.1,0.0,1.0050373127401788,0.30773365106858236,0.011117067860153762,0.28,0,0,0.0
4.886111238000012,183,4482.02,-95.7,-0.8,-96.9,0.16,-0.25,0.07,-0.01,-0.99,-0.1,-213.7,0.0,0.0,0.1100000000000001,1.28,0.0,-0.1,0.0,0.9950879358127099,0.30495901363953815,0.0011443371140311687,0.28,0,0,0.0
4.89395317799972,184,4482.03,-95.6,-0.9,-96.9,0.16,-0.21,0.08,-0.01,-0.99,-0.1,-213.7,0.1,3.0,0.1100000000000001,1.28,0.0,0.14,0.0,0.9950879358127099,0.2758622844826744,0.0011214503717505986,0.28,0,0,0.0
4.905943140999625,185,4482.04,-95.6,-0.9,-96.9,0.16,-0.16,0.09,0.0,-0.99,-0.1,-213.7,0.1,1.0,0.1100000000000001,1.28,0.0,0.05,0.0,0.9950376877284598,0.24351591323771843,0.0010497782417504542,0.28,0,0,0.0
4.914020473999699,186,4482.05,-95.6,-0.9,-96.9,0.19,-0.13,0.08,0.0,-0.99,-0.09,-213.7,0.0,1.0,0.1100000000000001,1.28,0.0,0.06,0.0,0.9940824915468535,0.24372115213907883,9.269041894122143e-05,0.28,0,0,0.0
4.925998427000195,187,4482.06,-95.6,-0.9,-96.9,0.2,-0.09,0.05,0.0,-0.99,-0.1,-213.7,-0.2,-4.0,0.1100000000000001,1.28,0.01,-0.01,0.0,0.9950376877284598,0.22494443758403987,0.001026928868536614,0.28,0,0,0.0
4.933768093999788,188,4482.07,-95.6,-0.9,-96.9,0.18,-0.04,0.04,0.0,-0.99,-0.1,-213.7,0.2,9.0,0.1100000000000001,1.28,-0.03,0.06,0.0,0.9950376877284598,0.18867962264113206,0.0010063902911658928,0.28,0,0,0.0
4.946121979000054,189,4482.08,-95.6,-0.9,-96.9,0.17,0.0,0.02,0.0,-0.99,-0.1,-213.7,0.0,-4.0,0.1100000000000001,1.28,0.03,0.05,0.0,0.9950376877284598,0.17117242768623692,0.000986262485342615,0.28,0,0,0.0
4.954019730999789,190,4482.09,-95.5,-0.9,-96.9,0.16,0.02,0.0,0.0,-0.99,-0.09,-213.7,-0.2,3.0,0.1100000000000001,1.28,-0.01,0.05,0.0,0.9940824915468535,0.161245154965971,3.0444977661581163e-05,0.28,0,0,0.0
4.965942339000321,191,4482.1,-95.5,-0.9,-96.9,0.14,0.02,0.0,-0.01,-0.99,-0.09,-213.7,0.3,1.0,0.1100000000000001,1.28,0.0,0.14,0.0,0.9941327879111522,0.14142135623730953,7.912651512109736e-05,0.28,0,0,0.0
4.97402476499974,192,4482.11,-95.5,-0.9,-96.9,0.13,0.02,0.0,-0.02,-0.99,-0.09,-213.7,0.0,-2.0,0.1100000000000001,1.28,0.0,0.05,0.0,0.9942836617384396,0.13152946437965907,0.0002254003355602885,0.28,0,0,0.0
4.986090248000437,193,4482.12,-95.5,-0.9,-96.9,0.11,0.02,0.0,-0.02,-0.98,-0.09,-213.7,0.0,0.0,0.1100000000000001,1.28,0.0,-0.01,0.0,0.9843271813782244,0.11180339887498948,0.009536458424161842,0.28,0,0,0.0
4.993904638999993,194,4482.13,-95.5,-0.9,-96.9,0.11,0.01,0.0,-0.01,-0.98,-0.09,-213.7,0.0,0.0,0.1100000000000001,1.28,0.0,-0.02,0.0,0.9841747812253675,0.11045361017187261,0.00949508140547839,0.28,0,0,0.0
5.006043026999578,195,4482.14,-95.5,-0.9,-96.9,0.08,0.01,-0.02,-0.01,-0.98,-0.09,-213.7,0.0,0.0,0.1100000000000001,1.28,0.0,-0.02,0.0,0.9841747812253675,0.08306623862918075,0.009305179777368777,0.28,0,0,0.0
5.014004929999828,196,4482.15,-95.5,-0.9,-96.9,0.06,0.0,-0.04,-0.01,-0.98,-0.08,-213.7,0.0,-2.0,0.1100000000000001,1.28,0.0,-0.03,0.0,0.9833107342035883,0.07211102550927978,0.009965842263164992,0.28,0,0,0.0
5.02612850100013,197,4482.16,-95.5,-0.9,-96.9,0.04,-0.01,-0.05,-0.01,-0.98,-0.08,-213.7,0.0,0.0,0.1100000000000001,1.28,0.01,-0.02,0.0,0.9833107342035883,0.06480740698407861,0.009766525417901684,0.28,0,0,0.0
5.034016208999674,198,4482.17,-95.4,-0.8,-96.9,0.03,-0.02,-0.04,-0.01,-0.98,-0.08,-213.7,-0.2,0.0,0.1100000000000001,1.28,0.01,-0.02,0.0,0.9833107342035883,0.053851648071345036,0.009571194909543612,0.28,0,0,0.0
5.046089651999864,199,4482.18,-95.4,-0.8,-96.9,0.02,-0.03,-0.03,-0.01,-0.98,-0.09,-213.7,0.1,2.0,0.1100000000000001,1.28,0.0,-0.02,0.0,0.9841747812253675,0.04690415759823429,0.00853300493000908,0.28,0,0,0.0
5.053982925000128,200,4482.19,-95.4,-0.8,-96.9,0.0,0.0,0.0,-0.01,-0.98,-0.09,-213.7,0.0,4.0,0.1100000000000001,1.28,-0.02,-0.02,0.0,0.9841747812253675,0.0,0.008362344831408852,0.28,0,0,0.0
5.065972864000287,201,4482.2,-95.4,-0.8,-96.9,-0.05,-0.02,-0.01,-0.01,-0.98,-0.09,-213.7,0.0,0.0,0.1100000000000001,1.28,0.0,-0.03,0.0,0.9841747812253675,0.05477225575051661,0.008195097934780682,0.28,0,0,0.0
5.073990316000163,202,4482.21,-95.4,-0.8,-96.9,-0.06,-0.02,-0.01,0.0,-0.99,-0.09,-213.7,0.0,3.0,0.1100000000000001,1.28,-0.02,-0.03,0.0,0.9940824915468535,0.06403124237432849,0.0016783601389711578,0.28,0,0,0.0
5.086005805000241,203,4482.22,-95.5,-0.8,-96.9,-0.06,-0.01,0.0,0.0,-0.99,-0.09,-213.7,0.1,0.0,0.1100000000000001,1.28,0.0,-0.03,0.0,0.9940824915468535,0.0608276253029822,0.0016447929361916858,0.28,0,0,0.0
5.0939153970002735,204,4482.23,-95.5,-0.8,-96.9,-0.04,-0.01,0.01,0.0,-0.99,-0.09,-213.7,-0.4,-1.0,0.1100000000000001,1.28,0.0,-0.02,0.0,0.9940824915468535,0.042426406871192854,0.0016118970774678942,0.28,0,0,0.0
5.106092777000413,205,4482.24,-95.5,-0.8,-96.9,0.0,0.0,0.0,0.0,-1.0,-0.09,-213.7,0.2,4.0,0.1100000000000001,1.28,-0.02,-0.02,0.0,1.004041831797859,0.0,0.011339812581903974,0.28,0,0,0.0
5.113981972999682,206,4482.25,-95.5,-0.8,-96.9,0.06,0.03,0.02,0.0,-1.0,-0.09,-213.7,0.0,-2.0,0.1100000000000001,1.28,0.01,-0.02,0.0,1.004041831797859,0.06999999999999999,0.011113016330265846,0.28,0,0,0.0
5.126067336999768,207,4482.26,-95.4,-0.8,-96.9,0.07,0.05,0.01,0.0,-0.99,-0.09,-213.7,0.0,-2.0,0.1100000000000001,1.28,0.01,-0.02,0.0,0.9940824915468535,0.08660254037844388,0.0011306025576750534,0.28,0,0,0.0
5.133997552000437,208,4482.27,-95.4,-0.8,-96.9,0.05,0.04,-0.01,-0.01,-0.99,-0.08,-213.7,0.0,2.0,0.1100000000000001,1.28,0.0,0.05,0.0,0.9932774033471213,0.06480740698407861,0.0003190040707841124,0.28,0,0,0.0
5.145985066999856,209,4482.28,-95.4,-0.8,-96.9,0.04,0.01,-0.02,-0.01,-0.99,-0.08,-213.7,0.0,-1.0,0.1100000000000001,1.28,0.0,-0.02,0.0,0.9932774033471213,0.045825756949558406,0.0003126239893683769,0.28,0,0,0.0
5.1538181329997315,210,4482.29,-95.4,-0.8,-96.9,0.0,0.0,0.0,-0.01,-0.99,-0.09,-213.7,-0.2,-1.0,0.1100000000000001,1.28,0.0,-0.02,0.0,0.9941327879111522,0.0,0.0011446483823313036,0.28,0,0,0.0
5.1660915539996495,211,4482.3,-95.4,-0.8,-96.9,0.0,-0.01,-0.05,-0.02,-0.99,-0.09,-213.7,0.3,6.0,0.1100000000000001,1.28,-0.02,-0.1,0.0,0.9942836617384396,0.050990195135927854,0.0012696117654262817,0.28,0,0,0.0
5.173912506999841,212,4482.31,-95.4,-0.8,-96.9,-0.02,-0.02,-0.04,-0.01,-0.99,-0.09,-213.7,-0.1,-8.0,0.1100000000000001,1.28,0.03,-0.02,0.0,0.9941327879111522,0.048989794855663564,0.0010963631793761142,0.28,0,0,0.0
5.186105978999876,213,4482.32,-95.4,-0.8,-96.9,0.0,-0.04,-0.05,-0.01,-0.99,-0.09,-213.7,0.1,3.0,0.1100000000000001,1.28,-0.01,-0.01,0.0,0.9941327879111522,0.06403124237432849,0.0010744359157885963,0.28,0,0,0.0
5.193953228999817,214,4482.33,-95.4,-0.8,-96.9,0.0,-0.05,-0.04,-0.01,-0.99,-0.09,-213.7,0.0,0.0,0.1100000000000001,1.28,0.0,-0.02,0.0,0.9941327879111522,0.06403124237432849,0.0010529471974728422,0.28,0,0,0.0
5.20592737700008,215,4482.34,-95.4,-0.8,-96.9,0.03,-0.07,-0.03,0.0,-0.99,-0.09,-213.7,0.0,0.0,0.1100000000000001,1.28,0.0,-0.02,0.0,0.9940824915468535,0.0818535277187245,0.0009825978165105553,0.28,0,0,0.0
5.215763211000194,216,4482.35,-95.4,-0.8,-96.9,0.06,-0.07,-0.02,-0.01,-0.99,-0.09,-213.7,0.0,-2.0,0.1100000000000001,1.28,0.0,-0.01,0.0,0.9941327879111522,0.09433981132056604,0.0010122362971931587,0.28,0,0,0.0
5.225778361000266,217,4482.36,-95.4,-0.8,-97.0,0.07,-0.07,-0.03,-0.01,-0.98,-0.09,-213.7,0.0,0.0,0.1100000000000001,1.28,0.0,-0.1,0.0,0.9841747812253675,0.10344080432788601,0.00876685498081975,0.28,0,0,0.0
5.2338922420003655,218,4482.37,-95.4,-0.8,-97.0,0.06,-0.07,-0.03,-0.01,-0.99,-0.09,-213.7,0.0,1.0,0.1100000000000001,1.28,0.0,-0.11,0.0,0.9941327879111522,0.09695359714832658,0.0011673286708656638,0.28,0,0,0.0
5.246005252999566,219,4482.38,-95.4,-0.8,-97.0,0.08,-0.06,-0.05,-0.01,-0.99,-0.09,-213.7,-0.2,0.0,0.1100000000000001,1.28,0.0,-0.18,0.0,0.9941327879111522,0.11180339887498948,0.0011439820974483705,0.28,0,0,0.0
5.253999644000032,220,4482.39,-95.4,-0.8,-97.0,0.1,-0.08,-0.04,-0.01,-0.99,-0.09,-213.7,0.3,0.0,0.1100000000000001,1.28,0.0,-0.02,0.0,0.9941327879111522,0.1341640786499874,0.0011211024554994564,0.28,0,0,0.0
5.266102515999592,221,4482.4,-95.4,-0.8,-97.0,0.08,-0.07,0.0,-0.01,-0.99,-0.09,-213.7,0.0,0.0,0.1100000000000001,1.28,0.0,0.06,0.0,0.9941327879111522,0.1063014581273465,0.0010986804063894962,0.28,0,0,0.0
5.273969787000169,222,4482.41,-95.3,-0.8,-97.0,0.11,-0.07,0.02,0.0,-1.0,-0.09,-213.7,0.2,-1.0,0.1100000000000001,1.28,0.0,0.05,0.0,1.004041831797859,0.1319090595827292,0.010787569807234387,0.28,0,0,0.0
5.2860752320002575,223,4482.42,-95.3,-0.8,-97.0,0.13,-0.07,0.03,0.0,-1.01,-0.09,-213.7,-0.4,-4.0,0.1100000000000001,1.28,0.02,-0.02,0.0,1.0140019723846694,0.15066519173319365,0.020332756186163925,0.28,0,0,0.0
5.29400469400025,224,4482.43,-95.3,-0.8,-97.0,0.21,-0.09,0.04,0.0,-1.0,-0.09,-213.7,-0.1,4.0,0.1100000000000001,1.28,-0.01,-0.1,0.0,1.004041831797859,0.23194827009486402,0.010165163287366497,0.28,0,0,0.0
5.306139942999835,225,4482.44,-95.3,-0.8,-97.0,0.26,-0.12,0.05,-0.01,-1.0,-0.08,-213.7,0.1,-1.0,0.1100000000000001,1.28,0.0,-0.02,0.0,1.0032447358446492,0.2906888370749727,0.009180705987473559,0.28,0,0,0.0
5.3139867729996695,226,4482.45,-95.3,-0.8,-97.0,0.27,-0.15,0.06,0.0,-0.99,-0.08,-213.7,-0.2,-2.0,0.1100000000000001,1.28,0.0,0.05,0.0,0.9932270636667125,0.3146426544510455,0.0008202268666538393,0.28,0,0,0.0
5.326093095000033,227,4482.46,-95.2,-0.8,-97.0,0.28,-0.18,0.06,0.0,-0.98,-0.08,-213.7,0.2,3.0,0.1100000000000001,1.28,-0.01,0.15,0.0,0.9832598842625483,0.33823069050575527,0.01057165814540173,0.28,0,0,0.0
5.3339338830001,228,4482.47,-95.2,-0.8,-97.1,0.22,-0.19,0.05,0.0,-0.98,-0.08,-213.7,-0.2,-2.0,0.1100000000000001,1.28,0.01,-0.02,0.0,0.9832598842625483,0.2949576240750525,0.010360224982493671,0.28,0,0,0.0
5.346023639000123,229,4482.48,-95.2,-0.8,-97.1,0.15,-0.19,0.03,0.0,-0.98,-0.09,-213.7,0.4,6.0,0.1100000000000001,1.28,-0.02,0.05,0.0,0.9841239759298621,0.24392621835300934,0.009306210648876267,0.28,0,0,0.0
5.353960702000222,230,4482.49,-95.2,-0.8,-97.1,0.04,-0.18,0.01,0.0,-0.98,-0.09,-213.7,0.1,-4.0,0.1100000000000001,1.28,0.01,-0.01,0.0,0.9841239759298621,0.18466185312619388,0.009120086435898789,0.28,0,0,0.0
5.366091548999975,231,4482.5,-95.2,-0.8,-97.1,0.0,-0.17,0.0,0.0,-0.99,-0.09,-213.7,0.0,0.0,0.1100000000000001,1.28,0.0,0.07,0.0,0.9940824915468535,0.17,0.0008216605974706859,0.28,0,0,0.0
5.373985092999646,232,4482.51,-95.2,-0.8,-97.1,0.0,-0.15,-0.02,0.0,-0.99,-0.09,-213.7,0.2,0.0,0.1100000000000001,1.28,0.0,0.05,0.0,0.9940824915468535,0.15132745950421556,0.0008052273855212455,0.28,0,0,0.0
5.386127781000141,233,4482.52,-95.2,-0.8,-97.2,0.0,-0.1,-0.03,0.0,-0.99,-0.1,-213.7,0.3,1.0,0.1100000000000001,1.28,0.0,-0.03,0.0,0.9950376877284598,0.1044030650891055,0.0017252150957850487,0.28,0,0,0.0
5.393921615999716,234,4482.53,-95.2,-0.8,-97.2,0.0,-0.09,-0.04,0.0,-0.99,-0.09,-213.7,0.3,0.0,0.1100000000000001,1.28,0.0,-0.01,0.0,0.9940824915468535,0.09848857801796104,0.0007546185358950908,0.28,0,0,0.0
5.405983845000264,235,4482.54,-95.2,-0.7,-97.2,0.0,-0.07,-0.06,0.0,-0.99,-0.09,-213.7,-0.3,-3.0,0.1100000000000001,1.28,0.0,0.07,0.0,0.9940824915468535,0.09219544457292887,0.0007395261651771401,0.28,0,0,0.0
5.413954480000029,236,4482.55,-95.2,-0.7,-97.2,-0.01,-0.06,-0.06,0.0,-0.98,-0.09,-213.7,0.3,3.0,0.1100000000000001,1.28,-0.02,0.06,0.0,0.9841239759298621,0.08544003745317531,0.009034609662777915,0.28,0,0,0.0
5.42615018000015,237,4482.56,-95.2,-0.7,-97.2,-0.03,-0.03,-0.06,0.0,-0.98,-0.09,-213.7,0.0,-1.0,0.1100000000000001,1.28,0.0,-0.02,0.0,0.9841239759298621,0.07348469228349534,0.008853917469522354,0.28,0,0,0.0
5.436171731999821,238,4482.57,-95.2,-0.7,-97.2,-0.04,-0.02,-0.06,0.0,-0.99,-0.09,-213.7,-0.1,0.0,0.1100000000000001,1.28,-0.01,-0.01,0.0,0.9940824915468535,0.07483314773547883,0.0010825061845196604,0.28,0,0,0.0
5.446010677999766,239,4482.58,-95.2,-0.7,-97.2,-0.07,-0.02,-0.06,0.0,-0.99,-0.09,-213.7,0.1,-2.0,0.1100000000000001,1.28,0.0,0.04,0.0,0.9940824915468535,0.09433981132056604,0.001060856060829285,0.28,0,0,0.0
5.454003017000105,240,4482.59,-95.2,-0.7,-97.2,-0.11,-0.01,-0.06,-0.01,-1.0,-0.09,-213.7,-0.1,0.0,0.1100000000000001,1.28,0.0,-0.02,0.0,1.0040916292848974,0.12569805089976535,0.010848593922895722,0.28,0,0,0.0
5.4660391589995925,241,4482.6,-95.2,-0.7,-97.2,-0.07,-0.02,-0.06,-0.01,-1.01,-0.09,-213.7,0.1,-2.0,0.1100000000000001,1.28,0.0,-0.04,0.0,1.014051280754578,0.09433981132056604,0.02039208048472485,0.28,0,0,0.0
5.4740184829997816,242,4482.61,-95.2,-0.7,-97.2,0.03,-0.04,-0.06,-0.01,-1.01,-0.09,-213.7,0.0,0.0,0.1100000000000001,1.28,0.0,0.03,0.0,1.014051280754578,0.07810249675906654,0.019984238875030313,0.28,0,0,0.0
5.486235469999883,243,4482.62,-95.2,-0.7,-97.2,0.13,-0.05,-0.07,-0.01,-1.0,-0.09,-213.7,0.1,-1.0,0.1100000000000001,1.28,0.0,-0.02,0.0,1.0040916292848974,0.15588457268119896,0.009824095657242626,0.28,0,0,0.0
5.494011118000344,244,4482.63,-95.2,-0.7,-97.2,0.15,-0.07,-0.07,0.0,-0.99,-0.08,-213.7,0.0,0.0,0.1100000000000001,1.28,0.0,0.04,0.0,0.9932270636667125,0.17972200755611428,0.0010196605617233123,0.28,0,0,0.0
5.506125511000391,245,4482.64,-95.2,-0.7,-97.2,0.1,-0.07,-0.07,-0.01,-0.98,-0.08,-213.7,0.0,0.0,0.1100000000000001,1.28,0.0,0.06,0.0,0.9833107342035883,0.1407124727947029,0.01071727022435065,0.28,0,0,0.0
5.514005748999807,246,4482.65,-95.2,-0.6,-97.2,0.05,-0.07,-0.06,-0.01,-0.98,-0.08,-213.7,0.2,-1.0,0.1100000000000001,1.28,0.0,0.07,0.0,0.9833107342035883,0.10488088481701516,0.01050292481986359,0.28,0,0,0.0
5.526142204999815,247,4482.66,-95.2,-0.6,-97.2,0.02,-0.05,-0.06,-0.01,-0.98,-0.08,-213.7,0.0,0.0,0.1100000000000001,1.28,0.0,0.05,0.0,0.9833107342035883,0.0806225774829855,0.010292866323466265,0.28,0,0,0.0
5.533929113999875,248,4482.67,-95.2,-0.6,-97.2,-0.01,-0.06,-0.04,-0.01,-0.98,-0.08,-213.7,-0.1,-2.0,0.1100000000000001,1.28,0.0,0.06,0.0,0.9833107342035883,0.07280109889280519,0.010087008996996993,0.28,0,0,0.0
5.546124059999784,249,4482.68,-95.2,-0.6,-97.2,-0.05,-0.07,-0.04,-0.01,-0.98,-0.08,-213.7,0.4,6.0,0.1100000000000001,1.28,-0.02,0.12,0.0,0.9833107342035883,0.09486832980505139,0.009885268817057091,0.28,0,0,0.0
5.5540167339995605,250,4482.69,-95.2,-0.6,-97.3,-0.07,-0.07,-0.04,-0.01,-0.99,-0.09,-213.7,-0.1,-5.0,0.1100000000000001,1.28,0.01,-0.03,0.0,0.9941327879111522,0.10677078252031312,0.0009180491926966683,0.28,0,0,0.0
5.56599660000029,251,4482.7,-95.2,-0.6,-97.3,-0.07,-0.06,-0.04,0.0,-0.99,-0.09,-213.7,0.0,1.0,0.1100000000000001,1.28,0.0,-0.03,0.0,0.9940824915468535,0.1004987562112089,0.000850397771829936,0.28,0,0,0.0
5.573997405999762,252,4482.71,-95.2,-0.6,-97.3,-0.07,-0.04,-0.06,0.0,-0.99,-0.09,-213.7,0.0,1.0,0.1100000000000001,1.28,0.0,-0.1,0.0,0.9940824915468535,0.1004987562112089,0.0008333898163933595,0.28,0,0,0.0
5.586258878999615,253,4482.72,-95.2,-0.6,-97.3,-0.05,-0.03,-0.06,0.0,-0.99,-0.09,-213.7,0.0,-4.0,0.1100000000000001,1.28,0.01,0.06,0.0,0.9940824915468535,0.08366600265340755,0.0008167220200654413,0.28,0,0,0.0
5.593980159999774,254,4482.73,-95.2,-0.6,-97.3,-0.03,-0.02,-0.07,0.0,-0.99,-0.09,-213.7,0.3,2.0,0.1100000000000001,1.28,0.0,0.15,0.0,0.9940824915468535,0.07874007874011811,0.0008003875796641635,0.28,0,0,0.0
5.606138395000016,255,4482.74,-95.2,-0.6,-97.3,0.0,-0.02,-0.07,0.0,-0.99,-0.09,-213.7,0.0,0.0,0.1100000000000001,1.28,0.0,0.07,0.0,0.9940824915468535,0.07280109889280519,0.0007843798280708913,0.28,0,0,0.0
5.613873956000134,256,4482.75,-95.2,-0.6,-97.3,0.02,0.0,-0.06,-0.01,-0.99,-0.08,-213.7,0.2,2.0,0.1100000000000001,1.28,-0.01,-0.03,0.0,0.9932774033471213,0.06324555320336758,2.0294204227999657e-05,0.28,0,0,0.0
5.626253360000192,257,4482.76,-95.2,-0.6,-97.3,0.03,0.01,-0.05,0.0,-0.99,-0.09,-213.7,-0.3,0.0,0.1100000000000001,1.28,0.0,-0.09,0.0,0.9940824915468535,0.05916079783099616,0.0007690981155940024,0.28,0,0,0.0
5.633995660000437,258,4482.77,-95.2,-0.6,-97.3,0.03,0.03,-0.05,-0.01,-0.99,-0.09,-213.7,0.5,2.0,0.1100000000000001,1.28,0.0,-0.03,0.0,0.9941327879111522,0.06557438524302,0.0008030065902948635,0.28,0,0,0.0
5.646176973000365,259,4482.78,-95.2,-0.6,-97.3,0.02,0.03,-0.05,-0.01,-0.99,-0.09,-213.7,-0.3,-1.0,0.1100000000000001,1.28,0.0,-0.03,0.0,0.9941327879111522,0.061644140029689765,0.0007869464584889796,0.28,0,0,0.0
5.653992388000006,260,4482.79,-95.2,-0.6,-97.3,0.01,0.03,-0.05,-0.01,-0.99,-0.09,-213.7,0.2,0.0,0.1100000000000001,1.28,0.0,-0.18,0.0,0.9941327879111522,0.05916079783099616,0.0007712075293192511,0.28,0,0,0.0
5.6662528260003455,261,4482.8,-95.2,-0.6,-97.3,0.0,0.03,-0.05,-0.01,-0.99,-0.08,-213.7,-0.2,1.0,0.1100000000000001,1.28,0.0,-0.02,0.0,0.9932774033471213,0.05830951894845301,8.249349401745487e-05,0.28,0,0,0.0
5.6739696590002495,262,4482.81,-95.2,-0.6,-97.3,-0.01,0.0,-0.04,-0.01,-0.99,-0.09,-213.7,0.1,-2.0,0.1100000000000001,1.28,0.01,0.05,0.0,0.9941327879111522,0.04123105625617661,0.0007574332486132151,0.28,0,0,0.0
5.686158368999713,263,4482.82,-95.2,-0.6,-97.3,0.03,-0.01,-0.02,-0.01,-0.99,-0.09,-213.7,-0.2,0.0,0.1100000000000001,1.28,0.0,0.04,0.0,0.9941327879111522,0.03741657386773942,0.0007422845836410064,0.28,0,0,0.0
5.694028183000228,264,4482.83,-95.2,-0.6,-97.3,0.1,-0.02,-0.01,-0.01,-0.99,-0.09,-213.7,0.2,3.0,0.1100000000000001,1.28,0.0,-0.12,0.0,0.9941327879111522,0.10246950765959599,0.0007274388919681352,0.28,0,0,0.0
5.706131578000168,265,4482.84,-95.2,-0.6,-97.3,0.1,-0.03,-0.01,-0.01,-0.99,-0.09,-213.7,0.0,0.0,0.1100000000000001,1.28,0.0,-0.03,0.0,0.9941327879111522,0.10488088481701516,0.0007128901141287836,0.28,0,0,0.0
5.7161745280000105,266,4482.85,-95.2,-0.6,-97.3,0.06,-0.04,-0.02,-0.01,-0.99,-0.09,-213.7,0.3,2.0,0.1100000000000001,1.28,-0.01,-0.01,0.0,0.9941327879111522,0.07483314773547883,0.0006986323118461923,0.28,0,0,0.0
5.726162203000058,267,4482.86,-95.2,-0.6,-97.3,0.01,-0.04,-0.03,-0.01,-0.99,-0.09,-213.7,0.0,-1.0,0.1100000000000001,1.28,0.0,-0.02,0.0,0.9941327879111522,0.05099019513592785,0.0006846596656092663,0.28,0,0,0.0
5.734003735000442,268,4482.87,-95.2,-0.6,-97.3,0.01,-0.05,-0.03,-0.01,-0.99,-0.09,-213.7,0.6,0.0,0.1100000000000001,1.28,0.0,-0.01,0.0,0.9941327879111522,0.05916079783099616,0.0006709664722970299,0.28,0,0,0.0
5.746162808000008,269,4482.88,-95.2,-0.6,-97.3,0.04,-0.07,-0.02,-0.01,-1.0,-0.1,-213.7,-0.1,0.0,0.1100000000000001,1.28,0.0,0.07,0.0,1.0050373127401788,0.08306623862918075,0.011343981475297138,0.28,0,0,0.0
5.754010448000372,270,4482.89,-95.2,-0.6,-97.3,0.08,-0.06,0.0,-0.01,-0.99,-0.1,-213.7,0.3,1.0,0.1100000000000001,1.28,0.0,0.04,0.0,0.9950879358127099,0.1,0.0013667124568716993,0.28,0,0,0.0
5.766168559999642,271,4482.9,-95.2,-0.6,-97.3,0.08,-0.06,0.01,-0.01,-0.99,-0.1,-213.7,0.1,-1.0,0.1100000000000001,1.28,0.0,-0.04,0.0,0.9950879358127099,0.1004987562112089,0.001339378207734221,0.28,0,0,0.0
5.774011915999836,272,4482.91,-95.2,-0.6,-97.3,0.08,-0.05,0.03,0.0,-0.99,-0.1,-213.7,0.0,0.0,0.1100000000000001,1.28,0.0,0.06,0.0,0.9950376877284598,0.09899494936611666,0.001263347521014424,0.28,0,0,0.0
5.786239132999981,273,4482.92,-95.2,-0.6,-97.3,0.08,-0.05,0.03,-0.01,-0.99,-0.1,-213.7,0.4,-1.0,0.1100000000000001,1.28,0.0,-0.02,0.0,0.9950879358127099,0.09899494936611666,0.0012873236931593146,0.28,0,0,0.0
5.794013359000019,274,4482.93,-95.2,-0.6,-97.3,0.13,-0.04,0.04,-0.01,-0.99,-0.1,-213.7,0.0,-1.0,0.1100000000000001,1.28,0.0,0.07,0.0,0.9950879358127099,0.14177446878757827,0.001261577219296095,0.28,0,0,0.0
5.806061150999994,275,4482.94,-95.2,-0.6,-97.3,0.19,-0.02,0.07,-0.01,-0.98,-0.1,-213.7,0.1,2.0,0.1100000000000001,1.28,-0.01,0.0,0.0,0.9851395840184273,0.20346989949375804,0.008513039083486884,0.28,0,0,0.0
5.814014259999567,276,4482.95,-95.1,-0.6,-97.3,0.23,0.0,0.11,-0.01,-0.98,-0.1,-213.7,0.3,3.0,0.1100000000000001,1.28,-0.01,-0.04,0.0,0.9851395840184273,0.25495097567963926,0.008342778301817177,0.28,0,0,0.0
5.826158769000358,277,4482.96,-95.1,-0.6,-97.3,0.23,0.0,0.13,-0.01,-0.97,-0.09,-213.7,0.5,-1.0,0.1100000000000001,1.28,0.0,0.09,0.0,0.9742176348229383,0.2641968962724581,0.018879432947360053,0.28,0,0,0.0
5.833996170999853,278,4482.97,-95.1,-0.6,-97.3,0.21,0.02,0.14,-0.01,-0.98,-0.09,-213.7,0.3,1.0,0.1100000000000001,1.28,-0.01,-0.05,0.0,0.9841747812253675,0.2531797780234432,0.008743840814032233,0.28,0,0,0.0
5.8463127779996285,279,4482.98,-95.1,-0.7,-97.3,0.17,0.02,0.14,-0.01,-0.97,-0.1,-213.7,1.0,2.0,0.1100000000000001,1.28,-0.03,-0.02,0.0,0.9751922887307918,0.22113344387495984,0.01737180664243576,0.28,0,0,0.0
5.853989094000099,280,4482.99,-95.1,-0.7,-97.3,0.12,0.06,0.16,-0.01,-0.98,-0.09,-213.7,0.7,-4.0,0.1100000000000001,1.28,0.0,-0.04,0.0,0.9841747812253675,0.208806130178211,0.008221527864902822,0.28,0,0,0.0
5.866197262999776,281,4483.0,-95.1,-0.7,-97.3,0.07,0.09,0.15,0.0,-0.99,-0.09,-213.7,0.2,-3.0,0.1100000000000001,1.28,0.0,0.03,0.0,0.9940824915468535,0.18841443681416772,0.0016524588074514623,0.28,0,0,0.0
5.874014283000179,282,4483.01,-95.1,-0.7,-97.3,0.01,0.12,0.14,0.0,-0.99,-0.09,-213.7,0.0,-2.0,0.1100000000000001,1.28,0.0,0.0,0.0,0.9940824915468535,0.1846618531261939,0.0016194096313024708,0.28,0,0,0.0
5.886314841000058,283,4483.02,-95.1,-0.7,-97.3,-0.01,0.12,0.11,-0.01,-1.0,-0.08,-213.7,0.3,0.0,0.1100000000000001,1.28,0.0,-0.02,0.0,1.0032447358446492,0.16309506430300091,0.010566020850516278,0.28,0,0,0.0
5.894030835000194,284,4483.03,-95.1,-0.7,-97.3,-0.02,0.13,0.09,-0.01,-1.0,-0.08,-213.7,0.1,0.0,0.1100000000000001,1.28,0.0,0.04,0.0,1.0032447358446492,0.15937377450509227,0.010354700433505948,0.28,0,0,0.0
5.906198089999634,285,4483.04,-95.1,-0.7,-97.2,0.01,0.13,0.06,-0.01,-1.0,-0.08,-213.7,0.0,-3.0,0.1100000000000001,1.28,0.0,0.1,0.0,1.0032447358446492,0.14352700094407325,0.010147606424835809,0.28,0,0,0.0
5.916313458000332,286,4483.05,-95.1,-0.7,-97.2,0.06,0.11,0.05,-0.02,-0.99,-0.08,-213.7,0.2,1.0,0.1100000000000001,1.28,0.0,-0.04,0.0,0.9934284070832683,0.13490737563232041,0.00032465211018573026,0.28,0,0,0.0
5.92590097700031,287,4483.06,-95.1,-0.7,-97.2,0.08,0.08,0.05,-0.02,-0.99,-0.07,-213.7,0.0,3.0,0.1100000000000001,1.28,-0.02,0.13,0.0,0.9926731586982696,0.12369316876852982,0.00042198434931672857,0.28,0,0,0.0
5.9363020729997515,288,4483.07,-95.0,-0.8,-97.2,0.08,0.03,0.05,-0.02,-0.98,-0.07,-213.6,0.5,-2.0,0.1100000000000001,1.28,0.0,-0.02,0.0,0.982700361249552,0.09899494936611665,0.010186886162073638,0.28,0,0,0.0
5.946020974999556,289,4483.08,-95.0,-0.8,-97.2,0.06,-0.01,0.06,-0.02,-0.98,-0.07,-213.6,0.0,-1.0,0.1100000000000001,1.28,0.0,-0.11,0.0,0.982700361249552,0.08544003745317531,0.00998314843883219,0.28,0,0,0.0
5.953959546000078,290,4483.09,-95.0,-0.8,-97.2,0.04,-0.08,0.05,-0.02,-0.98,-0.07,-213.6,0.2,1.0,0.1100000000000001,1.28,0.0,0.09,0.0,0.982700361249552,0.10246950765959599,0.009783485470055586,0.28,0,0,0.0
5.966194288999759,291,4483.1,-95.0,-0.8,-97.2,0.04,-0.15,0.05,-0.03,-0.99,-0.07,-213.6,0.3,0.0,0.1100000000000001,1.28,-0.01,0.04,0.0,0.9929249719893241,0.16309506430300091,0.00043230276432215664,0.28,0,0,0.0
5.974017301999993,292,4483.11,-95.0,-0.8,-97.3,0.05,-0.21,0.05,-0.03,-0.99,-0.07,-213.6,0.3,-3.0,0.1100000000000001,1.28,0.0,-0.06,0.0,0.9929249719893241,0.22158519806160337,0.000423656709035658,0.28,0,0,0.0
5.986196085999836,293,4483.12,-95.0,-0.8,-97.3,0.05,-0.27,0.06,-0.03,-0.98,-0.07,-213.6,0.0,-2.0,0.1100000000000001,1.28,0.0,-0.02,0.0,0.9829547293746543,0.28106938645110396,0.009355654187521378,0.28,0,0,0.0
5.994003198000428,294,4483.13,-95.0,-0.9,-97.3,0.03,-0.33,0.07,-0.03,-0.98,-0.07,-213.6,0.2,2.0,0.1100000000000001,1.28,-0.01,-0.04,0.0,0.9829547293746543,0.338673884437522,0.009168541103770966,0.28,0,0,0.0
6.006177608000144,295,4483.14,-95.0,-0.9,-97.3,-0.01,-0.4,0.08,-0.02,-0.98,-0.08,-213.6,0.7,0.0,0.1100000000000001,1.28,0.0,0.13,0.0,0.9834632682515396,0.4080441152620633,0.008486802182347986,0.28,0,0,0.0
6.016233043000284,296,4483.15,-95.0,-0.9,-97.4,-0.04,-0.42,0.07,-0.02,-0.98,-0.08,-213.6,0.7,2.0,0.1100000000000001,1.28,-0.02,-0.01,0.0,0.9834632682515396,0.42766809560686186,0.00831706613870098,0.28,0,0,0.0
6.026310070999898,297,4483.16,-95.0,-0.9,-97.4,-0.07,-0.44,0.07,-0.02,-0.99,-0.08,-213.6,1.1,3.0,0.1100000000000001,1.28,-0.03,0.13,0.0,0.9934284070832683,0.4509988913511872,0.001615111239167133,0.28,0,0,0.0
6.0339933579998615,298,4483.17,-95.0,-0.9,-97.5,-0.08,-0.45,0.07,-0.01,-0.99,-0.08,-213.6,1.1,3.0,0.1100000000000001,1.28,-0.04,0.07,0.0,0.9932774033471213,0.46238512086787564,0.001434825352959801,0.28,0,0,0.0
6.046183391000341,299,4483.18,-95.0,-0.9,-97.5,-0.1,-0.45,0.07,-0.01,-0.99,-0.09,-213.6,1.2,-2.0,0.1100000000000001,1.28,-0.02,0.14,0.0,0.9941327879111522,0.4662617290749907,0.0022444057186509214,0.28,0,0,0.0
6.056062044999635,300,4483.19,-95.0,-0.9,-97.6,-0.12,-0.44,0.08,-0.01,-0.99,-0.08,-213.6,0.6,-5.0,0.1100000000000001,1.28,0.0,-0.01,0.0,0.9932774033471213,0.463033476111609,0.0013612407315276576,0.28,0,0,0.0
6.0662316369998734,301,4483.2,-95.0,-1.0,-97.6,-0.12,-0.44,0.09,-0.01,-0.99,-0.08,-213.6,0.3,0.0,0.1100000000000001,1.28,-0.02,-0.09,0.0,0.9932774033471213,0.46486557196677836,0.00133401591689708,0.28,0,0,0.0
6.073992626999825,302,4483.21,-95.0,-1.0,-97.6,-0.12,-0.43,0.07,-0.01,-0.99,-0.08,-213.6,0.5,1.0,0.1100000000000001,1.28,-0.02,0.03,0.0,0.9932774033471213,0.4518849411078001,0.0013073355985591117,0.28,0,0,0.0
6.086326478000046,303,4483.22,-95.0,-1.0,-97.7,-0.11,-0.44,0.07,-0.01,-0.99,-0.08,-213.6,0.5,0.0,0.1100000000000001,1.28,-0.01,-0.14,0.0,0.9932774033471213,0.4589117562233506,0.0012811888865879029,0.28,0,0,0.0
6.096373802000016,304,4483.23,-95.0,-1.0,-97.7,-0.1,-0.45,0.06,-0.01,-0.99,-0.09,-213.6,0.2,0.0,0.1100000000000001,1.28,-0.01,-0.06,0.0,0.9941327879111522,0.4648655719667784,0.002093841981606448,0.28,0,0,0.0
6.105949052000142,305,4483.24,-95.1,-1.0,-97.8,-0.09,-0.45,0.06,-0.01,-0.99,-0.09,-213.6,0.3,-3.0,0.1100000000000001,1.28,0.0,0.0,0.0,0.9941327879111522,0.4628174586162454,0.0020519651419743656,0.28,0,0,0.0
6.114002536000044,306,4483.25,-95.1,-1.0,-97.8,-0.1,-0.44,0.06,-0.01,-0.99,-0.09,-213.6,-0.2,1.0,0.1100000000000001,1.28,-0.01,0.24,0.0,0.9941327879111522,0.45519226706964167,0.0020109258391348694,0.28,0,0,0.0
6.126652914999795,307,4483.26,-95.1,-1.0,-97.9,-0.07,-0.43,0.07,-0.01,-0.99,-0.09,-213.6,0.0,-2.0,0.1100000000000001,1.28,0.0,0.12,0.0,0.9941327879111522,0.44124822945820413,0.001970707322352161,0.28,0,0,0.0
6.136367367000275,308,4483.27,-95.1,-1.0,-97.9,-0.07,-0.41,0.08,-0.01,-0.99,-0.09,-213.6,0.4,3.0,0.1100000000000001,1.28,0.0,0.16,0.0,0.9941327879111522,0.42355637169094734,0.0019312931759051244,0.28,0,0,0.0
6.14594986100019,309,4483.28,-95.1,-1.0,-97.9,-0.04,-0.4,0.09,0.0,-0.99,-0.09,-213.6,0.0,0.0,0.1100000000000001,1.28,0.0,-0.01,0.0,0.9940824915468535,0.41194659848091963,0.0018433768753742807,0.28,0,0,0.0
6.156049721000272,310,4483.29,-95.1,-1.0,-98.0,-0.02,-0.38,0.08,-0.01,-0.99,-0.09,-213.6,0.0,0.0,0.1100000000000001,1.28,0.0,-0.15,0.0,0.9941327879111522,0.3888444419044716,0.0018557997748795962,0.28,0,0,0.0
6.166412456999751,311,4483.3,-95.1,-1.0,-98.0,-0.03,-0.35,0.08,-0.01,-0.99,-0.09,-213.6,0.0,0.0,0.1100000000000001,1.28,0.0,-0.15,0.0,0.9941327879111522,0.3602776706930364,0.001818683779381991,0.28,0,0,0.0
6.176238344999547,312,4483.31,-95.1,-1.1,-98.1,-0.03,-0.33,0.06,-0.01,-0.99,-0.09,-213.6,0.0,-2.0,0.1100000000000001,1.28,0.01,-0.14,0.0,0.9941327879111522,0.3367491648096547,0.0017823101037943712,0.28,0,0,0.0
6.186176287999842,313,4483.32,-95.1,-1.1,-98.1,-0.06,-0.31,0.05,-0.01,-0.99,-0.09,-213.6,0.1,-2.0,0.1100000000000001,1.28,0.0,0.02,0.0,0.9941327879111522,0.31968734726291564,0.0017466639017185148,0.28,0,0,0.0
6.194032567000249,314,4483.33,-95.1,-1.1,-98.1,-0.08,-0.29,0.05,-0.01,-0.99,-0.08,-213.6,0.2,1.0,0.1100000000000001,1.28,0.0,0.07,0.0,0.9932774033471213,0.30495901363953815,0.0008734537509338391,0.28,0,0,0.0
6.2062735540002905,315,4483.34,-95.1,-1.1,-98.1,-0.08,-0.3,0.05,-0.01,-0.99,-0.08,-213.5,0.0,0.0,0.1100000000000001,1.28,0.0,-0.19,0.0,0.9932774033471213,0.31448370387032776,0.000855984675915189,0.28,0,0,0.0
6.2163389280003685,316,4483.35,-95.1,-1.1,-98.2,-0.05,-0.31,0.05,-0.01,-0.99,-0.08,-213.5,0.0,1.0,0.1100000000000001,1.28,-0.01,0.07,0.0,0.9932774033471213,0.3179622619116929,0.0008388649823969363,0.28,0,0,0.0
6.226362794000124,317,4483.36,-95.1,-1.1,-98.2,-0.01,-0.32,0.06,-0.01,-0.99,-0.08,-213.5,0.3,1.0,0.1100000000000001,1.28,0.0,0.07,0.0,0.9932774033471213,0.3257299494980466,0.0008220876827490509,0.28,0,0,0.0
6.23624341499999,318,4483.37,-95.1,-1.1,-98.2,0.0,-0.32,0.07,-0.01,-0.99,-0.08,-213.5,-0.1,0.0,0.1100000000000001,1.28,0.0,0.07,0.0,0.9932774033471213,0.327566787083184,0.0008056459290940454,0.28,0,0,0.0
6.246017290999589,319,4483.38,-95.1,-1.1,-98.3,0.02,-0.33,0.08,-0.01,-0.99,-0.08,-213.5,0.2,1.0,0.1100000000000001,1.28,0.0,0.12,0.0,0.9932774033471213,0.340147027033899,0.0007895330105122111,0.28,0,0,0.0
6.256362674999764,320,4483.39,-95.1,-1.1,-98.3,0.02,-0.34,0.09,-0.01,-0.99,-0.08,-213.5,0.0,-2.0,0.1100000000000001,1.28,0.0,0.16,0.0,0.9932774033471213,0.35227829907617075,0.0007737423503019203,0.28,0,0,0.0
6.265987105999557,321,4483.4,-95.1,-1.1,-98.3,0.03,-0.36,0.09,-0.02,-0.99,-0.08,-213.5,0.3,4.0,0.1100000000000001,1.28,-0.03,0.26,0.0,0.9934284070832683,0.3722902093797257,0.0009062511647198734,0.28,0,0,0.0
6.274000282000088,322,4483.41,-95.1,-1.1,-98.4,0.03,-0.37,0.1,-0.02,-0.99,-0.08,-213.5,0.7,0.0,0.1100000000000001,1.28,-0.01,-0.1,0.0,0.9934284070832683,0.38444765573482176,0.000888126141425527,0.28,0,0,0.0
6.286436178999793,323,4483.42,-95.1,-1.2,-98.4,0.02,-0.38,0.09,-0.02,-0.99,-0.08,-213.5,0.5,2.0,0.1100000000000001,1.28,-0.02,0.03,0.0,0.9934284070832683,0.39102429592034305,0.0008703636185970476,0.28,0,0,0.0
6.293982041999698,324,4483.43,-95.1,-1.2,-98.5,0.02,-0.38,0.09,-0.02,-0.98,-0.08,-213.5,0.0,-3.0,0.1100000000000001,1.28,0.0,0.17,0.0,0.9834632682515396,0.39102429592034305,0.008912879708869004,0.28,0,0,0.0
6.306305844000235,325,4483.44,-95.1,-1.2,-98.5,0.01,-0.38,0.09,-0.01,-0.99,-0.08,-213.5,0.1,4.0,0.1100000000000001,1.28,-0.02,0.03,0.0,0.9932774033471213,0.3906404996924922,0.0008832302789784086,0.28,0,0,0.0
6.316333916999611,326,4483.45,-95.1,-1.2,-98.5,0.02,-0.37,0.08,-0.01,-0.99,-0.08,-213.5,0.4,0.0,0.1100000000000001,1.28,0.0,-0.01,0.0,0.9932774033471213,0.3790778284204973,0.0008655656733987938,0.28,0,0,0.0
6.326274832999843,327,4483.46,-95.1,-1.2,-98.6,0.01,-0.37,0.09,-0.01,-0.99,-0.08,-213.5,0.4,2.0,0.1100000000000001,1.28,-0.02,0.07,0.0,0.9932774033471213,0.38091993909481814,0.0008482543599308556,0.28,0,0,0.0
6.336314967999897,328,4483.47,-95.1,-1.2,-98.6,0.0,-0.35,0.12,-0.01,-0.99,-0.08,-213.5,0.6,-3.0,0.1100000000000001,1.28,0.0,0.0,0.0,0.9932774033471213,0.37,0.0008312892727322385,0.28,0,0,0.0
6.345990370999971,329,4483.48,-95.1,-1.2,-98.6,0.0,-0.34,0.12,-0.01,-0.99,-0.08,-213.5,0.3,-4.0,0.1100000000000001,1.28,0.0,-0.12,0.0,0.9932774033471213,0.36055512754639896,0.0008146634872775449,0.28,0,0,0.0
6.356301879000057,330,4483.49,-95.1,-1.2,-98.7,-0.01,-0.32,0.12,-0.01,-0.99,-0.08,-213.5,0.1,3.0,0.1100000000000001,1.28,-0.02,0.0,0.0,0.9932774033471213,0.3419064199455752,0.0007983702175320406,0.28,0,0,0.0
6.366370601000199,331,4483.5,-95.1,-1.2,-98.7,-0.04,-0.3,0.11,-0.01,-0.99,-0.09,-213.5,0.2,-1.0,0.1100000000000001,1.28,0.0,-0.16,0.0,0.9941327879111522,0.3220248437620924,0.001620679685931714,0.28,0,0,0.0
6.376397934999659,332,4483.51,-95.1,-1.2,-98.7,-0.09,-0.28,0.08,-0.01,-0.99,-0.09,-213.5,0.0,-5.0,0.1100000000000001,1.28,0.02,-0.06,0.0,0.9941327879111522,0.3047950130825634,0.0015882660922130754,0.28,0,0,0.0
6.385980971999743,333,4483.52,-95.1,-1.3,-98.8,-0.12,-0.28,0.06,-0.01,-0.99,-0.09,-213.5,0.3,9.0,0.1100000000000001,1.28,-0.03,-0.21,0.0,0.9941327879111522,0.31048349392520047,0.0015565007703688405,0.28,0,0,0.0
6.3940135450002344,334,4483.53,-95.1,-1.3,-98.8,-0.12,-0.27,0.03,-0.01,-0.99,-0.09,-213.5,0.5,-2.0,0.1100000000000001,1.28,0.0,-0.1,0.0,0.9941327879111522,0.29698484809834996,0.001525370754961508,0.28,0,0,0.0
6.406377053999677,335,4483.54,-95.1,-1.3,-98.8,-0.09,-0.24,0.0,-0.01,-0.99,-0.09,-213.5,-0.2,-2.0,0.1100000000000001,1.28,0.0,0.07,0.0,0.9941327879111522,0.2563201123595259,0.0014948633398622624,0.28,0,0,0.0
6.416277977000391,336,4483.55,-95.1,-1.2,-98.8,-0.06,-0.19,-0.02,-0.01,-1.0,-0.09,-213.5,0.3,-1.0,0.1100000000000001,1.28,0.0,-0.01,0.0,1.0040916292848974,0.20024984394500786,0.011224630619335207,0.28,0,0,0.0
6.426258600000438,337,4483.56,-95.1,-1.2,-98.8,-0.08,-0.12,-0.05,0.0,-1.0,-0.09,-213.5,-0.3,1.0,0.1100000000000001,1.28,0.0,-0.12,0.0,1.004041831797859,0.15264337522473748,0.010951336469650852,0.28,0,0,0.0
6.434036820999609,338,4483.57,-95.1,-1.2,-98.9,-0.1,-0.07,-0.07,0.0,-1.0,-0.09,-213.5,0.2,3.0,0.1100000000000001,1.28,0.0,-0.07,0.0,1.004041831797859,0.1407124727947029,0.01073230974025785,0.28,0,0,0.0
6.446361768000315,339,4483.58,-95.2,-1.2,-98.9,-0.09,-0.04,-0.11,0.0,-1.0,-0.09,-213.5,0.0,0.0,0.1100000000000001,1.28,0.0,-0.07,0.0,1.004041831797859,0.147648230602334,0.010517663545452693,0.28,0,0,0.0
6.456295594999574,340,4483.59,-95.2,-1.2,-98.9,-0.04,-0.02,-0.14,0.0,-1.0,-0.09,-213.5,0.0,0.0,0.1100000000000001,1.28,0.0,0.01,0.0,1.004041831797859,0.14696938456699069,0.01030731027454368,0.28,0,0,0.0
6.466416999000103,341,4483.6,-95.2,-1.2,-98.9,0.04,0.0,-0.14,-0.01,-1.0,-0.09,-213.5,-0.2,2.0,0.1100000000000001,1.28,0.0,-0.07,0.0,1.0040916292848974,0.14560219778561037,0.010149965606350397,0.28,0,0,0.0
6.474026502000015,342,4483.61,-95.2,-1.1,-98.9,0.1,0.0,-0.13,-0.02,-0.99,-0.08,-213.5,0.1,-5.0,0.1100000000000001,1.28,0.03,-0.01,0.0,0.9934284070832683,0.16401219466856726,0.0005029914633730703,0.28,0,0,0.0
6.486409318999904,343,4483.62,-95.1,-1.1,-98.9,0.11,-0.02,-0.13,-0.02,-0.99,-0.08,-213.5,-0.1,2.0,0.1100000000000001,1.28,0.0,0.07,0.0,0.9934284070832683,0.17146428199482247,0.0004929316341055756,0.28,0,0,0.0
6.496377851000034,344,4483.63,-95.1,-1.1,-98.9,0.1,-0.05,-0.13,-0.02,-0.99,-0.08,-213.5,0.0,-5.0,0.1100000000000001,1.28,0.01,-0.01,0.0,0.9934284070832683,0.17146428199482247,0.000483073001423473,0.28,0,0,0.0
6.506046049999895,345,4483.64,-95.1,-1.1,-98.9,0.07,-0.09,-0.15,-0.03,-0.99,-0.08,-213.5,0.0,1.0,0.1100000000000001,1.28,0.0,-0.07,0.0,0.9936800289831732,0.18841443681416772,0.0002268220794882092,0.28,0,0,0.0
6.516555741000047,346,4483.65,-95.1,-1.1,-98.9,0.05,-0.12,-0.16,-0.03,-0.99,-0.08,-213.5,0.0,-1.0,0.1100000000000001,1.28,0.0,0.11,0.0,0.9936800289831732,0.206155281280883,0.00022228563789850053,0.28,0,0,0.0
6.525867147999634,347,4483.66,-95.1,-1.1,-98.9,0.05,-0.18,-0.17,-0.03,-0.99,-0.08,-213.5,0.4,0.0,0.1100000000000001,1.28,0.0,0.03,0.0,0.9936800289831732,0.2525866188063018,0.0002178399251405727,0.28,0,0,0.0
6.536401020000085,348,4483.67,-95.1,-1.1,-98.9,0.01,-0.24,-0.19,-0.02,-0.99,-0.08,-213.5,-0.4,-2.0,0.1100000000000001,1.28,0.0,-0.07,0.0,0.9934284070832683,0.3062678566222711,0.0004600725885445245,0.28,0,0,0.0
6.546036622000429,349,4483.68,-95.1,-1.1,-99.0,0.01,-0.31,-0.21,-0.02,-0.99,-0.08,-213.5,0.4,0.0,0.1100000000000001,1.28,0.0,0.07,0.0,0.9934284070832683,0.3745664160065609,0.0004508711367736673,0.28,0,0,0.0
6.554047298999649,350,4483.69,-95.1,-1.1,-99.0,0.04,-0.35,-0.21,-0.02,-0.99,-0.08,-213.5,-0.7,0.0,0.1100000000000001,1.28,0.0,-0.07,0.0,0.9934284070832683,0.41012193308819755,0.000441853714038154,0.28,0,0,0.0
6.566428307000024,351,4483.7,-95.1,-1.0,-99.0,0.09,-0.38,-0.21,-0.02,-0.99,-0.09,-213.5,0.4,-8.0,0.1100000000000001,1.28,0.03,-0.07,0.0,0.9942836617384396,0.44339598554790727,0.0004051329223104805,0.28,0,0,0.0
6.576252906999798,352,4483.71,-95.1,-1.0,-99.1,0.1,-0.41,-0.21,-0.02,-0.99,-0.08,-213.5,-0.3,9.0,0.1100000000000001,1.28,-0.02,0.04,0.0,0.9934284070832683,0.471380949975707,0.0004411192982036738,0.28,0,0,0.0
6.5862198430004355,353,4483.72,-95.1,-1.0,-99.1,0.08,-0.43,-0.22,-0.02,-0.99,-0.09,-213.5,-0.1,0.0,0.1100000000000001,1.28,0.0,-0.03,0.0,0.9942836617384396,0.4895916665957459,0.0004058526498282866,0.28,0,0,0.0
6.594074640999679,354,4483.73,-95.0,-1.0,-99.2,0.06,-0.45,-0.24,-0.02,-0.98,-0.09,-213.5,0.0,0.0,0.1100000000000001,1.28,0.0,-0.06,0.0,0.9843271813782244,0.5135172830587107,0.009359615156179224,0.28,0,0,0.0
6.606337535000421,355,4483.74,-95.0,-1.0,-99.2,0.0,-0.45,-0.26,-0.02,-0.98,-0.09,-213.5,0.0,0.0,0.1100000000000001,1.28,0.0,-0.02,0.0,0.9843271813782244,0.5197114584074514,0.00917242285305564,0.28,0,0,0.0
6.616428315000121,356,4483.75,-95.0,-1.0,-99.3,-0.04,-0.47,-0.26,-0.02,-0.98,-0.08,-213.5,0.0,-5.0,0.1100000000000001,1.28,0.01,-0.01,0.0,0.9834632682515396,0.5386093203798092,0.009835609260145595,0.28,0,0,0.0
6.626067445999979,357,4483.76,-95.0,-0.9,-99.3,-0.08,-0.48,-0.28,-0.02,-0.99,-0.08,-213.5,-0.2,1.0,0.1100000000000001,1.28,0.0,-0.11,0.0,0.9934284070832683,0.561426753904728,0.00012693898015136984,0.28,0,0,0.0
6.63632500499989,358,4483.77,-95.1,-0.9,-99.4,-0.11,-0.5,-0.28,-0.01,-0.99,-0.08,-213.5,0.1,3.0,0.1100000000000001,1.28,-0.01,0.26,0.0,0.9932774033471213,0.5835237784358064,2.3583460875720164e-05,0.28,0,0,0.0
6.646069880000141,359,4483.78,-95.1,-0.9,-99.4,-0.13,-0.52,-0.28,-0.01,-0.99,-0.08,-213.5,0.0,1.0,0.1100000000000001,1.28,0.0,0.13,0.0,0.9932774033471213,0.6047313453096342,2.311179165825905e-05,0.28,0,0,0.0
6.656425846000275,360,4483.79,-95.1,-0.9,-99.5,-0.11,-0.52,-0.27,-0.01,-0.99,-0.08,-213.5,0.0,1.0,0.1100000000000001,1.28,0.0,-0.02,0.0,0.9932774033471213,0.5961543424315553,2.264955582509387e-05,0.28,0,0,0.0
6.665384799999629,361,4483.8,-95.1,-0.9,-99.5,-0.08,-0.56,-0.26,-0.01,-0.99,-0.08,-213.5,0.0,-1.0,0.1100000000000001,1.28,0.0,0.16,0.0,0.9932774033471213,0.6225752966509353,2.2196564708587552e-05,0.28,0,0,0.0
6.675913854999635,362,4483.81,-95.1,-0.8,-99.6,-0.05,-0.58,-0.23,-0.01,-0.99,-0.08,-213.5,0.0,1.0,0.1100000000000001,1.28,0.0,0.06,0.0,0.9932774033471213,0.625939294181153,2.175263341441802e-05,0.28,0,0,0.0
6.686018022000098,363,4483.82,-95.1,-0.8,-99.7,-0.02,-0.6,-0.22,-0.01,-0.99,-0.08,-213.5,-0.1,0.0,0.1100000000000001,1.28,0.0,-0.17,0.0,0.9932774033471213,0.6393746945258312,2.131758074608303e-05,0.28,0,0,0.0
6.698081923000245,364,4483.83,-95.1,-0.8,-99.7,-0.02,-0.62,-0.2,-0.01,-0.99,-0.09,-213.5,-0.5,-6.0,0.1100000000000001,1.28,0.02,-0.12,0.0,0.9941327879111522,0.651766829472013,0.0008173856436191063,0.28,0,0,0.0
6.7060083220003435,365,4483.84,-95.1,-0.8,-99.8,-0.04,-0.62,-0.17,-0.01,-0.99,-0.09,-213.5,0.1,4.0,0.1100000000000001,1.28,0.0,0.15,0.0,0.9941327879111522,0.6441273166075167,0.0008010379307467064,0.28,0,0,0.0
6.714058495000245,366,4483.85,-95.1,-0.8,-99.9,-0.05,-0.62,-0.18,-0.01,-0.99,-0.08,-213.5,-0.2,0.0,0.1100000000000001,1.28,0.0,-0.13,0.0,0.9932774033471213,0.647533782902483,5.3259700618535355e-05,0.28,0,0,0.0
6.726336241000354,367,4483.86,-95.1,-0.8,-99.9,-0.03,-0.62,-0.18,-0.01,-0.99,-0.08,-213.5,0.4,2.0,0.1100000000000001,1.28,0.0,0.07,0.0,0.9932774033471213,0.646297145282261,5.2194506606206836e-05,0.28,0,0,0.0
6.736416296000243,368,4483.87,-95.1,-0.8,-100.0,-0.03,-0.65,-0.17,-0.01,-0.99,-0.09,-213.5,-0.3,-1.0,0.1100000000000001,1.28,0.0,0.0,0.0,0.9941327879111522,0.672532527094415,0.0007871262562761938,0.28,0,0,0.0
6.746095794999746,369,4483.88,-95.1,-0.8,-100.1,-0.05,-0.67,-0.16,-0.02,-0.98,-0.09,-213.5,0.0,2.0,0.1100000000000001,1.28,0.0,0.01,0.0,0.9843271813782244,0.6906518659932803,0.008838110671118615,0.28,0,0,0.0
6.756484368999736,370,4483.89,-95.1,-0.7,-100.1,-0.09,-0.67,-0.12,-0.01,-0.98,-0.09,-213.5,0.0,-2.0,0.1100000000000001,1.28,0.0,0.01,0.0,0.9841747812253675,0.6865857557508749,0.008810700607496003,0.28,0,0,0.0
6.765945844000271,371,4483.9,-95.1,-0.7,-100.2,-0.13,-0.67,-0.08,-0.01,-0.98,-0.09,-213.5,0.1,0.0,0.1100000000000001,1.28,0.0,-0.08,0.0,0.9841747812253675,0.6871681017043793,0.008634486595346047,0.28,0,0,0.0
6.776329555000302,372,4483.91,-95.2,-0.7,-100.3,-0.18,-0.67,-0.06,-0.01,-0.98,-0.09,-213.5,0.0,-1.0,0.1100000000000001,1.28,0.0,-0.03,0.0,0.9841747812253675,0.6963476143421474,0.008461796863439175,0.28,0,0,0.0
6.786038203000317,373,4483.92,-95.2,-0.7,-100.3,-0.22,-0.65,-0.05,0.0,-0.98,-0.09,-213.5,-0.3,2.0,0.1100000000000001,1.28,0.0,0.21,0.0,0.9841239759298621,0.6880406964707829,0.008342350115765673,0.28,0,0,0.0
6.79402298199966,374,4483.93,-95.2,-0.7,-100.4,-0.24,-0.63,-0.04,0.0,-0.98,-0.09,-213.5,0.0,-3.0,0.1100000000000001,1.28,0.01,0.1,0.0,0.9841239759298621,0.6753517601961218,0.008175503113450389,0.28,0,0,0.0
6.806407656999909,375,4483.94,-95.2,-0.7,-100.5,-0.24,-0.58,-0.02,0.0,-0.99,-0.09,-213.5,0.1,0.0,0.1100000000000001,1.28,0.0,0.06,0.0,0.9940824915468535,0.6280127387243033,0.0017473522534701136,0.28,0,0,0.0
6.816462110999964,376,4483.95,-95.3,-0.7,-100.5,-0.23,-0.55,-0.02,0.0,-0.99,-0.09,-213.5,-0.1,0.0,0.1100000000000001,1.28,0.0,-0.03,0.0,0.9940824915468535,0.5964897316802696,0.001712405208400658,0.28,0,0,0.0
6.825914541000202,377,4483.96,-95.3,-0.7,-100.6,-0.21,-0.51,0.0,0.0,-0.99,-0.09,-213.5,0.0,0.0,0.1100000000000001,1.28,0.0,0.02,0.0,0.9940824915468535,0.551543289325507,0.0016781571042326915,0.28,0,0,0.0
6.836365195000326,378,4483.97,-95.3,-0.7,-100.6,-0.18,-0.46,0.0,0.0,-0.99,-0.08,-213.5,0.0,-2.0,0.1100000000000001,1.28,0.0,0.12,0.0,0.9932270636667125,0.4939635614091388,0.0008062746396099163,0.28,0,0,0.0
6.845992257000034,379,4483.98,-95.3,-0.7,-100.7,-0.2,-0.41,0.01,0.0,-0.99,-0.08,-213.5,0.0,2.0,0.1100000000000001,1.28,0.0,-0.07,0.0,0.9932270636667125,0.4562893818619933,0.0007901491468177424,0.28,0,0,0.0
6.854005344999678,380,4483.99,-95.3,-0.7,-100.7,-0.21,-0.37,0.01,0.0,-0.98,-0.08,-213.5,0.0,-2.0,0.1100000000000001,1.28,0.01,-0.07,0.0,0.9832598842625483,0.4255584566190642,0.008993489652199593,0.28,0,0,0.0
6.866306771000382,381,4484.0,-95.3,-0.7,-100.7,-0.24,-0.34,0.02,0.0,-0.98,-0.08,-213.5,-0.1,1.0,0.1100000000000001,1.28,0.0,0.07,0.0,0.9832598842625483,0.4166533331199932,0.00881361985915563,0.28,0,0,0.0
6.873984050999752,382,4484.01,-95.4,-0.7,-100.8,-0.28,-0.33,0.03,0.0,-0.98,-0.08,-213.5,0.0,0.0,0.1100000000000001,1.28,0.0,-0.21,0.0,0.9832598842625483,0.4338202392696773,0.008637347461972533,0.28,0,0,0.0
6.886428722999881,383,4484.02,-95.4,-0.7,-100.8,-0.32,-0.32,0.04,-0.01,-0.98,-0.08,-213.5,0.1,0.0,0.1100000000000001,1.28,0.0,0.11,0.0,0.9833107342035883,0.4543126676640219,0.008414767570513848,0.28,0,0,0.0
6.8963188779998745,384,4484.03,-95.4,-0.7,-100.8,-0.33,-0.32,0.02,-0.01,-0.99,-0.08,-213.5,0.0,4.0,0.1100000000000001,1.28,-0.02,0.01,0.0,0.9932774033471213,0.46010868281309364,0.0015208635415587812,0.28,0,0,0.0
6.906477450000239,385,4484.04,-95.4,-0.8,-100.9,-0.31,-0.32,0.01,-0.02,-0.99,-0.08,-213.5,-0.4,-8.0,0.1100000000000001,1.28,0.03,0.21,0.0,0.9934284070832683,0.44564559910314383,0.001638429932151575,0.28,0,0,0.0
6.916478705000372,386,4484.05,-95.5,-0.8,-100.9,-0.32,-0.32,0.0,-0.02,-0.99,-0.08,-213.5,0.3,5.0,0.1100000000000001,1.28,0.0,0.21,0.0,0.9934284070832683,0.4525483399593904,0.00160566133350859,0.28,0,0,0.0
6.925851459000114,387,4484.06,-95.5,-0.8,-100.9,-0.32,-0.36,-0.01,-0.02,-0.99,-0.08,-213.5,-0.3,0.0,0.1100000000000001,1.28,0.0,-0.02,0.0,0.9934284070832683,0.48176757881783616,0.0015735481068384072,0.28,0,0,0.0
6.936443565000445,388,4484.07,-95.5,-0.8,-101.0,-0.31,-0.39,-0.01,-0.02,-0.99,-0.08,-213.5,0.1,-3.0,0.1100000000000001,1.28,0.01,-0.07,0.0,0.9934284070832683,0.4982971001320397,0.0015420771447016701,0.28,0,0,0.0
6.945982324000397,389,4484.08,-95.5,-0.8,-101.0,-0.32,-0.43,-0.02,-0.02,-0.99,-0.08,-213.5,-0.6,0.0,0.1100000000000001,1.28,0.0,0.02,0.0,0.9934284070832683,0.5363767332761554,0.001511235601807659,0.28,0,0,0.0
6.956202293999922,390,4484.09,-95.6,-0.8,-101.1,-0.35,-0.46,0.0,-0.02,-0.99,-0.08,-213.5,0.2,-1.0,0.1100000000000001,1.28,0.0,-0.02,0.0,0.9934284070832683,0.578013840664737,0.0014810108897714835,0.28,0,0,0.0
6.966425067000273,391,4484.1,-95.6,-0.8,-101.1,-0.37,-0.5,0.0,-0.01,-0.99,-0.08,-213.5,-0.1,-3.0,0.1100000000000001,1.28,0.02,-0.21,0.0,0.9932774033471213,0.6220128616033594,0.0013034070105519824,0.28,0,0,0.0
6.976446128000134,392,4484.11,-95.6,-0.8,-101.2,-0.38,-0.55,0.02,-0.01,-0.99,-0.09,-213.5,-0.1,1.0,0.1100000000000001,1.28,0.0,0.01,0.0,0.9941327879111522,0.6688049042882387,0.0021156157430912703,0.28,0,0,0.0
6.986000920999686,393,4484.12,-95.7,-0.8,-101.2,-0.4,-0.6,0.02,-0.01,-0.99,-0.09,-213.5,0.0,-1.0,0.1100000000000001,1.28,0.0,-0.02,0.0,0.9941327879111522,0.7213875518748574,0.0020733034282294227,0.28,0,0,0.0
6.996339803999945,394,4484.13,-95.7,-0.8,-101.3,-0.39,-0.65,0.03,-0.01,-0.99,-0.09,-213.5,-0.2,1.0,0.1100000000000001,1.28,0.0,-0.07,0.0,0.9941327879111522,0.7586171630012071,0.0020318373596648343,0.28,0,0,0.0
7.005978166999739,395,4484.14,-95.7,-0.8,-101.3,-0.36,-0.67,0.02,-0.01,-1.0,-0.09,-213.5,0.0,0.0,0.1100000000000001,1.28,0.0,0.06,0.0,1.0040916292848974,0.7608547824650903,0.011750865158741797,0.28,0,0,0.0
7.016274847000204,396,4484.15,-95.8,-0.8,-101.4,-0.32,-0.68,0.01,-0.01,-1.0,-0.09,-213.5,0.1,3.0,0.1100000000000001,1.28,-0.02,0.01,0.0,1.0040916292848974,0.7515982969645422,0.011515847855566919,0.28,0,0,0.0
7.026650238000002,397,4484.16,-95.8,-0.9,-101.5,-0.26,-0.7,0.01,-0.01,-0.99,-0.09,-213.5,0.0,-3.0,0.1100000000000001,1.28,0.0,0.11,0.0,0.9941327879111522,0.7467931440499437,0.0015258663521853233,0.28,0,0,0.0
7.036596058000214,398,4484.17,-95.8,-0.9,-101.5,-0.24,-0.72,0.0,-0.02,-0.99,-0.09,-213.5,0.0,-2.0,0.1100000000000001,1.28,0.01,-0.16,0.0,0.9942836617384396,0.758946638440411,0.0016432053758832499,0.28,0,0,0.0
7.045976446999703,399,4484.18,-95.8,-0.9,-101.6,-0.24,-0.74,-0.01,-0.02,-0.99,-0.09,-213.5,0.0,2.0,0.1100000000000001,1.28,0.0,0.07,0.0,0.9942836617384396,0.7780102827083971,0.0016103412683655671,0.28,0,0,0.0
7.056243132999953,400,4484.19,-95.9,-0.9,-101.7,-0.24,-0.77,-0.03,-0.02,-0.99,-0.09,-213.5,-0.2,-4.0,0.1100000000000001,1.28,0.01,0.02,0.0,0.9942836617384396,0.8070935509592428,0.001578134442998258,0.28,0,0,0.0
7.066467450000346,401,4484.2,-95.9,-0.9,-101.8,-0.25,-0.8,-0.04,-0.01,-0.99,-0.1,-213.5,-0.1,3.0,0.1100000000000001,1.28,0.0,0.07,0.0,0.9950879358127099,0.8391066678319272,0.002334760346923148,0.28,0,0,0.0
7.076429108999946,402,4484.21,-95.9,-0.9,-101.9,-0.28,-0.8,-0.04,-0.01,-0.99,-0.1,-213.5,0.0,-4.0,0.1100000000000001,1.28,0.01,-0.11,0.0,0.9950879358127099,0.8485281374238571,0.0022880651399846963,0.28,0,0,0.0
7.085985931999858,403,4484.22,-95.9,-0.9,-101.9,-0.27,-0.82,-0.04,-0.01,-0.99,-0.1,-213.5,0.3,7.0,0.1100000000000001,1.28,-0.03,-0.02,0.0,0.9950879358127099,0.8642337646724987,0.0022423038371850446,0.28,0,0,0.0
7.096367320999889,404,4484.23,-96.0,-0.9,-102.0,-0.24,-0.83,-0.05,-0.01,-0.99,-0.11,-213.5,0.0,-6.0,0.1100000000000001,1.28,0.02,-0.06,0.0,0.9961425600786264,0.8654478609367522,0.0032309895410395084,0.28,0,0,0.0
7.105958197000291,405,4484.24,-96.0,-0.9,-102.1,-0.22,-0.82,-0.04,-0.01,-0.99,-0.11,-213.5,-0.6,0.0,0.1100000000000001,1.28,0.0,-0.02,0.0,0.9961425600786264,0.849941174435031,0.003166369750218667,0.28,0,0,0.0
7.116496139999981,406,4484.25,-96.0,-0.9,-102.2,-0.18,-0.82,-0.05,-0.01,-0.99,-0.11,-213.5,0.3,1.0,0.1100000000000001,1.28,0.0,0.16,0.0,0.9961425600786264,0.8410112960002379,0.0031030423552143027,0.28,0,0,0.0
7.126014950999888,407,4484.26,-96.0,-0.9,-102.3,-0.13,-0.84,-0.05,-0.01,-0.99,-0.11,-213.5,-0.1,0.0,0.1100000000000001,1.28,0.0,-0.01,0.0,0.9961425600786264,0.85146931829632,0.003040981508110052,0.28,0,0,0.0
7.134050843000296,408,4484.27,-96.0,-0.9,-102.4,-0.12,-0.85,-0.04,-0.01,-0.98,-0.1,-213.5,0.3,1.0,0.1100000000000001,1.28,0.0,0.03,0.0,0.9851395840184273,0.8593602271457529,0.007802754661047295,0.28,0,0,0.0
7.146380285000305,409,4484.28,-96.1,-0.9,-102.4,-0.14,-0.85,-0.03,-0.01,-0.99,-0.1,-213.5,0.0,-3.0,0.1100000000000001,1.28,0.01,-0.15,0.0,0.9950879358127099,0.8619744775803979,0.0021026851905706634,0.28,0,0,0.0
7.156506368000009,410,4484.29,-96.1,-0.9,-102.5,-0.2,-0.87,-0.02,-0.01,-0.98,-0.1,-213.5,-0.3,0.0,0.1100000000000001,1.28,0.0,-0.06,0.0,0.9851395840184273,0.8929165694509202,0.0076887532716377605,0.28,0,0,0.0
7.166026468000382,411,4484.3,-96.1,-0.9,-102.6,-0.24,-0.87,-0.02,-0.01,-0.98,-0.1,-213.5,0.3,0.0,0.1100000000000001,1.28,0.0,-0.01,0.0,0.9851395840184273,0.9027181176868003,0.0075349782062049675,0.28,0,0,0.0
7.176229388999673,412,4484.31,-96.1,-0.9,-102.7,-0.26,-0.85,-0.02,-0.01,-0.99,-0.1,-213.5,-0.3,0.0,0.1100000000000001,1.28,0.0,-0.01,0.0,0.9950879358127099,0.8891006692158092,0.002365106116316129,0.28,0,0,0.0
7.186525993999567,413,4484.32,-96.1,-0.9,-102.8,-0.21,-0.83,-0.03,0.0,-0.99,-0.11,-213.5,0.3,3.0,0.1100000000000001,1.28,0.0,0.03,0.0,0.9960923651951158,0.8566796367370944,0.003302144788747574,0.28,0,0,0.0
7.196360660999744,414,4484.33,-96.2,-0.9,-102.9,-0.16,-0.77,0.0,0.0,-1.0,-0.11,-213.5,-0.6,-2.0,0.1100000000000001,1.28,0.0,0.12,0.0,1.0060318086422517,0.7864477096412704,0.012976756471165807,0.28,0,0,0.0
7.205995084000278,415,4484.34,-96.2,-0.9,-102.9,-0.07,-0.73,0.01,0.0,-1.0,-0.12,-213.5,0.2,3.0,0.1100000000000001,1.28,0.0,0.08,0.0,1.0071742649611337,0.7334166619323561,0.013836828534246837,0.28,0,0,0.0
7.216540612000244,416,4484.35,-96.2,-0.9,-103.0,-0.02,-0.68,0.05,0.0,-1.01,-0.12,-213.5,-0.3,0.0,0.1100000000000001,1.28,0.0,-0.1,0.0,1.0171037311896953,0.6821290200541245,0.02329096886755233,0.28,0,0,0.0
7.2260347860001275,417,4484.36,-96.2,-0.9,-103.1,0.03,-0.65,0.08,0.0,-1.01,-0.12,-213.5,0.1,0.0,0.1100000000000001,1.28,0.0,-0.01,0.0,1.0171037311896953,0.6555913361233506,0.022825149490201313,0.28,0,0,0.0
7.2362607209997805,418,4484.37,-96.2,-0.9,-103.1,0.09,-0.6,0.1,0.0,-1.01,-0.12,-213.5,-0.2,0.0,0.1100000000000001,1.28,0.0,-0.01,0.0,1.0171037311896953,0.6148983655857283,0.02236864650039727,0.28,0,0,0.0
7.246542423000392,419,4484.38,-96.2,-0.9,-103.2,0.13,-0.57,0.12,0.0,-1.0,-0.11,-213.5,0.1,1.0,0.1100000000000001,1.28,0.0,-0.05,0.0,1.0060318086422517,0.596824932455071,0.011070789473894616,0.28,0,0,0.0
7.256364875000145,420,4484.39,-96.2,-1.0,-103.2,0.14,-0.54,0.13,0.0,-0.99,-0.1,-213.5,0.1,4.0,0.1100000000000001,1.28,-0.01,0.08,0.0,0.9950376877284598,0.5728001396647875,7.513518890067683e-05,0.28,0,0,0.0
7.265988907999599,421,4484.4,-96.2,-1.0,-103.3,0.12,-0.52,0.14,0.0,-0.98,-0.09,-213.5,-0.5,-7.0,0.1100000000000001,1.28,0.03,0.07,0.0,0.9841239759298621,0.5517245689653489,0.0106218050775031,0.28,0,0,0.0
7.276529998999649,422,4484.41,-96.1,-1.0,-103.3,0.12,-0.49,0.12,0.0,-0.98,-0.1,-213.5,0.2,9.0,0.1100000000000001,1.28,-0.03,0.12,0.0,0.9850888284819801,0.518555686498567,0.009463813474877458,0.28,0,0,0.0
7.286027619999913,423,4484.42,-96.1,-1.0,-103.4,0.09,-0.41,0.09,0.0,-0.97,-0.11,-213.5,0.0,-6.0,0.1100000000000001,1.28,0.01,0.0,0.0,0.9762171889492625,0.42930175867331355,0.01796874394744319,0.28,0,0,0.0
7.296249623999756,424,4484.43,-96.1,-1.0,-103.4,0.02,-0.31,0.06,-0.01,-0.97,-0.11,-213.5,0.0,3.0,0.1100000000000001,1.28,0.0,0.0,0.0,0.9762684057163787,0.3163858403911275,0.017559176636720353,0.28,0,0,0.0
7.306511992000196,425,4484.44,-96.1,-1.0,-103.5,-0.08,-0.23,0.03,-0.01,-0.97,-0.1,-213.5,0.0,-1.0,0.1100000000000001,1.28,0.0,0.03,0.0,0.9751922887307918,0.24535688292770594,0.018262587749861114,0.28,0,0,0.0
7.316646252000282,426,4484.45,-96.1,-1.0,-103.5,-0.17,-0.2,-0.01,-0.02,-0.98,-0.09,-213.5,-0.1,0.0,0.1100000000000001,1.28,0.0,0.03,0.0,0.9843271813782244,0.26267851073127396,0.008945141200379925,0.28,0,0,0.0
7.326017270999728,427,4484.46,-96.1,-1.0,-103.5,-0.19,-0.2,-0.05,-0.02,-0.99,-0.09,-213.5,-0.3,0.0,0.1100000000000001,1.28,0.0,0.0,0.0,0.9942836617384396,0.2803569153775237,0.0009911123766386254,0.28,0,0,0.0
7.336475737000001,428,4484.47,-96.2,-1.0,-103.5,-0.14,-0.23,-0.08,-0.02,-1.0,-0.1,-213.5,-0.2,0.0,0.1100000000000001,1.28,0.0,0.0,0.0,1.005186549850325,0.2808914381037628,0.011656120478753529,0.28,0,0,0.0
7.346041132999744,429,4484.48,-96.2,-1.0,-103.5,-0.05,-0.25,-0.05,-0.02,-1.0,-0.1,-213.5,-0.3,0.0,0.1100000000000001,1.28,0.0,0.0,0.0,1.005186549850325,0.2598076211353316,0.011422998069178458,0.28,0,0,0.0
7.356310864000079,430,4484.49,-96.2,-1.0,-103.6,0.04,-0.27,-0.02,-0.02,-0.99,-0.11,-213.6,-0.7,-8.0,0.1100000000000001,1.28,0.04,0.03,0.0,0.9962931295557548,0.2736786436680802,0.0024789862191161305,0.28,0,0,0.0
7.366343271000005,431,4484.5,-96.2,-1.0,-103.6,0.1,-0.3,0.02,-0.03,-0.99,-0.11,-213.6,-1.5,-5.0,0.1100000000000001,1.28,0.05,0.17,0.0,0.9965440281292142,0.3168595903550972,0.002675287096724044,0.28,0,0,0.0
7.376469892000387,432,4484.51,-96.1,-1.0,-103.6,0.11,-0.34,0.03,-0.03,-1.0,-0.1,-213.6,-1.8,-1.0,0.1100000000000001,1.28,0.04,0.04,0.0,1.0054352291420865,0.35860842154082223,0.011335158347404395,0.28,0,0,0.0
7.386032940000405,433,4484.52,-96.1,-1.1,-103.7,0.07,-0.38,0.02,-0.03,-0.99,-0.1,-213.6,-1.8,-1.0,0.1100000000000001,1.28,0.05,0.04,0.0,0.9954898291795853,0.38691084244306206,0.0013619632172051643,0.28,0,0,0.0
7.396332027999961,434,4484.53,-96.1,-1.1,-103.7,0.03,-0.43,0.01,-0.03,-0.99,-0.09,-213.6,-2.2,-1.0,0.1100000000000001,1.28,0.05,-0.01,0.0,0.9945350672550466,0.43116122274620194,0.0003990572668131076,0.28,0,0,0.0
7.40607452400036,435,4484.54,-96.1,-1.1,-103.8,-0.02,-0.48,0.0,-0.03,-0.98,-0.09,-213.6,-1.7,2.0,0.1100000000000001,1.28,0.03,-0.03,0.0,0.9845811292118085,0.48041648597857256,0.009363783160896477,0.28,0,0,0.0
7.41400737999993,436,4484.55,-96.1,-1.1,-103.8,-0.07,-0.52,0.0,-0.02,-0.98,-0.1,-213.7,-1.5,4.0,0.1100000000000001,1.28,0.02,0.16,0.0,0.985291834940288,0.5246903848937963,0.008480015883768566,0.28,0,0,0.0
7.426586153999779,437,4484.56,-96.1,-1.1,-103.9,-0.11,-0.55,0.01,-0.02,-0.98,-0.1,-213.7,-0.7,5.0,0.1100000000000001,1.28,0.01,-0.01,0.0,0.985291834940288,0.56098128311023,0.008310415566093243,0.28,0,0,0.0
7.436434334999831,438,4484.57,-96.1,-1.1,-103.9,-0.1,-0.56,0.01,-0.02,-0.99,-0.1,-213.7,-0.2,5.0,0.1100000000000001,1.28,0.0,0.05,0.0,0.995238664843765,0.568946394662977,0.0016036860506359885,0.28,0,0,0.0
7.446049187000426,439,4484.58,-96.1,-1.1,-104.0,-0.1,-0.57,0.02,-0.02,-0.99,-0.1,-213.7,-0.2,1.0,0.1100000000000001,1.28,0.0,-0.1,0.0,0.995238664843765,0.579050947672137,0.0015716123296232176,0.28,0,0,0.0
7.456278882000333,440,4484.59,-96.1,-1.1,-104.0,-0.07,-0.58,0.02,-0.02,-1.0,-0.1,-213.7,-0.1,0.0,0.1100000000000001,1.28,0.0,-0.01,0.0,1.005186549850325,0.5845511098270193,0.01128910738945954,0.28,0,0,0.0
7.466051358000186,441,4484.6,-96.2,-1.2,-104.1,-0.01,-0.6,0.0,-0.02,-1.0,-0.1,-213.7,-0.7,1.0,0.1100000000000001,1.28,0.0,0.01,0.0,1.005186549850325,0.6000833275470999,0.011063325241670308,0.28,0,0,0.0
7.476341139000397,442,4484.61,-96.1,-1.2,-104.1,0.03,-0.61,-0.01,-0.02,-0.99,-0.11,-213.7,-0.2,3.0,0.1100000000000001,1.28,0.0,0.07,0.0,0.9962931295557548,0.610819122163018,0.0021265068481580718,0.28,0,0,0.0
7.486074012000245,443,4484.62,-96.1,-1.2,-104.2,0.02,-0.63,-0.02,-0.02,-0.98,-0.1,-213.7,0.0,1.0,0.1100000000000001,1.28,0.0,0.0,0.0,0.985291834940288,0.6306346010171024,0.008697292011962454,0.28,0,0,0.0
7.496356425000158,444,4484.63,-96.1,-1.2,-104.3,-0.07,-0.65,-0.02,-0.03,-0.97,-0.1,-213.7,-0.1,-1.0,0.1100000000000001,1.28,0.0,0.05,0.0,0.975602378020882,0.6540642170307134,0.01801901395274108,0.28,0,0,0.0
7.506076863999624,445,4484.64,-96.2,-1.2,-104.3,-0.17,-0.7,-0.03,-0.02,-0.97,-0.1,-213.7,-0.1,2.0,0.1100000000000001,1.28,0.0,0.1,0.0,0.9753460924205315,0.7209715667070373,0.01790979356202982,0.28,0,0,0.0
7.516388428999562,446,4484.65,-96.2,-1.2,-104.4,-0.25,-0.75,-0.04,-0.02,-0.96,-0.09,-213.7,0.0,2.0,0.1100000000000001,1.28,-0.01,0.04,0.0,0.9644169222903546,0.7915806970865321,0.02826218441836259,0.28,0,0,0.0
7.5260816299996804,447,4484.66,-96.2,-1.2,-104.5,-0.33,-0.79,-0.03,-0.02,-0.96,-0.1,-213.7,0.1,-3.0,0.1100000000000001,1.28,0.0,0.06,0.0,0.9654014708917735,0.8566796367370945,0.02673208310060482,0.28,0,0,0.0
7.53643136699975,448,4484.67,-96.2,-1.2,-104.6,-0.42,-0.82,-0.02,-0.02,-0.96,-0.1,-213.7,0.0,0.0,0.1100000000000001,1.28,0.0,-0.04,0.0,0.9654014708917735,0.9215204826806618,0.026197441438592706,0.28,0,0,0.0
7.545934105000015,449,4484.68,-96.3,-1.2,-104.7,-0.5,-0.83,-0.01,-0.02,-0.96,-0.1,-213.7,0.2,0.0,0.1100000000000001,1.28,0.0,-0.03,0.0,0.9654014708917735,0.9690201236300513,0.02567349260982088,0.28,0,0,0.0
7.556520215999626,450,4484.69,-96.3,-1.2,-104.7,-0.55,-0.82,-0.03,-0.02,-0.97,-0.1,-213.7,0.0,0.0,0.1100000000000001,1.28,0.0,-0.02,0.0,0.9753460924205315,0.9878258955909184,0.015414293659441691,0.28,0,0,0.0
7.56601659900025,451,4484.7,-96.4,-1.2,-104.8,-0.55,-0.8,-0.05,-0.01,-0.98,-0.1,-213.7,-0.2,-1.0,0.1100000000000001,1.28,0.0,-0.02,0.0,0.9851395840184273,0.972111104761179,0.005508386020315004,0.28,0,0,0.0
7.576398334999794,452,4484.71,-96.4,-1.2,-104.9,-0.55,-0.76,-0.08,-0.01,-0.99,-0.11,-213.7,0.1,3.0,0.1100000000000001,1.28,-0.01,0.01,0.0,0.9961425600786264,0.941541289588513,0.005384698239086494,0.28,0,0,0.0
7.58600614199986,453,4484.72,-96.5,-1.2,-105.0,-0.51,-0.72,-0.11,-0.01,-0.99,-0.11,-213.7,0.0,-1.0,0.1100000000000001,1.28,0.0,-0.13,0.0,0.9961425600786264,0.8891569040388766,0.005277004274304775,0.28,0,0,0.0
7.596568253999976,454,4484.73,-96.5,-1.2,-105.0,-0.48,-0.69,-0.11,0.0,-0.99,-0.12,-213.7,0.0,-1.0,0.1100000000000001,1.28,0.0,0.04,0.0,0.9972462083156797,0.8477027781009095,0.0062530394611308715,0.28,0,0,0.0
7.605975579000187,455,4484.74,-96.6,-1.2,-105.1,-0.45,-0.64,-0.1,0.0,-0.99,-0.12,-213.7,0.0,0.0,0.1100000000000001,1.28,0.0,-0.11,0.0,0.9972462083156797,0.7887331614684399,0.006127978671908285,0.28,0,0,0.0
7.616553263000242,456,4484.75,-96.6,-1.2,-105.2,-0.41,-0.58,-0.08,0.0,-0.99,-0.12,-213.7,-0.1,-1.0,0.1100000000000001,1.28,0.0,-0.05,0.0,0.9972462083156797,0.7147726911403373,0.006005419098470077,0.28,0,0,0.0
7.626066924999577,457,4484.76,-96.7,-1.2,-105.2,-0.38,-0.51,-0.07,0.0,-0.99,-0.13,-213.7,0.1,0.0,0.1100000000000001,1.28,0.0,-0.03,0.0,0.9984988733093293,0.6398437309218556,0.007112922410277278,0.28,0,0,0.0
7.636440205000326,458,4484.77,-96.7,-1.2,-105.3,-0.35,-0.43,-0.06,0.0,-1.0,-0.13,-213.7,0.0,1.0,0.1100000000000001,1.28,0.0,0.0,0.0,1.0084145972763385,0.5576737397439474,0.01668807344974077,0.28,0,0,0.0
7.6459152059996995,459,4484.78,-96.8,-1.1,-105.3,-0.29,-0.34,-0.07,0.0,-1.0,-0.13,-213.7,0.0,-2.0,0.1100000000000001,1.28,0.01,0.1,0.0,1.0084145972763385,0.45232731511594565,0.016354311980745995,0.28,0,0,0.0
7.656568485999742,460,4484.79,-96.8,-1.1,-105.3,-0.23,-0.25,-0.08,0.0,-1.01,-0.13,-213.7,0.2,0.0,0.1100000000000001,1.28,0.0,0.08,0.0,1.0183319694480772,0.34899856733230294,0.025746250469435017,0.28,0,0,0.0
7.666077357999711,461,4484.8,-96.8,-1.1,-105.4,-0.17,-0.15,-0.08,0.0,-1.01,-0.14,-213.7,-0.2,0.0,0.1100000000000001,1.28,0.0,-0.13,0.0,1.0196568050084303,0.24041630560342617,0.026529664309192236,0.28,0,0,0.0
7.676415162999547,462,4484.81,-96.9,-1.1,-105.4,-0.08,-0.06,-0.08,0.0,-1.02,-0.14,-213.7,0.1,1.0,0.1100000000000001,1.28,0.0,0.15,0.0,1.0295630140987,0.12806248474865697,0.03570715593147278,0.28,0,0,0.0
7.6860329789997195,463,4484.82,-96.9,-1.1,-105.4,0.0,0.0,-0.07,0.0,-1.02,-0.14,-213.7,-0.2,-1.0,0.1100000000000001,1.28,0.01,0.04,0.0,1.0295630140987,0.07,0.03499301281284328,0.28,0,0,0.0
7.696625102000326,464,4484.83,-96.9,-1.0,-105.4,0.07,0.04,-0.07,0.0,-1.01,-0.14,-213.7,0.1,3.0,0.1100000000000001,1.28,-0.01,-0.06,0.0,1.0196568050084303,0.10677078252031312,0.024585067648122072,0.28,0,0,0.0
7.706057954000244,465,4484.84,-96.9,-1.0,-105.4,0.1,0.09,-0.07,0.0,-1.0,-0.13,-213.7,0.0,0.0,0.1100000000000001,1.28,0.0,0.07,0.0,1.0084145972763385,0.15165750888103102,0.0130760027177097,0.28,0,0,0.0
7.716646165999919,466,4484.85,-96.9,-1.0,-105.4,0.11,0.12,-0.06,0.0,-1.0,-0.13,-213.7,0.0,3.0,0.1100000000000001,1.28,-0.01,0.05,0.0,1.0084145972763385,0.17349351572897473,0.012814482663355498,0.28,0,0,0.0
7.725992966999911,467,4484.86,-96.9,-1.0,-105.4,0.1,0.16,-0.06,0.0,-0.99,-0.13,-213.7,0.0,-1.0,0.1100000000000001,1.28,0.0,-0.13,0.0,0.9984988733093293,0.19798989873223333,0.0028407835224193434,0.28,0,0,0.0
7.736528256999918,468,4484.87,-96.9,-1.0,-105.3,0.09,0.2,-0.05,0.0,-0.98,-0.13,-213.7,0.2,4.0,0.1100000000000001,1.28,-0.01,-0.09,0.0,0.9885848471426213,0.22494443758403987,0.00693177779140286,0.28,0,0,0.0
7.7460130970002865,469,4484.88,-96.9,-1.0,-105.3,0.08,0.23,-0.05,0.0,-0.98,-0.12,-213.7,0.0,-2.0,0.1100000000000001,1.28,0.01,-0.13,0.0,0.9873196037757985,0.2485960578931211,0.008033080735061149,0.28,0,0,0.0
7.756694892000269,470,4484.89,-96.9,-1.0,-105.3,0.07,0.25,-0.03,0.0,-0.98,-0.12,-213.7,-0.1,3.0,0.1100000000000001,1.28,-0.02,0.03,0.0,0.9873196037757985,0.2613426869074396,0.007872419120359964,0.28,0,0,0.0
7.7659031319999485,471,4484.9,-96.9,-0.9,-105.3,0.08,0.26,0.0,0.0,-0.97,-0.12,-213.7,0.0,-5.0,0.1100000000000001,1.28,0.02,0.08,0.0,0.9773944955850733,0.2720294101747089,0.017441576764863465,0.28,0,0,0.0
7.7763782789998,472,4484.91,-96.8,-0.9,-105.2,0.1,0.27,0.01,0.0,-0.97,-0.11,-213.7,0.1,0.0,0.1100000000000001,1.28,0.0,0.0,0.0,0.9762171889492625,0.28809720581775866,0.018246505732660845,0.28,0,0,0.0
7.786057111000446,473,4484.92,-96.8,-0.9,-105.2,0.09,0.26,0.04,-0.01,-0.97,-0.11,-213.7,0.0,-2.0,0.1100000000000001,1.28,0.0,0.02,0.0,0.9762684057163787,0.2780287754891569,0.017831383186233674,0.28,0,0,0.0
7.796587216000262,474,4484.93,-96.8,-0.9,-105.2,0.09,0.25,0.05,-0.01,-0.97,-0.11,-213.7,0.1,-1.0,0.1100000000000001,1.28,0.01,0.12,0.0,0.9762684057163787,0.27037011669191546,0.01747475552250899,0.28,0,0,0.0
7.805942734999917,475,4484.94,-96.8,-0.9,-105.2,0.05,0.25,0.06,-0.02,-0.97,-0.11,-213.7,0.0,3.0,0.1100000000000001,1.28,-0.01,0.12,0.0,0.9764220398987314,0.2619160170741759,0.016974698913353126,0.28,0,0,0.0
7.816421194000213,476,4484.95,-96.8,-0.9,-105.1,0.02,0.25,0.07,-0.02,-0.97,-0.11,-213.7,0.0,-1.0,0.1100000000000001,1.28,0.0,0.04,0.0,0.9764220398987314,0.2603843313258307,0.01663520493508608,0.28,0,0,0.0
7.826484215000164,477,4484.96,-96.8,-1.0,-105.1,0.0,0.26,0.06,-0.02,-0.97,-0.11,-213.7,0.2,7.0,0.1100000000000001,1.28,-0.03,0.15,0.0,0.9764220398987314,0.2668332812825267,0.016302500836384404,0.28,0,0,0.0
7.836598693999804,478,4484.97,-96.8,-1.0,-105.1,-0.04,0.26,0.05,-0.02,-0.98,-0.11,-213.7,-0.2,-7.0,0.1100000000000001,1.28,0.03,-0.05,0.0,0.9863569333664157,0.26776855677991773,0.0062402552213260964,0.28,0,0,0.0
7.846006364999994,479,4484.98,-96.8,-1.0,-105.1,-0.09,0.26,0.03,-0.02,-0.98,-0.11,-213.7,0.1,1.0,0.1100000000000001,1.28,0.0,0.82,0.0,0.9863569333664157,0.27676705006196095,0.006115450116899623,0.28,0,0,0.0
7.856546216999959,480,4484.99,-96.8,-1.0,-105.0,-0.13,0.26,0.0,-0.01,-0.99,-0.11,-213.7,0.0,4.0,0.1100000000000001,1.28,-0.01,0.08,0.0,0.9961425600786264,0.2906888370749727,0.00359677306340489,0.28,0,0,0.0
7.865952791999916,481,4485.0,-96.8,-1.0,-105.0,-0.15,0.26,-0.03,-0.01,-0.99,-0.11,-213.7,0.3,0.0,0.1100000000000001,1.28,0.0,0.05,0.0,0.9961425600786264,0.30166206257996714,0.0035248376021368433,0.28,0,0,0.0
7.876563339999848,482,4485.01,-96.9,-1.0,-105.0,-0.21,0.27,-0.04,-0.01,-0.99,-0.11,-213.7,0.0,0.0,0.1100000000000001,1.28,0.0,-0.07,0.0,0.9961425600786264,0.34438350715445126,0.0034543408500941064,0.28,0,0,0.0
7.885927487999652,483,4485.02,-96.9,-1.0,-104.9,-0.23,0.28,0.0,-0.01,-0.99,-0.1,-213.7,0.1,-2.0,0.1100000000000001,1.28,0.0,0.05,0.0,0.9950879358127099,0.3623534186398688,0.0023517222524940262,0.28,0,0,0.0
7.896676067999579,484,4485.03,-96.9,-1.0,-104.9,-0.2,0.23,0.02,-0.01,-0.99,-0.1,-213.7,-0.1,-1.0,0.1100000000000001,1.28,0.0,-0.03,0.0,0.9950879358127099,0.3054504869860253,0.0023046878074441945,0.28,0,0,0.0
7.905988612999863,485,4485.04,-96.9,-1.0,-104.9,-0.17,0.2,0.06,-0.01,-0.98,-0.1,-213.7,0.1,-1.0,0.1100000000000001,1.28,0.0,-0.03,0.0,0.9851395840184273,0.26925824035672524,0.00749079070710168,0.28,0,0,0.0
7.916589131999899,486,4485.05,-96.9,-1.0,-104.9,-0.18,0.15,0.09,-0.01,-0.98,-0.1,-213.7,-0.1,-3.0,0.1100000000000001,1.28,0.0,-0.12,0.0,0.9851395840184273,0.25099800796022265,0.007340974892959595,0.28,0,0,0.0
7.925935029000357,487,4485.06,-96.9,-1.0,-104.9,-0.23,0.12,0.11,-0.02,-0.98,-0.11,-213.7,0.3,3.0,0.1100000000000001,1.28,-0.01,0.13,0.0,0.9863569333664157,0.28178005607210743,0.006001153034071671,0.28,0,0,0.0
7.936530013000265,488,4485.07,-96.9,-1.0,-104.9,-0.28,0.12,0.14,-0.02,-0.98,-0.11,-213.7,0.0,3.0,0.1100000000000001,1.28,-0.01,0.14,0.0,0.9863569333664157,0.3352610922848042,0.005881129973390187,0.28,0,0,0.0
7.945988086000398,489,4485.08,-97.0,-1.0,-104.8,-0.25,0.11,0.13,-0.03,-0.99,-0.11,-213.7,0.0,-4.0,0.1100000000000001,1.28,0.0,0.06,0.0,0.9965440281292142,0.30248966924508347,0.004219845493620089,0.28,0,0,0.0
7.95643408199976,490,4485.09,-97.0,-1.0,-104.8,-0.24,0.11,0.13,-0.03,-0.99,-0.12,-213.7,0.0,0.0,0.1100000000000001,1.28,0.0,-0.03,0.0,0.9976973488989535,0.2942787793912432,0.005265702938092143,0.28,0,0,0.0
7.965942670000004,491,4485.1,-97.0,-1.0,-104.8,-0.21,0.13,0.12,-0.02,-1.0,-0.12,-213.7,0.1,0.0,0.1100000000000001,1.28,0.0,-0.13,0.0,1.0073728207570423,0.2745906043549196,0.014642351300257372,0.28,0,0,0.0
7.976207077000254,492,4485.11,-97.0,-1.0,-104.8,-0.14,0.17,0.09,-0.02,-1.0,-0.12,-213.7,0.0,-1.0,0.1100000000000001,1.28,0.0,-0.11,0.0,1.0073728207570423,0.2379075450674064,0.01434950427425219,0.28,0,0,0.0
7.986657796000145,493,4485.12,-97.0,-1.1,-104.8,-0.09,0.22,0.08,-0.01,-1.0,-0.12,-213.7,0.0,0.0,0.1100000000000001,1.28,0.0,-0.03,0.0,1.0072239075796403,0.25079872407968906,0.013916579274913188,0.28,0,0,0.0
7.996630341999662,494,4485.13,-97.1,-1.1,-104.7,-0.04,0.29,0.08,-0.01,-0.99,-0.13,-213.7,0.2,1.0,0.1100000000000001,1.28,0.0,0.05,0.0,0.9985489472229191,0.30347981810987035,0.005136786539828075,0.28,0,0,0.0
8.005968301000394,495,4485.14,-97.1,-1.1,-104.7,0.0,0.39,0.11,0.0,-1.0,-0.12,-213.7,0.0,0.0,0.1100000000000001,1.28,0.0,0.0,0.0,1.0071742649611337,0.4052159917870962,0.013486862192481852,0.28,0,0,0.0
8.016567347999626,496,4485.15,-97.1,-1.1,-104.7,0.03,0.47,0.12,0.0,-1.0,-0.12,-213.7,0.0,0.0,0.1100000000000001,1.28,0.0,0.07,0.0,1.0071742649611337,0.4860041152089147,0.013217124948632253,0.28,0,0,0.0
8.025847316000181,497,4485.16,-97.1,-1.1,-104.6,0.07,0.52,0.11,0.0,-0.99,-0.12,-213.7,0.1,1.0,0.1100000000000001,1.28,0.0,-0.08,0.0,0.9972462083156797,0.5360970061472085,0.0032232869371146,0.28,0,0,0.0
8.036754216999725,498,4485.17,-97.0,-1.1,-104.6,0.07,0.58,0.1,0.0,-0.99,-0.12,-213.7,0.1,-3.0,0.1100000000000001,1.28,0.01,0.0,0.0,0.9972462083156797,0.5927056605094978,0.003158821198372297,0.28,0,0,0.0
8.045901276999757,499,4485.18,-97.0,-1.1,-104.5,0.03,0.63,0.09,-0.01,-0.98,-0.12,-213.7,0.0,3.0,0.1100000000000001,1.28,-0.02,0.02,0.0,0.9873702446397703,0.637102817447859,0.006582799627986358,0.28,0,0,0.0
8.056642970999746,500,4485.19,-97.1,-1.0,-104.4,-0.04,0.69,0.08,-0.01,-0.99,-0.13,-213.7,0.4,-2.0,0.1100000000000001,1.28,0.0,-0.11,0.0,0.9985489472229191,0.6957729514719582,0.004503984896059188,0.28,0,0,0.0
8.06595013399965,501,4485.2,-97.1,-1.0,-104.4,-0.05,0.72,0.07,-0.03,-0.99,-0.11,-213.7,0.3,3.0,0.1100000000000001,1.28,-0.03,0.07,0.0,0.9965440281292142,0.725120679611332,0.002449084486307207,0.28,0,0,0.0
8.076639781000267,502,4485.21,-97.1,-1.1,-104.3,0.11,0.67,0.12,-0.03,-0.98,-0.1,-213.7,0.2,-4.0,0.1100000000000001,1.28,0.0,0.0,0.0,0.9855455342093535,0.689492567037528,0.008378421244882306,0.28,0,0,0.0
8.08601353100039,503,4485.22,-97.0,-1.1,-104.2,0.22,0.69,0.19,-0.03,-0.98,-0.12,-213.7,0.5,0.0,0.1100000000000001,1.28,-0.02,0.09,0.0,0.9877752780870758,0.7487322618933954,0.006025703819816819,0.28,0,0,0.0
8.096660948000135,504,4485.23,-97.0,-1.1,-104.1,0.22,0.69,0.2,-0.03,-0.99,-0.12,-213.7,0.2,-1.0,0.1100000000000001,1.28,0.01,0.07,0.0,0.9976973488989535,0.7513321502504734,0.0038184396522196185,0.28,0,0,0.0
8.10594594899976,505,4485.24,-97.0,-1.1,-104.1,0.21,0.75,0.16,-0.04,-0.99,-0.12,-213.7,0.9,9.0,0.1100000000000001,1.28,-0.03,-0.01,0.0,0.9980480950335009,0.7951100552753688,0.004085802071031708,0.28,0,0,0.0
8.116311210000276,506,4485.25,-97.0,-1.1,-104.0,0.18,0.85,0.11,-0.05,-1.0,-0.13,-213.6,1.1,0.0,0.1100000000000001,1.28,-0.01,-0.08,0.0,1.0096534058774822,0.8757853618324526,0.015377290656712783,0.28,0,0,0.0
8.12639438899987,507,4485.26,-97.0,-1.2,-103.9,0.26,0.95,0.07,-0.05,-1.01,-0.12,-213.6,0.2,-3.0,0.1100000000000001,1.28,0.0,-0.03,0.0,1.0183319694480772,0.9874208829065749,0.023574737142761704,0.28,0,0,0.0
8.136688053000398,508,4485.27,-96.9,-1.2,-103.8,0.37,1.04,0.01,-0.05,-1.02,-0.11,-213.6,0.1,-2.0,0.1100000000000001,1.28,0.0,0.03,0.0,1.0271319292087069,1.103902169578446,0.0317272029653235,0.28,0,0,0.0
8.14591902400025,509,4485.28,-96.9,-1.2,-103.7,0.46,1.1,0.0,-0.05,-1.01,-0.11,-213.6,0.0,-1.0,0.1100000000000001,1.28,0.0,0.05,0.0,1.0172020448268868,1.1923086848631106,0.021361372211833318,0.28,0,0,0.0
8.156643653000174,510,4485.29,-96.8,-1.2,-103.6,0.55,1.14,0.02,-0.03,-1.01,-0.1,-213.6,0.2,-1.0,0.1100000000000001,1.28,0.0,0.14,0.0,1.0153817016275208,1.2658988901172161,0.01915020843221804,0.28,0,0,0.0
8.165979399000207,511,4485.3,-96.8,-1.2,-103.5,0.58,1.19,0.04,-0.02,-1.02,-0.11,-213.6,0.3,0.0,0.1100000000000001,1.28,0.0,0.0,0.0,1.0261091559868276,1.324424403278647,0.029280109535694265,0.28,0,0,0.0
8.17644947000008,512,4485.31,-96.7,-1.2,-103.3,0.52,1.27,0.05,-0.03,-1.02,-0.11,-213.6,0.8,6.0,0.1100000000000001,1.28,-0.02,-0.03,0.0,1.026352765865616,1.373244333685743,0.02893324502619299,0.28,0,0,0.0
8.185959481000282,513,4485.32,-96.6,-1.2,-103.2,0.49,1.32,0.04,-0.03,-1.03,-0.1,-213.6,1.8,8.0,0.1100000000000001,1.28,-0.07,0.12,0.0,1.0352777405121776,1.408580846100074,0.03710105527929952,0.28,0,0,0.0
8.19674246500017,514,4485.33,-96.6,-1.1,-103.1,0.55,1.35,0.0,-0.03,-1.04,-0.1,-213.6,3.1,9.0,0.1100000000000001,1.28,-0.09,0.01,0.0,1.0452272480183435,1.4577379737113252,0.046109551529756154,0.28,0,0,0.0
8.20979001700016,515,4485.34,-96.5,-1.1,-102.9,0.62,1.38,-0.07,-0.03,-1.03,-0.09,-213.5,4.3,11.0,0.1100000000000001,1.28,-0.12,-0.08,0.0,1.0343597053249898,1.5144966160411188,0.03453716865967438,0.28,0,0,0.0
8.217843972999617,516,4485.35,-96.4,-1.1,-102.8,0.67,1.36,-0.14,-0.05,-1.03,-0.08,-213.5,3.6,-11.0,0.1100000000000001,1.28,-0.04,0.0,0.0,1.034311365112073,1.5225307878660452,0.033799051877822395,0.28,0,0,0.0
8.225814579999678,517,4485.36,-96.4,-1.1,-102.7,0.74,1.32,-0.19,-0.08,-1.02,-0.07,-213.5,1.0,-14.0,0.1100000000000001,1.28,0.0,-0.03,0.0,1.0255242561733973,1.5251557297535225,0.02451170408036374,0.28,0,0,0.0
8.2365552629999,518,4485.37,-96.3,-1.1,-102.5,0.76,1.26,-0.18,-0.11,-0.99,-0.06,-213.5,0.4,-5.0,0.1100000000000001,1.28,0.0,-0.03,0.0,0.9978977903573091,1.4824304368165138,0.003052466501009987,0.28,0,0,0.0
8.245959492000111,519,4485.38,-96.2,-1.1,-102.4,0.69,1.16,-0.14,-0.12,-0.98,-0.05,-213.5,0.8,4.0,0.1100000000000001,1.28,-0.04,-0.09,0.0,0.9885848471426213,1.3569450983735487,0.012118101521383817,0.28,0,0,0.0
8.257833654999558,520,4485.39,-96.1,-1.1,-102.3,0.72,0.97,-0.15,-0.12,-0.98,-0.04,-213.5,2.0,8.0,0.10000000000000009,1.27,-0.07,0.11,0.0,0.98812954616285,1.217292076701397,0.012321934451131944,0.28,0,0,0.0
8.269778574999691,521,4485.4,-96.0,-1.1,-102.2,0.72,0.78,-0.18,-0.12,-0.97,-0.05,-213.4,3.5,14.0,0.10000000000000009,1.27,-0.11,-0.02,0.0,0.9786725703727472,1.0766615066955816,0.021343332036410034,0.28,0,0,0.0
8.277883511000255,522,4485.41,-96.0,-1.0,-102.2,0.71,0.57,-0.21,-0.12,-0.98,-0.06,-213.4,4.6,14.0,0.10000000000000009,1.27,-0.2,-0.11,0.0,0.9891410415102591,0.9343982020530648,0.010657363680920295,0.28,0,0,0.0
8.28584572300042,523,4485.42,-95.9,-1.0,-102.1,0.76,0.34,-0.2,-0.12,-0.98,-0.06,-213.3,11.1,61.0,0.10000000000000009,1.27,-0.42,-0.01,0.0,0.9891410415102591,0.8562709851443059,0.010444216407301865,0.28,0,0,0.0
8.29649643799985,524,4485.43,-95.8,-1.0,-102.1,0.8,0.15,-0.19,-0.11,-0.98,-0.07,-213.1,18.7,69.0,0.09000000000000008,1.26,-0.6,0.15,0.0,0.9886354231970448,0.8358229477586746,0.01073083802610586,0.28,0,0,0.0
8.309862047000024,525,4485.44,-95.7,-1.1,-102.1,0.84,0.04,-0.17,-0.1,-0.99,-0.08,-212.9,23.5,47.0,0.09000000000000008,1.26,-0.69,-0.05,0.0,0.9982484660644363,0.8579627031520659,0.0010954392555401204,0.28,0,0,0.0
8.317838326000128,526,4485.45,-95.6,-1.1,-102.1,0.91,-0.02,-0.19,-0.1,-0.99,-0.07,-212.6,26.6,36.0,0.08000000000000007,1.25,-0.77,-0.07,0.0,0.9974968671630001,0.9298386956886662,0.0018100973938367515,0.28,0,0,0.0
8.325716258999819,527,4485.46,-95.5,-1.1,-102.1,0.96,-0.05,-0.24,-0.09,-0.99,-0.07,-212.4,29.6,31.0,0.07000000000000006,1.24,-0.84,0.08,0.0,0.9965440281292142,0.9908077512817509,0.00270767769907021,0.28,0,0,0.0
8.33669139199992,528,4485.47,-95.4,-1.2,-102.1,0.96,-0.08,-0.29,-0.09,-0.98,-0.07,-212.0,31.4,20.0,0.06000000000000005,1.23,-0.87,0.12,0.0,0.986610358753647,1.0060318086422517,0.01238852013314462,0.28,0,0,0.0
8.34580898799959,529,4485.48,-95.3,-1.2,-102.1,0.84,-0.09,-0.32,-0.09,-0.97,-0.06,-211.7,31.7,1.0,0.050000000000000044,1.22,-0.86,0.01,0.0,0.976012295004525,0.9033825324855468,0.02252685220462125,0.28,0,0,0.0
8.356537675000254,530,4485.49,-95.2,-1.2,-102.1,0.71,-0.14,-0.36,-0.09,-0.97,-0.06,-211.4,32.2,5.0,0.040000000000000036,1.21,-0.87,0.05,0.0,0.976012295004525,0.8082697569499925,0.02207631516052888,0.28,0,0,0.0
8.3657184650001,531,4485.5,-95.1,-1.2,-102.2,0.58,-0.19,-0.38,-0.09,-0.98,-0.06,-211.1,32.7,10.0,0.040000000000000036,1.21,-0.92,0.05,0.0,0.9859513172565875,0.7189575787207476,0.011894547050297133,0.28,0,0,0.0
8.376547148999634,532,4485.51,-95.0,-1.2,-102.2,0.51,-0.24,-0.38,-0.09,-0.98,-0.06,-210.8,32.7,-3.0,0.030000000000000027,1.2,-0.89,0.14,0.0,0.9859513172565875,0.6797793759742936,0.01165665610929123,0.28,0,0,0.0
8.385811733999617,533,4485.52,-95.0,-1.2,-102.2,0.55,-0.3,-0.42,-0.1,-0.99,-0.05,-210.4,32.6,-5.0,0.020000000000000018,1.19,-0.84,0.06,0.0,0.9962931295557548,0.7542545989253231,0.0012885469339214417,0.28,0,0,0.0
8.396609071000057,534,4485.53,-94.9,-1.2,-102.3,0.58,-0.39,-0.47,-0.11,-0.99,-0.06,-210.1,31.0,-4.0,0.010000000000000009,1.18,-0.84,0.06,0.0,0.9978977903573091,0.8422588675698226,0.0003097915902802173,0.28,0,0,0.0
8.405818125999758,535,4485.54,-94.8,-1.2,-102.3,0.51,-0.49,-0.48,-0.11,-0.98,-0.05,-209.8,29.6,-17.0,0.0,1.17,-0.75,0.06,0.0,0.9874208829065749,0.854751425854324,0.009963773543244847,0.28,0,0,0.0
8.416422160000366,536,4485.55,-94.7,-1.2,-102.4,0.44,-0.62,-0.51,-0.11,-0.98,-0.03,-209.5,26.4,-31.0,-0.010000000000000009,1.16,-0.65,0.03,0.0,0.986610358753647,0.9154780172128657,0.010558811742249263,0.28,0,0,0.0
8.426429959000416,537,4485.56,-94.7,-1.2,-102.5,0.46,-0.77,-0.52,-0.11,-0.98,-0.03,-209.3,24.1,-17.0,-0.010000000000000009,1.16,-0.64,-0.1,0.0,0.986610358753647,1.0367738422626218,0.010347635507404251,0.28,0,0,0.0
8.43793560999984,538,4485.57,-94.6,-1.2,-102.5,0.46,-0.95,-0.52,-0.12,-0.98,-0.03,-209.1,22.0,-31.0,-0.020000000000000018,1.15,-0.54,-0.22,0.0,0.9877752780870758,1.176647780773839,0.008999061850495926,0.28,0,0,0.0
8.449931017000381,539,4485.58,-94.6,-1.2,-102.7,0.36,-1.13,-0.52,-0.12,-0.99,-0.03,-208.9,19.6,-20.0,-0.020000000000000018,1.15,-0.48,-0.11,0.0,0.9976973488989535,1.2949517365523704,0.0009045487821540688,0.28,0,0,0.0
8.457968296000217,540,4485.59,-94.5,-1.1,-102.8,0.22,-1.37,-0.51,-0.11,-1.01,-0.01,-208.7,16.6,-25.0,-0.030000000000000027,1.14,-0.41,0.0,0.0,1.0160216533125659,1.4783098457360015,0.018844276131851134,0.28,0,0,0.0
8.465704602999722,541,4485.6,-94.5,-1.1,-102.9,0.28,-1.69,-0.58,-0.09,-1.03,0.0,-208.5,15.9,0.0,-0.030000000000000027,1.14,-0.48,-0.14,0.0,1.0339245620450266,1.808562965450747,0.036012241167025616,0.28,0,0,0.0
8.476702693999869,542,4485.61,-94.5,-1.0,-103.1,0.43,-2.04,-0.7,-0.08,-1.02,0.0,-208.3,18.4,3.0,-0.040000000000000036,1.13,-0.47,0.0,0.0,1.023132444994293,2.199204401596177,0.02471572163396607,0.28,0,0,0.0
8.485849304999647,543,4485.62,-94.4,-1.0,-103.4,0.49,-2.33,-0.79,-0.07,-1.01,0.0,-208.2,15.9,-20.0,-0.040000000000000036,1.13,-0.38,0.13,0.0,1.0124228365658292,2.5086051901405293,0.013725990941392374,0.28,0,0,0.0
8.496745223999824,544,4485.63,-94.3,-1.0,-103.6,0.56,-2.72,-0.91,-0.06,-1.0,0.01,-208.0,15.0,3.0,-0.04999999999999982,1.12,-0.45,-0.12,0.0,1.0018482919085105,2.9223449488381763,0.0030884173583922703,0.28,0,0,0.0
8.506002252999679,545,4485.64,-94.1,-0.9,-103.9,0.64,-3.15,-1.01,-0.04,-0.99,0.0,-207.9,16.4,6.0,-0.04999999999999982,1.12,-0.45,0.0,0.0,0.9908077512817509,3.3693025984615863,0.007793080803000008,0.28,0,0,0.0
8.516459944999951,546,4485.65,-94.0,-0.9,-104.3,0.77,-3.54,-1.12,-0.03,-1.0,0.0,-207.7,14.0,-27.0,-0.04999999999999982,1.12,-0.29,0.06,0.0,1.0004498987955368,3.791952003915662,0.0018120853765701828,0.28,0,0,0.0
8.525923977000275,547,4485.66,-93.9,-0.8,-104.7,0.99,-3.97,-1.24,-0.04,-1.02,0.02,-207.6,11.8,-7.0,-0.05999999999999983,1.11,-0.32,-0.09,0.0,1.0209799214480175,4.2753479390571245,0.021895265868469904,0.28,0,0,0.0
8.536842081000032,548,4485.67,-93.7,-0.7,-105.1,1.31,-4.41,-1.36,-0.05,-1.02,0.02,-207.5,11.6,-8.0,-0.05999999999999983,1.11,-0.29,0.05,0.0,1.021420579389313,4.797270057022014,0.021889205333570083,0.28,0,0,0.0
8.545948201000101,549,4485.68,-93.5,-0.6,-105.6,1.71,-4.78,-1.47,-0.06,-1.01,0.02,-207.4,9.7,-20.0,-0.05999999999999983,1.11,-0.2,0.09,0.0,1.0119782606360672,5.2852057670444585,0.012197948848717832,0.28,0,0,0.0
8.556916122000075,550,4485.69,-93.3,-0.5,-106.1,2.07,-5.18,-1.5,-0.08,-0.99,0.03,-207.3,4.3,-51.0,-0.05999999999999983,1.11,0.0,0.01,0.0,0.9936800289831732,5.776443542526837,0.0059782771480926256,0.28,0,0,0.0
8.565942317000008,551,4485.7,-93.1,-0.4,-106.6,2.39,-5.6,-1.49,-0.07,-0.98,0.02,-207.3,-1.2,-30.0,-0.05999999999999983,1.11,0.0,0.0,0.0,0.982700361249552,6.268349064945251,0.01661878598407962,0.28,0,0,0.0
8.576644165000289,552,4485.71,-92.8,-0.3,-107.2,2.76,-5.99,-1.38,-0.06,-0.95,0.02,-207.3,0.2,-8.0,-0.05999999999999983,1.11,0.0,-0.01,0.0,0.9521029356114811,6.738108043063721,0.046271887389707445,0.28,0,0,0.0
8.585921693000273,553,4485.72,-92.4,-0.2,-107.8,3.0,-6.41,-1.17,-0.04,-0.92,0.02,-207.3,-0.3,-2.0,-0.05999999999999983,1.11,-0.03,-0.07,0.0,0.9210863151735564,7.173353469612382,0.07574273767107942,0.28,0,0,0.0
8.596793943999728,554,4485.73,-92.1,-0.1,-108.5,3.09,-6.78,-0.97,-0.04,-0.92,0.0,-207.3,0.2,-3.0,-0.05999999999999983,1.11,0.0,-0.05,0.0,0.9208691546577071,7.5138139449949115,0.07444070022319016,0.28,0,0,0.0
8.60597364000023,555,4485.74,-91.8,-0.1,-109.2,2.96,-7.02,-0.79,-0.04,-0.93,-0.03,-207.3,0.1,2.0,-0.05999999999999983,1.11,0.0,-0.11,0.0,0.9313431161500042,7.659379870459487,0.06268740395627526,0.28,0,0,0.0
8.61673576999965,556,4485.75,-91.5,-0.1,-109.9,2.74,-7.12,-0.67,-0.02,-0.97,-0.05,-207.3,0.0,-1.0,-0.05999999999999983,1.11,0.0,-0.03,0.0,0.9714936952960631,7.658387558748904,0.022086088314012042,0.28,0,0,0.0
8.625990427999568,557,4485.76,-91.3,0.0,-110.6,2.4,-7.16,-0.71,0.01,-1.03,-0.08,-207.3,0.6,9.0,-0.05999999999999983,1.11,-0.03,-0.03,0.0,1.0331505214633538,7.584833551238946,0.038779323096213125,0.28,0,0,0.0
8.63685561300008,558,4485.77,-91.1,0.0,-111.3,1.98,-7.09,-0.77,0.08,-1.05,-0.13,-207.3,2.1,15.0,-0.05999999999999983,1.11,-0.11,0.06,0.0,1.061037228376083,7.401445804705997,0.06533270940876335,0.28,0,0,0.0
8.645713290999993,559,4485.78,-90.9,0.0,-112.0,1.66,-6.86,-0.82,0.15,-1.07,-0.17,-207.2,6.6,43.0,-0.06999999999999984,1.1,-0.31,-0.05,0.0,1.0937549999885714,7.105462687256897,0.0960894714008268,0.28,0,0,0.0
8.656686921000073,560,4485.79,-90.7,0.1,-112.7,1.48,-6.46,-0.83,0.19,-1.09,-0.18,-207.1,17.7,107.0,-0.06999999999999984,1.1,-0.7,-0.3,0.0,1.120981712607302,6.679139166090192,0.12084986033916634,0.28,0,0,0.0
8.66601454099964,561,4485.8,-90.6,0.2,-113.3,1.3,-6.02,-0.87,0.2,-1.11,-0.16,-206.8,33.5,141.0,-0.07999999999999985,1.09,-1.15,0.01,0.0,1.1391663618629195,6.219911574934164,0.13625381940288817,0.28,0,0,0.0
8.676791605999824,562,4485.81,-90.5,0.2,-113.9,0.99,-5.68,-0.96,0.2,-1.14,-0.13,-206.4,51.0,173.0,-0.09999999999999987,1.07,-1.68,-0.14,0.0,1.1646887996370532,5.845006415736427,0.1585407320334813,0.28,0,0,0.0
8.685826347999864,563,4485.82,-90.4,0.3,-114.5,0.79,-5.38,-1.07,0.18,-1.14,-0.13,-205.7,70.9,186.0,-0.11999999999999988,1.05,-2.19,-0.35,0.0,1.1614215427655885,5.541967159772782,0.1521680056587762,0.28,0,0,0.0
8.696326561000205,564,4485.83,-90.3,0.4,-115.0,0.83,-5.09,-1.16,0.15,-1.12,-0.14,-204.9,89.0,179.0,-0.1399999999999999,1.03,-2.68,-0.16,0.0,1.138639539099183,5.286076049396187,0.1267982819525233,0.28,0,0,0.0
8.706366581999646,565,4485.84,-90.2,0.6,-115.5,1.1,-4.77,-1.17,0.11,-1.09,-0.13,-203.9,106.3,175.0,-0.16999999999999993,1.0,-3.16,0.0,0.0,1.1032225523438144,5.033070633321174,0.08955366929321151,0.28,0,0,0.0
8.718067787999644,566,4485.85,-90.1,0.7,-115.9,1.38,-4.5,-1.16,0.09,-1.05,-0.12,-202.7,125.1,182.0,-0.20999999999999996,0.96,-3.65,0.01,0.0,1.0606601717798212,4.847679857416329,0.046051462954634026,0.28,0,0,0.0
8.72597141999995,567,4485.86,-90.0,0.8,-116.4,1.53,-4.3,-1.13,0.09,-1.02,-0.11,-201.3,142.2,179.0,-0.2499999999999999,0.92,-4.15,0.07,0.0,1.0298543586352393,4.701893235708357,0.014940736813851219,0.28,0,0,0.0
8.736897986999793,568,4485.87,-89.8,0.9,-116.8,1.61,-4.11,-1.09,0.1,-0.99,-0.12,-199.7,160.3,172.0,-0.2899999999999999,0.88,-4.59,-0.3,0.0,1.0022474744293446,4.546680107507015,0.012412824444202553,0.28,0,0,0.0
8.746172508999734,569,4485.88,-89.7,1.0,-117.2,1.59,-3.88,-1.02,0.12,-0.98,-0.11,-198.0,175.3,157.0,-0.33999999999999997,0.83,-4.98,-0.02,0.0,0.9934284070832683,4.315425819082052,0.02080725395447336,0.28,0,0,0.0
8.75693045800017,570,4485.89,-89.5,1.1,-117.6,1.65,-3.64,-0.97,0.14,-0.97,-0.11,-196.2,187.7,114.0,-0.3899999999999999,0.78,-5.19,0.12,0.0,0.9862048468751307,4.11254179310071,0.02747019787935867,0.28,0,0,0.0
8.76604813799986,571,4485.9,-89.4,1.2,-117.9,1.79,-3.37,-0.91,0.17,-0.95,-0.11,-194.3,191.8,44.0,-0.44999999999999996,0.72,-5.16,0.0,0.0,0.9713392816107047,3.922894339642607,0.0414890478809089,0.28,0,0,0.0
8.776856468000005,572,4485.91,-89.2,1.3,-118.3,1.9,-3.08,-0.82,0.19,-0.93,-0.12,-192.4,186.4,-44.0,-0.4899999999999999,0.68,-4.88,0.07,0.0,0.9567653839891994,3.710633369116383,0.05494168659236598,0.28,0,0,0.0
8.786086404000343,573,4485.92,-89.0,1.4,-118.5,1.93,-2.74,-0.74,0.21,-0.9,-0.12,-190.6,171.0,-137.0,-0.5399999999999999,0.63,-4.33,0.05,0.0,0.931933474020544,3.432215028228855,0.078178124629801,0.28,0,0,0.0
8.796593035000114,574,4485.93,-88.8,1.5,-118.8,1.72,-2.29,-0.62,0.21,-0.89,-0.12,-189.1,148.3,-210.0,-0.58,0.59,-3.6,0.02,0.0,0.9222797840135064,2.9303412770528965,0.08607517834410183,0.28,0,0,0.0
8.806072706999657,575,4485.94,-88.7,1.5,-119.0,1.48,-1.9,-0.51,0.2,-0.86,-0.12,-187.8,118.9,-273.0,-0.6099999999999999,0.56,-2.76,0.16,0.0,0.8910667763978185,2.4618082784814903,0.11494242224059403,0.28,0,0,0.0
8.81648291900001,576,4485.95,-88.5,1.6,-119.2,1.16,-1.52,-0.4,0.19,-0.86,-0.11,-186.8,87.2,-306.0,-0.6299999999999999,0.54,-1.87,0.04,0.0,0.8875809822207774,1.9534584715319647,0.11605965208928248,0.28,0,0,0.0
