host_time_s,seq,device_time_s,roll,pitch,yaw,gyro_x,gyro_y,gyro_z,accel_x,accel_y,accel_z,belt_length,belt_velocity,belt_acceleration,motor_pos,motor_vel,motor_iq_meas,motor_iq_set,acc_mag,gyro_mag,acc_residual,threshold,heel_strike,hs_count,torque_cmd_nm
2.0707996460005234,3,5359.92,-92.3,-0.1,-107.7,0.73,0.24,-0.15,-0.1,-0.99,-0.06,-195.4,0.3,27.0,0.78,0.01,0.07,0.0,0.9968450230602548,0.7829431652425353,0.0,0.6,0,0,0.0
2.0822666129997742,4,5359.93,-92.3,-0.1,-107.7,0.89,0.12,-0.21,-0.08,-0.99,-0.07,-195.4,-0.1,11.0,0.78,0.0,0.0,0.0,0.9956907150315303,0.9222797840135064,0.0011312218681500674,0.6,0,0,0.0
2.0924230720002015,5,5359.94,-92.2,-0.1,-107.6,1.13,0.02,-0.28,-0.06,-0.98,-0.06,-195.4,0.0,3.0,0.78,0.0,0.0,0.0,0.983666610188635,1.164345309605359,0.012892220176824454,0.6,0,0,0.0
2.1012869090000095,6,5359.95,-92.1,-0.1,-107.7,1.24,-0.08,-0.35,-0.05,-0.96,-0.07,-195.4,0.0,-1.0,0.78,0.01,0.07,0.0,0.9638464608017192,1.2909298973995451,0.0320581221724654,0.6,0,0,0.0
2.1124587660006,7,5359.96,-92.0,-0.1,-107.7,1.17,-0.2,-0.45,-0.05,-0.93,-0.09,-195.4,-0.3,-2.0,0.78,0.01,0.07,0.0,0.9356815697661252,1.2694093114515899,0.05901855294389824,0.6,0,0,0.0
2.121368557000096,8,5359.97,-91.9,-0.1,-107.7,0.97,-0.3,-0.63,-0.06,-0.91,-0.11,-195.4,-1.3,-7.0,0.78,0.04,0.0,0.0,0.9185858696931932,1.1949058540320237,0.07459196795649359,0.6,0,0,0.0
2.1323788750005406,9,5359.98,-91.9,0.0,-107.7,0.58,-0.44,-0.76,-0.07,-0.89,-0.11,-195.4,-2.9,-18.0,0.78,0.11,0.08,0.0,0.899499861033897,1.0524257693538297,0.09180441708347398,0.6,0,0,0.0
2.1413240040001256,10,5359.99,-91.8,0.0,-107.8,0.15,-0.61,-0.84,-0.08,-0.89,-0.13,-195.5,-7.1,-45.0,0.79,0.28,0.08,0.0,0.9029950165975447,1.0489041900955491,0.08654307628942981,0.6,0,0,0.0
2.152383139000449,11,5360.0,-91.8,0.1,-107.9,-0.12,-0.77,-0.88,-0.09,-0.89,-0.14,-195.6,-17.1,-85.0,0.79,0.58,0.12,0.0,0.9054280755532159,1.1754573577973808,0.08242781698708335,0.6,0,0,0.0
2.1612665359998573,12,5360.01,-91.8,0.1,-108.0,-0.35,-0.9,-0.86,-0.1,-0.89,-0.15,-195.7,-20.9,-118.0,0.8,0.86,0.02,0.0,0.9080748867797193,1.2930970574554719,0.07818538564536837,0.6,0,0,0.0
2.172463847000472,13,5360.02,-91.9,0.2,-108.1,-0.7,-1.04,-0.74,-0.12,-0.89,-0.16,-196.2,-39.4,-145.0,0.81,1.22,-0.03,0.0,0.9121951545584969,1.4557472308062276,0.07258381550925896,0.6,0,0,0.0
2.181206704000033,14,5360.03,-92.0,0.3,-108.2,-1.03,-1.17,-0.58,-0.11,-0.91,-0.17,-196.7,-51.4,-124.0,0.83,1.53,0.04,0.0,0.9322553298319083,1.6631897065578538,0.05147316743113062,0.6,0,0,0.0
2.1922731499998918,15,5360.04,-92.1,0.3,-108.3,-1.07,-1.36,-0.51,-0.12,-0.95,-0.16,-197.3,-62.4,-114.0,0.84,1.83,-0.15,0.0,0.9708243919473799,1.8040509970618903,0.012646023209345825,0.6,0,0,0.0
2.201200450000215,16,5360.05,-92.2,0.4,-108.4,-0.98,-1.6,-0.51,-0.13,-0.95,-0.15,-198.0,-73.0,-101.0,0.86,2.08,0.05,0.0,0.9705153270299238,1.9443507913954212,0.012695986364265832,0.6,0,0,0.0
2.21237076000034,17,5360.06,-92.3,0.4,-108.6,-1.13,-1.86,-0.49,-0.14,-0.95,-0.14,-198.8,-80.7,-81.0,0.89,2.28,0.13,0.0,0.9704122835166504,2.23082944215823,0.012543049279988394,0.6,0,0,0.0
2.2211134850003873,18,5360.07,-92.4,0.5,-108.8,-1.32,-2.14,-0.48,-0.14,-0.99,-0.11,-199.6,-88.3,-69.0,0.91,2.45,-0.08,0.0,1.0058826969383656,2.5597656142701815,0.022468816858892238,0.6,0,0,0.0
2.232256469999811,19,5360.08,-92.6,0.5,-109.1,-1.5,-2.43,-0.45,-0.12,-1.02,-0.08,-200.5,-93.0,-49.0,0.93,2.55,0.0,0.0,1.030145620774073,2.890916809595185,0.04579710588070751,0.6,0,0,0.0
2.2412145759999476,20,5360.09,-92.8,0.5,-109.3,-1.68,-2.78,-0.34,-0.06,-1.05,-0.07,-201.5,-96.2,-36.0,0.96,2.64,-0.09,0.0,1.0540398474441086,3.2659454986266994,0.06829750589972838,0.6,0,0,0.0
2.2523466800003007,21,5360.1,-92.9,0.5,-109.6,-1.64,-2.96,-0.16,0.0,-1.07,-0.09,-202.5,-98.5,-31.0,0.99,2.73,-0.21,0.0,1.0737783756436894,3.387742611238345,0.08627531341732297,0.6,0,0,0.0
2.2612112100005106,22,5360.11,-93.1,0.5,-109.9,-1.45,-2.98,0.03,0.04,-1.08,-0.12,-203.5,-102.8,-30.0,1.02,2.8,0.17,0.0,1.087382177525455,3.3141816486125197,0.09788153299310687,0.6,0,0,0.0
2.2722172370004046,23,5360.12,-93.3,0.5,-110.2,-1.27,-2.87,0.31,0.07,-1.08,-0.12,-204.5,-106.2,-42.0,1.05,2.95,0.25,0.0,1.088898526034451,3.1537120984642844,0.09740992387206082,0.6,0,0,0.0
2.281265368000277,24,5360.13,-93.4,0.4,-110.5,-1.04,-2.72,0.67,0.1,-1.11,-0.09,-205.6,-111.3,-50.0,1.08,3.09,0.09,0.0,1.1181234278915724,2.9881265033462023,0.12410212921459851,0.6,0,0,0.0
2.292140806000134,25,5360.14,-93.5,0.4,-110.7,-0.77,-2.49,1.12,0.16,-1.15,-0.08,-206.8,-116.0,-51.0,1.11,3.23,0.04,0.0,1.1638298844762494,2.8367939650246017,0.16641241408329,0.6,0,0,0.0
2.301234567999927,26,5360.15,-93.6,0.2,-111.0,-0.07,-2.19,1.5,0.19,-1.21,-0.07,-208.0,-121.5,-49.0,1.14,3.36,-0.07,0.0,1.2268251709188231,2.655371913687422,0.2248195465153464,0.6,0,0,0.0
2.31232552199981,27,5360.16,-93.5,0.1,-111.2,0.88,-1.87,1.76,0.15,-1.2,-0.07,-209.2,-124.0,-25.0,1.17,3.38,-0.07,0.0,1.2113628688382354,2.7145717894356745,0.20517009954606347,0.6,0,0,0.0
2.321146822000628,28,5360.17,-93.4,0.0,-111.3,1.35,-1.64,1.92,0.07,-1.12,-0.01,-210.5,-126.5,-30.0,1.21,3.48,-0.04,0.0,1.1222299229658779,2.8633022893156075,0.11371641060023174,0.6,0,0,0.0
2.332150277999972,29,5360.18,-93.2,-0.1,-111.5,1.17,-1.72,1.87,-0.03,-1.05,0.04,-211.7,-127.6,-8.0,1.24,3.47,0.02,0.0,1.0511898020814319,2.7971771484838066,0.04182276392147011,0.6,0,0,0.0
2.341293322000638,30,5360.19,-93.1,-0.3,-111.6,0.5,-1.97,1.59,-0.14,-1.01,0.05,-213.0,-126.3,9.0,1.28,3.4,-0.04,0.0,1.0208819716304134,2.580503826774919,0.011284634801042692,0.6,0,0,0.0
2.352274308000233,31,5360.2,-93.1,-0.5,-111.9,-0.47,-2.3,1.22,-0.21,-1.02,0.05,-214.3,-122.1,40.0,1.31,3.25,0.14,0.0,1.0425929215182692,2.645619020191683,0.032335672995120524,0.6,0,0,0.0
2.361220847000368,32,5360.21,-93.2,-0.6,-112.1,-1.05,-2.65,0.79,-0.26,-1.07,0.05,-215.4,-117.4,39.0,1.34,3.15,0.17,0.0,1.1022703842524302,2.957887759871899,0.09017287301469579,0.6,0,0,0.0
2.3720935660003306,33,5360.22,-93.3,-0.7,-112.4,-1.08,-2.98,0.39,-0.26,-1.13,0.05,-216.6,-112.8,48.0,1.37,3.0,-0.06,0.0,1.1606032913963322,3.1935716682110016,0.14553566455542577,0.6,0,0,0.0
2.380743493000409,34,5360.23,-93.4,-0.7,-112.7,-0.71,-3.33,0.0,-0.21,-1.15,0.09,-217.7,-107.9,46.0,1.4,2.87,0.17,0.0,1.1724760125478046,3.404849482723135,0.15426021799276013,0.6,0,0,0.0
2.392046523999852,35,5360.24,-93.5,-0.7,-113.1,-0.24,-3.76,-0.31,-0.13,-1.13,0.08,-218.7,-105.0,30.0,1.43,2.82,-0.02,0.0,1.140263127528028,3.7803835784216395,0.11960638631352372,0.6,0,0,0.0
2.4053571550002744,36,5360.25,-93.5,-0.7,-113.5,0.0,-4.11,-0.5,-0.05,-1.08,0.07,-219.8,-101.4,34.0,1.46,2.72,0.02,0.0,1.0834205093129814,4.14030192135791,0.061508492736507714,0.6,0,0,0.0
2.4131956540004467,37,5360.26,-93.4,-0.7,-113.9,0.11,-4.34,-0.57,0.0,-1.04,0.07,-220.8,-99.5,15.0,1.49,2.71,-0.22,0.0,1.0423531071570709,4.378652760838658,0.02003226876898534,0.6,0,0,0.0
2.4253433399999267,38,5360.27,-93.4,-0.6,-114.3,0.26,-4.44,-0.58,0.04,-1.02,0.06,-221.8,-100.9,-3.0,1.51,2.75,-0.19,0.0,1.0225458424931373,4.4852647636455085,0.00022050402295081817,0.6,0,0,0.0
2.4333186559997557,39,5360.28,-93.3,-0.6,-114.8,0.43,-4.48,-0.57,0.06,-1.0,0.07,-222.8,-102.3,-16.0,1.54,2.82,0.06,0.0,1.0042410069301093,4.536540532167656,0.017722644909275553,0.6,0,0,0.0
2.445309876000465,40,5360.29,-93.3,-0.6,-115.2,0.61,-4.57,-0.58,0.07,-0.99,0.09,-223.8,-105.5,-31.0,1.57,2.92,0.0,0.0,0.9965440281292142,4.64686991425411,0.02491123123596739,0.6,0,0,0.0
2.453362551999817,41,5360.3,-93.2,-0.5,-115.7,0.82,-4.64,-0.66,0.06,-0.96,0.09,-224.9,-109.4,-31.0,1.6,3.0,-0.06,0.0,0.9660745312862771,4.757898695853034,0.05427311351732644,0.6,0,0,0.0
2.4611881680002625,42,5360.31,-93.1,-0.5,-116.2,0.83,-4.63,-0.68,0.04,-0.92,0.07,-226.0,-112.1,-29.0,1.63,3.08,-0.05,0.0,0.9235258523723091,4.7527044932333,0.09488535658266861,0.6,0,0,0.0
2.4720692649998455,43,5360.32,-93.0,-0.4,-116.6,0.75,-4.52,-0.64,0.03,-0.9,0.06,-227.2,-116.5,-36.0,1.66,3.2,0.15,0.0,0.9024965373894794,4.626283605660163,0.11359637813418832,0.6,0,0,0.0
2.4810515740000483,44,5360.33,-92.9,-0.4,-117.1,0.72,-4.41,-0.61,0.04,-0.9,0.06,-228.4,-119.2,-24.0,1.69,3.25,0.25,0.0,0.902884267223657,4.5098336998164354,0.11094447533401053,0.6,0,0,0.0
2.492419424000218,45,5360.34,-92.9,-0.4,-117.5,0.71,-4.39,-0.58,0.06,-0.91,0.07,-229.6,-119.4,6.0,1.73,3.19,0.07,0.0,0.91465840618233,4.484707348311593,0.09718692964783071,0.6,0,0,0.0
2.5013208860000304,46,5360.35,-92.8,-0.3,-118.0,0.69,-4.4,-0.58,0.07,-0.91,0.06,-230.7,-113.8,47.0,1.76,2.99,-0.07,0.0,0.91465840618233,4.4913806340589755,0.09524319105487411,0.6,0,0,0.0
2.5124401940001917,47,5360.36,-92.7,-0.3,-118.4,0.62,-4.42,-0.58,0.07,-0.92,0.05,-231.8,-103.8,95.0,1.79,2.65,-0.12,0.0,0.9240129869217207,4.500799928901528,0.08417083810917358,0.6,0,0,0.0
2.521359119000408,48,5360.37,-92.7,-0.3,-118.8,0.39,-4.37,-0.55,0.06,-0.94,0.03,-232.7,-85.7,175.0,1.81,2.04,-0.24,0.0,0.9423905772024675,4.421707814860679,0.06447738287185822,0.6,0,0,0.0
2.5323839570000928,49,5360.38,-92.6,-0.2,-119.3,0.19,-4.27,-0.5,0.06,-0.98,0.02,-233.4,-59.2,248.0,1.82,1.23,-0.02,0.0,0.9820386957752734,4.303370771848505,0.024332679013071346,0.6,0,0,0.0
2.5413956030006375,50,5360.39,-92.6,-0.1,-119.7,0.15,-4.09,-0.5,0.06,-1.01,0.0,-233.8,-27.3,299.0,1.83,0.34,0.0,0.0,1.0117806086301517,4.123178385663176,0.0053010491649709834,0.6,0,0,0.0
2.5522113590004665,51,5360.4,-92.5,-0.1,-120.1,0.15,-3.85,-0.5,0.06,-1.02,-0.01,-233.8,3.7,281.0,1.83,-0.38,-0.11,0.0,1.0218121158021176,3.8852284360124827,0.015025905210198198,0.6,0,0,0.0
2.5613430270004756,52,5360.41,-92.5,0.0,-120.5,0.04,-3.62,-0.47,0.08,-1.03,-0.01,-233.6,22.4,200.0,1.82,-0.79,-0.14,0.0,1.0331505214633538,3.6506026899677813,0.025837024654005836,0.6,0,0,0.0
2.5723907170004168,53,5360.42,-92.5,0.0,-120.8,-0.07,-3.37,-0.54,0.08,-1.02,-0.03,-233.3,38.0,170.0,1.81,-1.22,0.28,0.0,1.0235721762533407,3.4137076617660163,0.015933505855112884,0.6,0,0,0.0
2.5812982150000607,54,5360.43,-92.5,0.1,-121.2,-0.18,-3.13,-0.6,0.09,-0.99,-0.05,-232.8,57.0,191.0,1.79,-1.79,0.03,0.0,0.995339138183564,3.192068295008739,0.01205354157037053,0.6,0,0,0.0
2.5923021070002505,55,5360.44,-92.6,0.2,-121.5,-0.32,-2.89,-0.64,0.09,-0.98,-0.05,-232.1,77.8,198.0,1.77,-2.34,0.09,0.0,0.985393322486001,2.9772638445391433,0.021559370122574917,0.6,0,0,0.0
2.6012889590001578,56,5360.45,-92.6,0.3,-121.7,-0.4,-2.69,-0.69,0.08,-0.98,-0.05,-231.2,97.3,202.0,1.74,-2.9,-0.18,0.0,0.9845303448853163,2.8057441080754315,0.021973900768794352,0.6,0,0,0.0
2.6124861790003706,57,5360.46,-92.6,0.4,-122.0,-0.41,-2.53,-0.73,0.07,-0.97,-0.05,-230.1,118.2,202.0,1.71,-3.46,0.0,0.0,0.9738069623903908,2.664939023692662,0.032043337598445576,0.6,0,0,0.0
2.6213447930003895,58,5360.47,-92.7,0.5,-122.2,-0.43,-2.34,-0.77,0.07,-0.98,-0.07,-228.7,140.8,222.0,1.67,-4.11,-0.17,0.0,0.9849873095629201,2.500679907545146,0.02044573061739785,0.6,0,0,0.0
2.632333256000493,59,5360.48,-92.8,0.6,-122.5,-0.44,-2.21,-0.83,0.07,-0.98,-0.07,-227.2,161.7,216.0,1.63,-4.67,0.1,0.0,0.9849873095629201,2.401374606345291,0.020036816005049807,0.6,0,0,0.0
2.6412527500006036,60,5360.49,-92.8,0.7,-122.7,-0.49,-2.08,-0.88,0.07,-0.99,-0.07,-225.4,183.9,210.0,1.58,-5.23,-0.15,0.0,0.9949371839468057,2.3110387274989574,0.009885202788740832,0.6,0,0,0.0
2.6524352619999263,61,5360.5,-92.9,0.8,-122.9,-0.49,-2.0,-0.9,0.07,-0.99,-0.07,-223.4,203.0,199.0,1.52,-5.76,-0.2,0.0,0.9949371839468057,2.247242755022252,0.009687498732966038,0.6,0,0,0.0
2.661283633000494,62,5360.51,-93.0,0.9,-123.1,-0.36,-1.9,-0.92,0.08,-0.98,-0.09,-221.2,222.9,201.0,1.46,-6.3,0.08,0.0,0.9873702446397703,2.141494805036893,0.016909349279201402,0.6,0,0,0.0
2.6722460979999596,63,5360.52,-93.0,1.1,-123.3,-0.25,-1.77,-0.84,0.08,-0.95,-0.1,-218.9,244.0,203.0,1.39,-6.86,-0.01,0.0,0.9585927185202274,1.9750949344272037,0.04477313789076942,0.6,0,0,0.0
2.681303477000256,64,5360.53,-93.1,1.2,-123.5,-0.16,-1.62,-0.75,0.08,-0.95,-0.11,-216.3,260.1,158.0,1.32,-7.21,-0.07,0.0,0.9596874491208062,1.7923448328934921,0.04280483914438682,0.6,0,0,0.0
2.6924366049997843,65,5360.54,-93.1,1.3,-123.6,-0.1,-1.44,-0.74,0.08,-0.94,-0.12,-213.6,270.6,118.0,1.25,-7.47,-0.07,0.0,0.9509994742374992,1.622097407679329,0.050462957747139825,0.6,0,0,0.0
2.701257044000158,66,5360.55,-93.2,1.4,-123.8,-0.05,-1.3,-0.74,0.07,-0.92,-0.11,-210.9,280.4,106.0,1.17,-7.75,-0.01,0.0,0.9291931984253867,1.4966963619919706,0.07082384888806725,0.6,0,0,0.0
2.7123978549998355,67,5360.56,-93.2,1.5,-123.9,0.0,-1.19,-0.74,0.08,-0.91,-0.12,-208.0,286.7,51.0,1.09,-7.78,0.15,0.0,0.9213576938409967,1.4013208055259865,0.07708616640300814,0.6,0,0,0.0
2.721367768000164,68,5360.57,-93.3,1.6,-124.0,0.0,-1.04,-0.7,0.1,-0.91,-0.14,-205.2,279.5,-50.0,1.02,-7.46,0.08,0.0,0.9261209424259879,1.2536347155371856,0.07087645946165666,0.6,0,0,0.0
2.732223779999913,69,5360.58,-93.3,1.6,-124.1,0.01,-0.84,-0.58,0.12,-0.92,-0.16,-202.5,269.9,-69.0,0.94,-7.26,0.11,0.0,0.9414881836751856,1.0208329931972222,0.054399033848209766,0.6,0,0,0.0
2.7413937970004554,70,5360.59,-93.3,1.7,-124.2,-0.05,-0.62,-0.58,0.13,-0.96,-0.18,-199.8,263.5,-75.0,0.87,-7.04,-0.15,0.0,0.9853425800197615,0.8504704580407247,0.010333744753561191,0.6,0,0,0.0
2.7522404709998227,71,5360.6,-93.3,1.7,-124.2,-0.02,-0.38,-0.6,0.12,-0.97,-0.19,-197.2,250.2,-130.0,0.8,-6.59,0.05,0.0,0.9956907150315303,0.7104927867332644,1.4102453043451924e-05,0.6,0,0,0.0
2.761299200000394,72,5360.61,-93.3,1.8,-124.3,0.0,-0.2,-0.58,0.11,-0.98,-0.19,-194.9,233.1,-151.0,0.74,-6.14,0.07,0.0,1.004290794541103,0.6135144660071187,0.008441898323363839,0.6,0,0,0.0
2.772396770999876,73,5360.62,-93.3,1.8,-124.3,0.12,-0.06,-0.61,0.08,-0.99,-0.19,-192.6,219.8,-131.0,0.68,-5.83,-0.04,0.0,1.011236866416568,0.6245798587850876,0.015080210794852333,0.6,0,0,0.0
2.781170299999758,74,5360.63,-93.2,1.9,-124.3,0.2,0.0,-0.6,0.06,-0.97,-0.18,-190.5,210.9,-86.0,0.62,-5.68,-0.13,0.0,0.9883825170448939,0.6324555320336759,0.007618655805285424,0.6,0,0,0.0
2.792190973000288,75,5360.64,-93.2,2.0,-124.3,0.31,0.03,-0.55,0.05,-0.94,-0.19,-188.4,206.3,-61.0,0.57,-5.54,0.08,0.0,0.9603124491539199,0.6320601237224194,0.03497494922233424,0.6,0,0,0.0
2.8012418939997588,76,5360.65,-93.2,2.0,-124.3,0.36,0.08,-0.49,0.04,-0.93,-0.19,-186.4,200.9,-57.0,0.51,-5.39,0.11,0.0,0.9500526301210898,0.6132699242584785,0.04433007289006108,0.6,0,0,0.0
2.8123937880000085,77,5360.66,-93.1,2.1,-124.3,0.39,0.16,-0.41,0.05,-0.93,-0.19,-184.4,194.9,-59.0,0.46,-5.21,0.14,0.0,0.9505261700763425,0.5880476171195662,0.04297940227611208,0.6,0,0,0.0
2.821311696000521,78,5360.67,-93.1,2.1,-124.3,0.38,0.23,-0.36,0.06,-0.94,-0.19,-182.5,189.0,-58.0,0.41,-5.06,0.02,0.0,0.9608850087289321,0.5717516943569122,0.031968152351052104,0.6,0,0,0.0
2.8322369070001514,79,5360.68,-93.1,2.1,-124.2,0.42,0.28,-0.3,0.06,-0.94,-0.19,-180.7,182.6,-69.0,0.36,-4.85,-0.06,0.0,0.9608850087289321,0.587196730236128,0.031328789304031046,0.6,0,0,0.0
2.8413607330003288,80,5360.69,-93.0,2.2,-124.2,0.51,0.35,-0.2,0.08,-0.94,-0.2,-178.9,175.5,-65.0,0.31,-4.69,-0.05,0.0,0.9643650760992954,0.6500769185258003,0.02729174749499441,0.6,0,0,0.0
2.8524138120001226,81,5360.7,-93.0,2.2,-124.2,0.63,0.47,-0.04,0.09,-0.93,-0.22,-177.2,170.2,-48.0,0.27,-4.6,0.04,0.0,0.9598958276813168,0.78701969479804,0.031125775994713667,0.6,0,0,0.0
2.861188021000089,82,5360.71,-92.9,2.2,-124.1,0.7,0.65,0.15,0.1,-0.91,-0.24,-175.5,168.3,-23.0,0.22,-4.56,0.16,0.0,0.9464142856064675,0.9669539802906858,0.04371517170817174,0.6,0,0,0.0
2.872217866000028,83,5360.72,-92.8,2.2,-124.0,0.8,0.85,0.36,0.11,-0.88,-0.26,-173.8,170.5,14.0,0.18,-4.67,-0.02,0.0,0.9241753080449617,1.2215154522149934,0.06463506628428395,0.6,0,0,0.0
2.881169353000587,84,5360.73,-92.7,2.1,-123.9,0.73,1.08,0.58,0.12,-0.88,-0.26,-172.1,174.6,39.0,0.13,-4.82,0.49,0.0,0.9254188241007419,1.4267795905464866,0.06212371922393367,0.6,0,0,0.0
2.8922292530005507,85,5360.74,-92.7,2.1,-123.8,0.64,1.32,0.74,0.12,-0.89,-0.27,-170.3,179.2,39.0,0.08,-4.92,-0.12,0.0,0.9377632963600143,1.6430459518832699,0.0487836620253681,0.6,0,0,0.0
2.9013065690005533,86,5360.75,-92.6,2.0,-123.7,0.58,1.57,0.83,0.12,-0.89,-0.27,-168.5,183.5,38.0,0.03,-5.02,-0.01,0.0,0.9377632963600143,1.8682076972328316,0.0478079887848607,0.6,0,0,0.0
2.9124817010006154,87,5360.76,-92.5,1.9,-123.5,0.57,1.78,0.86,0.12,-0.88,-0.25,-166.6,186.3,32.0,-0.01,-5.11,0.04,0.0,0.9226592003551474,2.0574012734515357,0.06165384309393307,0.6,0,0,0.0
2.9213425320003807,88,5360.77,-92.5,1.8,-123.3,0.48,1.92,0.89,0.12,-0.87,-0.22,-164.7,187.7,17.0,-0.06,-5.11,-0.04,0.0,0.9053728513711906,2.17,0.07736138823633198,0.6,0,0,0.0
2.9322754940003506,89,5360.78,-92.4,1.7,-123.1,0.31,2.03,0.88,0.12,-0.88,-0.2,-162.8,188.0,-3.0,-0.11,-5.07,1.06,0.0,0.9103845341392833,2.234144131429304,0.07090271135887449,0.6,0,0,0.0
2.9413951610004005,90,5360.79,-92.4,1.7,-122.9,0.08,2.09,0.8,0.11,-0.9,-0.17,-161.0,181.4,-61.0,-0.16,-4.8,0.11,0.0,0.922496612459905,2.239307928803004,0.057614820377487774,0.6,0,0,0.0
2.9521608960003505,91,5360.8,-92.4,1.6,-122.7,-0.24,2.04,0.66,0.09,-0.93,-0.12,-159.3,170.1,-103.0,-0.21,-4.46,0.13,0.0,0.942019108086455,2.1574985515638243,0.037330478255919064,0.6,0,0,0.0
2.961130229000446,92,5360.81,-92.5,1.6,-122.5,-0.43,1.84,0.5,0.05,-0.95,-0.09,-157.7,156.6,-137.0,-0.25,-4.04,0.04,0.0,0.9555626614722866,1.9546099355114308,0.02331118637268559,0.6,0,0,0.0
2.972304670000085,93,5360.82,-92.5,1.5,-122.3,-0.38,1.52,0.41,0.03,-0.95,-0.05,-156.2,135.7,-212.0,-0.29,-3.34,0.1,0.0,0.9517877914745492,1.6195369708654384,0.026544335243014583,0.6,0,0,0.0
2.9812743180000325,94,5360.83,-92.5,1.5,-122.2,-0.26,1.09,0.39,0.02,-0.95,-0.02,-155.1,99.1,-344.0,-0.31,-2.19,0.12,0.0,0.9504209593648489,1.1865074799595663,0.027352944005660573,0.6,0,0,0.0
2.9924058100004913,95,5360.84,-92.5,1.5,-122.1,0.12,0.63,0.44,0.01,-0.94,-0.05,-154.4,63.6,-353.0,-0.33,-1.21,0.25,0.0,0.9413819628609844,0.7777531742140305,0.03566410169933465,0.6,0,0,0.0
3.001312295000389,96,5360.85,-92.5,1.4,-122.0,0.33,0.43,0.5,-0.05,-0.94,-0.12,-154.1,6.2,-548.0,-0.33,0.58,0.32,0.0,0.9489467845985885,0.7374279625834649,0.027537294362495968,0.6,0,0,0.0
3.0124981529997967,97,5360.86,-92.5,1.3,-122.0,0.56,0.54,0.69,0.01,-0.9,-0.21,-154.4,-39.7,-403.0,-0.32,1.41,0.07,0.0,0.9242294087508793,1.039855759228173,0.05120957680600102,0.6,0,0,0.0
3.021360986000218,98,5360.87,-92.4,1.3,-121.9,0.34,0.88,0.75,-0.03,-1.02,-0.21,-155.0,-62.7,-271.0,-0.3,1.94,0.22,0.0,1.0418253212511202,1.2051970793193951,0.06505860898035498,0.6,0,0,0.0
3.0323050599999988,99,5360.88,-92.4,1.2,-121.8,-0.37,1.11,0.48,-0.04,-1.08,-0.19,-155.7,-87.1,-285.0,-0.27,2.76,0.14,0.0,1.0973149046650192,1.2646738710039043,0.11813722854636899,0.6,0,0,0.0
3.0414014180005324,100,5360.89,-92.5,1.2,-121.7,-0.91,1.33,0.12,0.05,-1.06,-0.21,-156.8,-120.5,-324.0,-0.24,3.7,0.18,0.0,1.0817578287213827,1.6159826731744373,0.1005285495506778,0.6,0,0,0.0
3.052403788000447,101,5360.9,-92.6,1.2,-121.5,-1.32,1.28,-0.03,0.15,-1.01,-0.18,-158.3,-154.3,-321.0,-0.2,4.57,0.15,0.0,1.036822067666386,1.838939912014528,0.054480932725767484,0.6,0,0,0.0
3.0613043920002383,102,5360.91,-92.8,1.2,-121.4,-2.1,1.29,-0.16,0.17,-0.99,-0.23,-160.0,-181.9,-271.0,-0.14,5.22,0.16,0.0,1.0304853225543777,2.469757073074192,0.047181303861484114,0.6,0,0,0.0
3.0724509649999163,103,5360.92,-93.1,1.2,-121.3,-3.12,1.53,-0.4,0.17,-1.03,-0.23,-162.0,-203.0,-215.0,-0.09,5.71,-0.01,0.0,1.0689714682815439,3.497899369621716,0.08395410059687725,0.6,0,0,0.0
3.081273350000629,104,5360.93,-93.4,1.3,-121.1,-3.77,1.65,-0.83,0.14,-1.11,-0.16,-164.1,-216.6,-144.0,-0.03,5.99,0.07,0.0,1.13017697729161,4.19813053632209,0.14225641741480444,0.6,0,0,0.0
3.092224028000601,105,5360.94,-93.8,1.5,-121.0,-4.08,1.61,-1.25,0.11,-1.22,-0.08,-166.3,-223.0,-81.0,0.02,6.11,0.07,0.0,1.2275585525749881,4.560811331331302,0.234845232844219,0.6,0,0,0.0
3.1013534710000386,106,5360.95,-94.2,1.7,-120.8,-4.27,1.53,-1.87,0.08,-1.42,0.0,-168.6,-226.4,-43.0,0.08,6.17,-0.08,0.0,1.422251735804882,4.906189967785593,0.4209476477526306,0.6,0,0,0.0
3.1122816260003674,107,5360.96,-94.6,1.9,-120.7,-4.44,1.26,-2.67,-0.03,-1.56,0.04,-170.9,-224.6,22.0,0.14,5.99,0.03,0.0,1.5608010763707207,5.331988372080344,0.5483070485521,0.6,0,0,0.0
3.1212581119998504,108,5360.97,-95.0,2.2,-120.6,-4.26,0.92,-3.27,-0.16,-1.62,0.05,-173.0,-214.4,86.0,0.2,5.66,0.08,0.0,1.6286497474902333,5.448568619371513,0.6038326052781804,0.6,0,1,0.0
3.132262641000125,109,5360.98,-95.4,2.6,-120.6,-2.7,0.49,-3.27,-0.16,-1.48,0.03,-175.1,-199.8,129.0,0.26,5.24,0.34,0.0,1.4889257872708095,4.268840592010903,0.45482647215758143,0.6,0,1,0.0
3.141418492000412,110,5360.99,-95.5,2.8,-120.6,-0.97,0.31,-2.47,-0.05,-1.22,0.0,-177.0,-184.8,142.0,0.3,4.82,0.06,0.0,1.221024160285127,2.6716848616556557,0.18318634826846103,0.6,0,1,0.0
3.1521414280005047,111,5361.0,-95.6,3.0,-120.5,-0.15,0.5,-1.16,0.11,-0.99,-0.06,-178.7,-168.9,153.0,0.35,4.4,-0.14,0.0,0.9978977903573091,1.2720455966670376,0.03914122122616981,0.6,0,1,0.0
3.1614162020005097,112,5361.01,-95.6,3.1,-120.5,-0.35,1.14,0.05,0.31,-0.89,-0.13,-179.9,-156.9,201.0,0.39,3.96,-0.08,0.0,0.9513674369033239,1.1935660853090624,0.08395814318655181,0.6,0,1,0.0
3.172270158000174,113,5361.02,-95.6,3.1,-120.3,-1.16,2.05,0.9,0.43,-0.91,-0.15,-181.7,-137.2,173.0,0.43,3.54,-0.08,0.0,1.0175952043912158,2.521527314942275,0.01737576818468689,0.6,0,1,0.0
3.1813214640005754,114,5361.03,-95.8,3.0,-120.0,-1.64,3.02,1.21,0.45,-0.98,-0.11,-183.0,-121.9,159.0,0.46,3.13,-0.07,0.0,1.08397416943394,3.643363830308469,0.04802313292087668,0.6,0,1,0.0
3.192420989999846,115,5361.04,-95.9,2.9,-119.7,-1.31,4.03,1.3,0.41,-0.99,-0.08,-184.1,-107.1,144.0,0.49,2.76,-0.21,0.0,1.0745231500530827,4.432493654817794,0.037800671269219155,0.6,0,1,0.0
3.2013090999998894,116,5361.05,-96.0,2.8,-119.2,-0.72,4.92,1.27,0.31,-0.99,-0.04,-185.1,-95.2,125.0,0.51,2.45,-0.18,0.0,1.0381714694596458,5.132026890030877,0.0014200108622666185,0.6,0,1,0.0
3.212452050000138,117,5361.06,-96.0,2.7,-118.7,-0.01,5.49,1.1,0.21,-0.97,0.03,-186.0,-86.3,90.0,0.54,2.26,-0.13,0.0,0.9929249719893241,5.599124931629942,0.04294995687589398,0.6,0,1,0.0
3.2213230060006026,118,5361.07,-95.9,2.7,-118.1,0.49,5.84,0.84,0.08,-0.95,0.05,-186.8,-78.9,78.0,0.56,2.06,-0.06,0.0,0.9546727187890098,5.920413836886742,0.07957816587468414,0.6,0,1,0.0
3.2324311070005933,119,5361.08,-95.9,2.7,-117.5,0.64,5.96,0.54,-0.04,-0.94,0.08,-187.5,-70.2,98.0,0.58,1.75,-0.12,0.0,0.9442457307290301,6.018538028458406,0.08820505085597052,0.6,0,1,0.0
3.2413956139998845,120,5361.09,-95.8,2.7,-116.9,0.74,5.94,0.24,-0.14,-0.93,0.08,-188.1,-56.4,129.0,0.59,1.35,-0.08,0.0,0.9438749917229505,5.990726166334095,0.08680427406480895,0.6,0,1,0.0
3.252461339000547,121,5361.1,-95.6,2.8,-116.3,0.81,5.8,0.0,-0.22,-0.93,0.09,-188.6,-41.7,140.0,0.6,0.96,-0.09,0.0,0.9598958276813168,5.8562872197323115,0.06936776934431377,0.6,0,1,0.0
3.2613094630005435,122,5361.11,-95.5,2.8,-115.7,1.03,5.46,-0.16,-0.25,-0.89,0.11,-188.9,-28.7,124.0,0.61,0.65,-0.05,0.0,0.9309672389509741,5.558605940341517,0.09633043091316329,0.6,0,1,0.0
3.272462054999778,123,5361.12,-95.4,2.9,-115.2,1.23,4.92,-0.16,-0.23,-0.87,0.12,-189.1,-19.6,108.0,0.62,0.38,-0.07,0.0,0.9078546139112804,5.073943239729825,0.11705419483379975,0.6,0,1,0.0
3.2813354390000313,124,5361.13,-95.2,3.0,-114.8,1.07,4.35,-0.19,-0.19,-0.88,0.1,-189.3,-10.6,83.0,0.62,0.22,-0.08,0.0,0.9058145505565695,4.483692674570816,0.11671237302474047,0.6,0,1,0.0
3.2924843130003865,125,5361.14,-95.2,3.0,-114.4,0.35,3.7,-0.16,-0.14,-0.88,0.07,-189.3,-3.7,66.0,0.62,0.05,-0.1,0.0,0.8938120607823549,3.7199596772008166,0.12614056554297604,0.6,0,1,0.0
3.30133444600051,126,5361.15,-95.1,3.1,-114.0,-0.37,3.24,-0.03,-0.1,-0.93,0.03,-189.3,-1.8,16.0,0.62,0.09,-0.15,0.0,0.9358418669839473,3.261196099592909,0.08242854415455592,0.6,0,1,0.0
3.312592115999905,127,5361.16,-95.2,3.1,-113.7,-0.61,2.86,0.14,-0.07,-0.98,0.0,-189.4,-6.4,-38.0,0.62,0.28,0.09,0.0,0.9824968193332739,2.9276782610116157,0.03505811996912467,0.6,0,1,0.0
3.321373864000634,128,5361.17,-95.2,3.1,-113.4,-0.52,2.61,0.45,-0.05,-1.04,-0.03,-189.5,-16.8,-83.0,0.63,0.57,0.08,0.0,1.041633332799983,2.6990739152531558,0.023596825627632656,0.6,0,1,0.0
3.332455642000241,129,5361.18,-95.2,3.0,-113.2,-0.12,2.51,0.71,-0.03,-1.09,-0.05,-189.8,-27.1,-102.0,0.63,0.89,0.1,0.0,1.0915585188161008,2.611244913829417,0.07205157141087559,0.6,0,1,0.0
3.341327920000367,130,5361.19,-95.2,2.9,-112.9,0.65,2.47,0.84,-0.02,-1.08,-0.05,-190.1,-40.6,-121.0,0.65,1.25,0.04,0.0,1.0813417591122614,2.688679973518604,0.0605981154728954,0.6,0,1,0.0
3.352481577000617,131,5361.2,-95.0,2.8,-112.7,1.15,2.45,0.88,-0.02,-1.03,-0.04,-190.6,-52.5,-120.0,0.66,1.57,-0.16,0.0,1.030970416646375,2.845944482944107,0.010022237546868817,0.6,0,1,0.0
3.361311804000252,132,5361.21,-94.9,2.7,-112.4,1.17,2.39,0.87,-0.02,-0.99,-0.04,-191.2,-64.7,-119.0,0.68,1.89,0.0,0.0,0.9910095862301231,2.7996249748850293,0.029339821011995282,0.6,0,1,0.0
3.372333362000063,133,5361.22,-94.7,2.6,-112.2,1.07,2.41,0.73,-0.03,-0.99,-0.05,-191.9,-74.1,-91.0,0.7,2.09,-0.06,0.0,0.9917156850630123,2.7360372804477646,0.02806104773552398,0.6,0,1,0.0
3.3813261010000133,134,5361.23,-94.6,2.5,-111.9,0.8,2.33,0.78,-0.02,-0.96,-0.04,-192.7,-79.5,-54.0,0.72,2.18,-0.08,0.0,0.9610411021387171,2.5840472131909666,0.05756091804662278,0.6,0,1,0.0
3.3924744989999454,135,5361.24,-94.5,2.4,-111.7,0.61,2.19,0.88,-0.02,-0.97,-0.04,-193.5,-81.0,-32.0,0.74,2.23,0.06,0.0,0.9710303805751909,2.4377448594961697,0.0466202068179461,0.6,0,1,0.0
3.4013380910000706,136,5361.25,-94.4,2.3,-111.5,0.57,2.04,0.99,-0.02,-0.97,-0.05,-194.3,-82.1,-10.0,0.77,2.22,0.0,0.0,0.9714936952960631,2.3380761322078456,0.04523375425513243,0.6,0,1,0.0
3.412320594999983,137,5361.26,-94.4,2.1,-111.3,0.55,1.86,1.08,-0.02,-0.98,-0.07,-195.2,-82.4,0.0,0.79,2.21,0.04,0.0,0.982700361249552,2.220022522408275,0.033346546535610644,0.6,0,1,0.0
3.421332521000295,138,5361.27,-94.3,2.0,-111.1,0.7,1.71,1.11,-0.04,-1.0,-0.07,-195.9,-79.1,27.0,0.81,2.09,0.07,0.0,1.0032447358446492,2.155504581298773,0.012546128501703002,0.6,0,1,0.0
3.4323980300005132,139,5361.28,-94.2,1.8,-110.9,1.05,1.57,1.15,-0.06,-0.99,-0.08,-196.7,-75.2,28.0,0.83,2.02,-0.16,0.0,0.9950376877284598,2.2113118278524175,0.02033811308553457,0.6,0,1,0.0
3.4412620510001943,140,5361.29,-94.1,1.7,-110.8,1.37,1.43,1.28,-0.07,-0.98,-0.09,-197.4,-71.3,43.0,0.85,1.86,0.01,0.0,0.986610358753647,2.35800763357543,0.028190133219140323,0.6,0,1,0.0
3.4523382160004985,141,5361.3,-93.9,1.5,-110.6,1.56,1.31,1.44,-0.07,-0.96,-0.1,-198.1,-63.9,71.0,0.87,1.62,0.13,0.0,0.9677293009927931,2.4946542846655126,0.0461297671603943,0.6,0,1,0.0
3.46130853700015,142,5361.31,-93.8,1.4,-110.5,1.69,1.23,1.5,-0.08,-0.95,-0.11,-198.6,-55.5,85.0,0.88,1.38,-0.03,0.0,0.9596874491208062,2.572741728195817,0.05308818665173354,0.6,0,1,0.0
3.472219326999948,143,5361.32,-93.6,1.2,-110.4,1.79,1.16,1.49,-0.09,-0.95,-0.11,-199.2,-47.5,68.0,0.89,1.22,-0.02,0.0,0.9605727458136629,2.6018839328455834,0.0511588321596993,0.6,0,1,0.0
3.4813463950004007,144,5361.33,-93.4,1.1,-110.2,1.96,1.08,1.36,-0.09,-0.94,-0.12,-199.6,-40.3,68.0,0.9,1.02,0.0,0.0,0.951892851112981,2.6187019685332658,0.058641952323173485,0.6,0,1,0.0
3.4924148939999213,145,5361.34,-93.2,1.0,-110.1,2.08,1.0,1.11,-0.1,-0.93,-0.14,-200.0,-34.6,57.0,0.91,0.87,-0.05,0.0,0.9457801012920498,2.5609568524284043,0.06345960810122253,0.6,0,1,0.0
3.501108170000407,146,5361.35,-93.0,0.9,-110.0,2.22,0.87,0.85,-0.11,-0.91,-0.15,-200.3,-28.8,61.0,0.92,0.7,0.01,0.0,0.9288164511893617,2.5313632690706407,0.07881479303983241,0.6,0,1,0.0
3.5124354099998527,147,5361.36,-92.8,0.8,-109.9,2.34,0.67,0.52,-0.12,-0.89,-0.13,-200.5,-24.0,51.0,0.93,0.59,-0.06,0.0,0.9074139077620532,2.488955604264568,0.09821298973779802,0.6,0,1,0.0
3.521386748000623,148,5361.37,-92.5,0.8,-109.9,2.43,0.34,0.22,-0.14,-0.86,-0.12,-200.7,-17.4,64.0,0.93,0.38,-0.03,0.0,0.8795453370918408,2.4635137507227354,0.12355992919985026,0.6,0,1,0.0
3.5322061960005158,149,5361.38,-92.3,0.8,-109.9,2.25,0.08,0.0,-0.14,-0.85,-0.14,-200.9,-12.2,58.0,0.93,0.25,0.0,0.0,0.8727542609463445,2.251421773013666,0.12774398523843977,0.6,0,1,0.0
3.5413072279998232,150,5361.39,-92.1,0.8,-109.9,1.83,-0.11,-0.1,-0.15,-0.87,-0.13,-200.9,-5.1,63.0,0.93,0.06,0.08,0.0,0.8923564310296643,1.8360283222216374,0.10597897885201746,0.6,0,1,0.0
3.552357315000336,151,5361.4,-91.9,0.8,-109.9,1.59,-0.34,-0.19,-0.14,-0.89,-0.11,-201.0,-1.9,29.0,0.94,0.04,-0.21,0.0,0.9076342875850383,1.637009468512629,0.08888709985071064,0.6,0,1,0.0
3.5611701699999685,152,5361.41,-91.7,0.8,-109.9,1.56,-0.67,-0.33,-0.13,-0.89,-0.09,-201.0,-4.0,-13.0,0.94,0.16,0.06,0.0,0.903935838431025,1.729566419655516,0.09073383802462942,0.6,0,1,0.0
3.57222933400044,153,5361.42,-91.6,0.8,-110.0,1.52,-1.0,-0.47,-0.14,-0.87,-0.1,-201.1,-8.2,-32.0,0.94,0.26,0.16,0.0,0.8868483523128404,1.8791753510516256,0.10566489765995768,0.6,0,1,0.0
3.581300179000209,154,5361.43,-91.5,0.9,-110.2,1.15,-1.34,-0.57,-0.13,-0.82,-0.12,-201.2,-14.3,-70.0,0.94,0.53,0.07,0.0,0.8388682852510279,1.8555322686496185,0.1505720654273348,0.6,0,1,0.0
3.592304544000399,155,5361.44,-91.4,1.0,-110.3,0.5,-1.63,-0.63,-0.13,-0.81,-0.13,-201.4,-27.1,-108.0,0.95,0.88,0.05,0.0,0.8306021911842035,1.8176358271116906,0.155661396304276,0.6,0,1,0.0
3.60113110400016,156,5361.45,-91.4,1.0,-110.5,-0.23,-1.89,-0.68,-0.12,-0.81,-0.14,-201.8,-39.4,-125.0,0.96,1.25,0.07,0.0,0.8307225770376053,2.0217319307959696,0.15243019024185667,0.6,0,1,0.0
3.6125673590004226,157,5361.46,-91.4,1.1,-110.7,-1.0,-2.15,-0.7,-0.11,-0.84,-0.13,-202.3,-53.0,-135.0,0.98,1.62,0.16,0.0,0.8570880934886448,2.4723470630152233,0.1235433803150009,0.6,0,1,0.0
3.6213270320004085,158,5361.47,-91.6,1.1,-110.9,-1.26,-2.28,-0.61,-0.08,-0.88,-0.13,-202.9,-69.9,-167.0,1.0,2.13,0.01,0.0,0.8931405264570632,2.675462576826669,0.08574112839965087,0.6,0,1,0.0
3.632438892999744,159,5361.48,-91.7,1.2,-111.2,-1.29,-2.38,-0.45,-0.06,-0.91,-0.13,-203.7,-87.6,-170.0,1.02,2.6,0.06,0.0,0.9211948762341224,2.744266750882647,0.05653304305013984,0.6,0,1,0.0
3.641298141000334,160,5361.49,-91.8,1.2,-111.4,-1.35,-2.4,-0.16,-0.04,-0.94,-0.14,-204.7,-105.2,-173.0,1.05,3.07,0.06,0.0,0.9512097560475291,2.7582784485979657,0.025987799971998515,0.6,0,1,0.0
3.652341457000148,161,5361.5,-92.0,1.2,-111.6,-1.29,-2.33,0.0,-0.02,-1.0,-0.17,-205.9,-123.1,-177.0,1.09,3.55,-0.01,0.0,1.0145442326483356,2.663268668384773,0.03659974309623182,0.6,0,1,0.0
3.661270016000344,162,5361.51,-92.1,1.2,-111.9,-1.19,-2.27,0.11,-0.01,-1.04,-0.14,-207.3,-139.4,-161.0,1.12,3.95,0.07,0.0,1.0494284158531253,2.565365471039166,0.07005424777500113,0.6,0,1,0.0
3.6723648710003545,163,5361.52,-92.3,1.1,-112.1,-1.46,-2.35,0.3,0.0,-1.09,-0.07,-208.7,-152.7,-132.0,1.17,4.28,-0.03,0.0,1.0922453936730518,2.782822308376875,0.1106138010830291,0.6,0,1,0.0
3.6813003260003825,164,5361.53,-92.5,1.1,-112.3,-1.57,-2.42,0.62,0.05,-1.14,-0.06,-210.4,-163.6,-116.0,1.21,4.57,0.11,0.0,1.142672306481609,2.95054232303148,0.15781989961375442,0.6,0,1,0.0
3.692211018999842,165,5361.54,-92.6,1.0,-112.6,-1.45,-2.18,1.05,0.11,-1.19,-0.15,-212.1,-174.6,-112.0,1.26,4.87,-0.07,0.0,1.2044500819876263,2.820886385517857,0.2152057216173764,0.6,0,1,0.0
3.7013554340001065,166,5361.55,-92.8,0.9,-112.7,-1.3,-1.61,1.51,0.15,-1.26,-0.15,-213.9,-186.3,-122.0,1.31,5.23,0.04,0.0,1.2777323663428113,2.561679136816319,0.28271824585311023,0.6,0,1,0.0
3.712546595999811,167,5361.56,-92.9,0.7,-112.9,-0.86,-1.2,1.75,0.11,-1.32,-0.08,-215.8,-199.6,-131.0,1.36,5.58,0.06,0.0,1.3269890730522238,2.289563277133873,0.32533545351127224,0.6,0,1,0.0
3.7212352050000845,168,5361.57,-92.9,0.6,-113.0,-0.54,-1.04,1.91,0.07,-1.34,0.0,-217.9,-212.9,-131.0,1.42,5.95,0.06,0.0,1.3418271125595875,2.2408257406590097,0.33337002315826325,0.6,0,1,0.0
3.7322397850002744,169,5361.58,-93.0,0.4,-113.1,-0.65,-0.9,2.09,0.1,-1.37,0.02,-220.1,-224.2,-104.0,1.48,6.18,0.11,0.0,1.3737903770226374,2.3665586829825282,0.3580266218688868,0.6,0,1,0.0
3.741396956999779,170,5361.59,-93.0,0.2,-113.1,-0.17,-0.8,2.03,0.08,-1.45,0.07,-222.4,-231.0,-76.0,1.55,6.35,0.1,0.0,1.4538913301894334,2.1885611711807367,0.4293650235349691,0.6,0,1,0.0
3.752386819000094,171,5361.6,-92.9,0.0,-113.2,0.95,-0.95,1.66,-0.01,-1.39,0.12,-224.8,-236.4,-56.0,1.61,6.47,0.07,0.0,1.3952060779684123,2.135556133656992,0.36326617588766896,0.6,0,1,0.0
3.7613194550003755,172,5361.61,-92.8,0.0,-113.3,1.43,-1.37,1.22,-0.12,-1.24,0.17,-227.2,-239.2,-34.0,1.68,6.53,-0.9,0.0,1.2573384588089238,2.325983662883297,0.22089058559361674,0.6,0,1,0.0
3.772482107000542,173,5361.62,-92.7,-0.1,-113.5,0.85,-2.2,0.75,-0.2,-1.08,0.22,-229.6,-242.8,-37.0,1.74,6.64,0.07,0.0,1.1201785571952358,2.4748737341529163,0.08205607030033013,0.6,0,1,0.0
3.7813025430004927,174,5361.63,-92.6,-0.2,-113.8,-0.01,-3.11,0.47,-0.24,-0.99,0.22,-232.0,-246.4,-43.0,1.81,6.76,0.0,0.0,1.0421612159354234,3.1453298714125357,0.003957954459707258,0.6,0,1,0.0
3.792418687999998,175,5361.64,-92.7,-0.3,-114.1,-0.61,-3.95,0.34,-0.25,-0.96,0.19,-234.5,-252.5,-58.0,1.88,6.95,0.13,0.0,1.0100495037373167,4.011259153931593,0.0275906825836314,0.6,0,1,0.0
3.801302374000443,176,5361.65,-92.7,-0.3,-114.5,-0.69,-4.61,0.35,-0.23,-0.96,0.16,-237.1,-257.2,-38.0,1.95,7.01,0.06,0.0,1.0000499987500624,4.674473232354636,0.03683838381946791,0.6,0,1,0.0
3.812543531999836,177,5361.66,-92.8,-0.4,-115.0,-0.36,-5.13,0.47,-0.16,-0.96,0.14,-239.7,-257.7,-13.0,2.02,7.0,-0.05,0.0,0.9832598842625483,5.164048799149753,0.05255592834084244,0.6,0,1,0.0
3.821290568999757,178,5361.67,-92.8,-0.5,-115.6,0.16,-5.47,0.58,-0.06,-0.96,0.12,-242.3,-256.9,3.0,2.09,6.96,-0.44,0.0,0.9693296652842107,5.502990096302191,0.06515642437279645,0.6,0,1,0.0
3.832434017000196,179,5361.68,-92.7,-0.6,-116.1,0.67,-5.6,0.67,0.01,-0.94,0.08,-244.8,-251.4,62.0,2.16,6.68,-0.01,0.0,0.9434511116109832,5.679595055987706,0.08921427848510355,0.6,0,1,0.0
3.8413582230004977,180,5361.69,-92.6,-0.7,-116.7,0.89,-5.5,0.74,0.06,-0.94,0.04,-247.2,-234.3,162.0,2.22,6.08,-0.03,0.0,0.942761899951414,5.620471510469562,0.08810542034177926,0.6,0,1,0.0
3.852221567000015,181,5361.7,-92.5,-0.8,-117.2,0.82,-5.24,0.67,0.1,-0.95,0.02,-249.4,-209.5,227.0,2.28,5.36,-0.18,0.0,0.9554580053565933,5.345923680712249,0.07390112863786791,0.6,0,1,0.0
3.861249332000625,182,5361.71,-92.5,-0.8,-117.7,0.62,-4.92,0.48,0.12,-0.97,0.01,-251.3,-179.9,288.0,2.32,4.47,-0.16,0.0,0.977445650662992,4.982087915723688,0.050875213664839825,0.6,0,1,0.0
3.8722700759999498,183,5361.72,-92.4,-0.9,-118.2,0.38,-4.64,0.18,0.12,-0.96,0.02,-252.8,-143.5,352.0,2.36,3.41,-0.19,0.0,0.9676776322722356,4.659012770963393,0.059430367414484264,0.6,0,1,0.0
3.8811931290001667,184,5361.73,-92.4,-0.9,-118.6,0.0,-4.3,-0.1,0.11,-0.96,0.0,-253.9,-106.9,389.0,2.39,2.26,-0.05,0.0,0.9662815324738437,4.301162633521313,0.05960993786861868,0.6,0,1,0.0
3.8921112130001347,185,5361.74,-92.4,-0.9,-119.0,-0.43,-3.92,-0.41,0.1,-0.98,0.0,-254.7,-59.8,418.0,2.4,1.1,0.01,0.0,0.9850888284819801,3.9647698546069483,0.03998658902327268,0.6,0,1,0.0
3.901414673000545,186,5361.75,-92.5,-0.9,-119.4,-0.78,-3.61,-0.68,0.1,-0.98,0.01,-255.0,-16.2,432.0,2.4,-0.09,-0.14,0.0,0.9851395840184273,3.7553828033903547,0.03913711681708898,0.6,0,1,0.0
3.9125590089997786,187,5361.76,-92.6,-0.8,-119.8,-1.01,-3.4,-0.9,0.1,-1.0,0.01,-254.9,22.4,361.0,2.4,-0.94,-0.08,0.0,1.0050373127401788,3.659248556739484,0.01885460033343067,0.6,0,1,0.0
3.921113367000544,188,5361.77,-92.6,-0.7,-120.1,-0.93,-3.21,-1.04,0.09,-0.99,0.0,-254.5,48.0,290.0,2.38,-1.63,0.03,0.0,0.9940824915468535,3.5000857132361776,0.029213233096220814,0.6,0,1,0.0
3.932440970999778,189,5361.78,-92.7,-0.6,-120.4,-0.58,-2.99,-1.13,0.07,-0.96,0.0,-253.8,73.7,271.0,2.36,-2.33,-0.09,0.0,0.9625487000666512,3.248599698331575,0.05953208408489463,0.6,0,1,0.0
3.9413309920000756,190,5361.79,-92.7,-0.4,-120.7,-0.31,-2.89,-1.1,0.05,-0.91,0.01,-252.9,98.9,252.0,2.33,-2.98,-0.16,0.0,0.9114274518577987,3.1077644698400166,0.10844026564787224,0.6,0,1,0.0
3.9522555620005733,191,5361.8,-92.7,-0.3,-121.0,-0.22,-2.82,-1.03,0.03,-0.9,0.0,-251.8,123.1,246.0,2.3,-3.64,-0.07,0.0,0.9004998611882181,3.010265768997814,0.11698049919110376,0.6,0,1,0.0
3.96138457699999,192,5361.81,-92.7,-0.2,-121.3,-0.2,-2.74,-0.91,0.02,-0.89,-0.01,-250.4,147.2,248.0,2.26,-4.31,0.08,0.0,0.8902808545621994,2.894080164750106,0.12465551570078004,0.6,0,1,0.0
3.972361840999838,193,5361.82,-92.7,-0.1,-121.6,-0.18,-2.62,-0.75,0.02,-0.9,-0.02,-248.7,171.5,247.0,2.21,-4.98,-0.06,0.0,0.9004443347592342,2.731171909638791,0.11220219479367033,0.6,0,1,0.0
3.981282759000351,194,5361.83,-92.7,0.0,-121.8,-0.11,-2.48,-0.65,0.03,-0.92,-0.04,-246.8,197.7,258.0,2.16,-5.69,-0.1,0.0,0.9213576938409969,2.5661254840712684,0.08946305899766949,0.6,0,1,0.0
3.9924659660000543,195,5361.84,-92.7,0.0,-122.1,-0.04,-2.33,-0.58,0.04,-0.94,-0.04,-244.7,223.5,255.0,2.09,-6.37,-0.01,0.0,0.9417005893594843,2.4014370697563576,0.06773776020959832,0.6,0,1,0.0
4.001344201000393,196,5361.85,-92.7,0.0,-122.3,-0.02,-2.17,-0.61,0.04,-0.95,-0.06,-242.3,246.7,234.0,2.03,-6.98,-0.11,0.0,0.952732911156112,2.2541960873003037,0.05557132964471112,0.6,0,1,0.0
4.0124593380005535,197,5361.86,-92.7,0.1,-122.5,-0.03,-1.98,-0.7,0.05,-0.94,-0.07,-239.6,270.9,253.0,1.95,-7.7,0.07,0.0,0.9439279633531363,2.1003095010021737,0.06308875189873309,0.6,0,1,0.0
4.021285849999913,198,5361.87,-92.8,0.2,-122.7,-0.09,-1.83,-0.83,0.04,-0.93,-0.06,-237.0,297.5,283.0,1.87,-8.55,-0.18,0.0,0.9327915093953204,2.0114422686221944,0.07274070173941805,0.6,0,1,0.0
4.032434243999887,199,5361.88,-92.8,0.3,-122.9,-0.26,-1.74,-0.96,0.03,-0.92,-0.06,-233.5,327.3,253.0,1.78,-9.17,-0.04,0.0,0.9224424101265076,2.0041955992367613,0.08142800498806624,0.6,0,1,0.0
4.041373347999979,200,5361.89,-92.9,0.4,-123.1,-0.42,-1.7,-1.09,0.03,-0.9,-0.07,-230.1,349.4,237.0,1.68,-9.79,-0.12,0.0,0.903216474606171,2.062643934371611,0.09864086169823483,0.6,0,1,0.0
4.052460183999756,201,5361.9,-92.9,0.5,-123.2,-0.51,-1.63,-1.2,0.04,-0.89,-0.1,-226.4,374.3,251.0,1.58,-10.49,-0.08,0.0,0.8964931678490361,2.0873428084528904,0.1032568850862624,0.6,0,1,0.0
4.061411598000632,202,5361.91,-93.0,0.7,-123.4,-0.65,-1.57,-1.29,0.05,-0.89,-0.13,-222.5,399.4,255.0,1.47,-11.19,-0.15,0.0,0.9008329478876758,2.133424477219665,0.09693876294667025,0.6,0,1,0.0
4.072490409999773,203,5361.92,-93.1,0.8,-123.6,-0.8,-1.49,-1.31,0.06,-0.9,-0.15,-218.3,429.5,285.0,1.35,-12.0,-0.03,0.0,0.9143850392476902,2.1392054599780734,0.0817189381549227,0.6,0,1,0.0
4.081363594999857,204,5361.93,-93.2,0.9,-123.7,-0.91,-1.39,-1.28,0.09,-0.92,-0.18,-213.9,451.1,214.0,1.23,-12.47,-0.15,0.0,0.9417536832951597,2.097283957884578,0.05326328822530413,0.6,0,1,0.0
4.092420220000349,205,5361.94,-93.3,1.1,-123.8,-0.87,-1.28,-1.2,0.1,-0.94,-0.19,-209.2,472.0,224.0,1.1,-13.11,0.01,0.0,0.9642095207992918,1.9583921976968761,0.030191301706748663,0.6,0,1,0.0
4.101347754000017,206,5361.95,-93.4,1.2,-124.0,-0.7,-1.21,-1.08,0.11,-0.95,-0.2,-204.4,486.1,137.0,0.97,-13.33,-0.09,0.0,0.9770363350459388,1.7664937022248337,0.0170171977108996,0.6,0,1,0.0
4.112566255000274,207,5361.96,-93.4,1.3,-124.1,-0.37,-1.13,-0.94,0.1,-0.97,-0.21,-199.4,503.2,170.0,0.83,-13.84,-0.07,0.0,0.9974968671630001,1.5157176518072222,0.0033744677180385096,0.6,0,1,0.0
4.121243657999912,208,5361.97,-93.5,1.3,-124.2,-0.04,-1.04,-0.73,0.08,-0.95,-0.22,-194.3,504.6,-2.0,0.69,-13.54,-0.13,0.0,0.978417088975862,1.2712592182556632,0.015391204259717628,0.6,0,1,0.0
4.1322074820000125,209,5361.98,-93.5,1.4,-124.3,0.33,-0.97,-0.4,0.09,-0.94,-0.22,-189.4,486.4,-148.0,0.56,-12.9,0.15,0.0,0.9695875411740809,1.0999090871522064,0.023736337020268783,0.6,0,1,0.0
4.14135506599996,210,5361.99,-93.4,1.4,-124.4,0.7,-0.86,-0.13,0.1,-0.95,-0.23,-184.8,451.7,-307.0,0.44,-11.8,0.21,0.0,0.9825477087653302,1.1164676439557035,0.010560646040439048,0.6,0,1,0.0
4.152453213000626,211,5362.0,-93.3,1.4,-124.5,1.03,-0.65,0.07,0.12,-0.96,-0.23,-180.5,408.6,-424.0,0.33,-10.45,0.13,0.0,0.9944345126754199,1.219959015705036,0.0012996347122576912,0.6,0,1,0.0
4.161359755999911,212,5362.01,-93.2,1.4,-124.5,1.11,-0.41,0.22,0.09,-0.96,-0.24,-177.6,365.4,-664.0,0.23,-8.88,0.29,0.0,0.9936297097007516,1.2035779991342481,0.00048493510283753594,0.6,0,1,0.0
4.172422949000065,213,5362.02,-93.1,1.3,-124.6,1.08,-0.15,0.33,0.06,-0.95,-0.25,-173.3,305.8,-481.0,0.15,-7.92,0.14,0.0,0.9841747812253675,1.1392102527628516,0.00879059350509559,0.6,0,1,0.0
4.1812757699999565,214,5362.03,-93.0,1.3,-124.6,1.16,0.0,0.42,0.03,-0.91,-0.24,-170.5,273.6,-372.0,0.07,-7.05,-0.08,0.0,0.9415943925066674,1.2336936410632908,0.05034356257931971,0.6,0,1,0.0
4.1923887909997575,215,5362.04,-92.9,1.3,-124.6,1.31,0.11,0.55,0.05,-0.85,-0.22,-168.2,247.2,-315.0,0.01,-6.34,0.15,0.0,0.879431634636826,1.4250263155464886,0.11025619404017784,0.6,0,1,0.0
4.201349324000148,216,5362.05,-92.7,1.2,-124.5,1.22,0.12,0.71,0.08,-0.81,-0.21,-165.9,225.2,-225.0,-0.04,-5.93,0.07,0.0,0.8405950273467004,1.4166509803053113,0.1461109453036974,0.6,0,1,0.0
4.212383905000024,217,5362.06,-92.6,1.1,-124.5,0.92,0.16,0.84,0.13,-0.79,-0.21,-163.7,210.6,-165.0,-0.09,-5.56,0.0,0.0,0.8277076778670113,1.2560254774486066,0.15581832888771885,0.6,0,1,0.0
4.2213980610004,218,5362.07,-92.6,1.0,-124.5,0.51,0.29,0.87,0.16,-0.8,-0.23,-161.7,197.5,-147.0,-0.15,-5.2,0.01,0.0,0.8476437931112338,1.0493331215586401,0.13316456937062637,0.6,0,1,0.0
4.232480282000324,219,5362.08,-92.5,0.9,-124.5,0.13,0.5,0.86,0.18,-0.82,-0.24,-160.0,183.7,-153.0,-0.19,-4.76,-0.09,0.0,0.8731551981177229,1.0032447358446492,0.10550010107685459,0.6,0,1,0.0
4.241253646000587,220,5362.09,-92.5,0.9,-124.4,-0.14,0.75,0.86,0.19,-0.83,-0.24,-158.1,167.4,-147.0,-0.24,-4.37,0.07,0.0,0.8846468221838588,1.149652121295829,0.09212830747050427,0.6,0,1,0.0
4.252224394999757,221,5362.1,-92.5,0.8,-124.3,-0.26,1.02,0.87,0.19,-0.86,-0.22,-156.6,151.1,-168.0,-0.28,-3.86,0.09,0.0,0.9077995373429092,1.3656134152826707,0.0675960804652248,0.6,0,1,0.0
4.261339559000589,222,5362.11,-92.6,0.7,-124.2,-0.4,1.19,0.83,0.18,-0.9,-0.19,-155.2,131.9,-191.0,-0.32,-3.32,0.14,0.0,0.9372833082905083,1.504991694329241,0.0373500633272732,0.6,0,1,0.0
4.272262319999754,223,5362.12,-92.6,0.6,-124.0,-0.6,1.26,0.72,0.15,-0.94,-0.15,-154.0,110.3,-210.0,-0.34,-2.72,0.09,0.0,0.963638936531728,1.5703502793962882,0.010774546384332395,0.6,0,1,0.0
4.2813501099999485,224,5362.13,-92.7,0.6,-123.9,-0.8,1.21,0.52,0.11,-0.98,-0.11,-153.1,85.9,-246.0,-0.37,-1.99,0.15,0.0,0.9922701245124737,1.540941270782245,0.017499508764484917,0.6,0,1,0.0
4.292485775000387,225,5362.14,-92.8,0.6,-123.8,-0.88,0.99,0.31,0.07,-0.99,-0.1,-152.4,52.6,-324.0,-0.38,-0.96,0.13,0.0,0.9974968671630001,1.360367597379473,0.022271726386711155,0.6,0,1,0.0
4.301214646000517,226,5362.15,-92.9,0.6,-123.7,-0.77,0.71,0.18,0.05,-0.99,-0.13,-152.2,9.8,-406.0,-0.38,0.25,0.12,0.0,0.999749968742185,1.0627323275406653,0.02403433140657818,0.6,0,1,0.0
4.312470499000483,227,5362.16,-93.0,0.6,-123.7,-0.55,0.49,0.07,0.04,-1.0,-0.17,-152.3,-22.3,-310.0,-0.37,0.93,0.08,0.0,1.0151354589413177,0.7399324293474371,0.038631425173596634,0.6,0,1,0.0
4.321263065000494,228,5362.17,-93.1,0.6,-123.6,-0.41,0.43,0.02,0.05,-1.0,-0.22,-152.8,-56.6,-368.0,-0.36,2.04,0.1,0.0,1.0251341375644458,0.594474557908074,0.047657501720790196,0.6,0,1,0.0
4.332356244000039,229,5362.18,-93.1,0.6,-123.6,-0.33,0.71,0.02,0.07,-1.03,-0.31,-153.6,-93.0,-324.0,-0.33,2.83,-0.16,0.0,1.0779146533933008,0.7831985699680509,0.09842925719865225,0.6,0,1,0.0
4.341304213000512,230,5362.19,-93.2,0.6,-123.5,-1.05,1.11,-0.28,-0.05,-1.21,-0.27,-154.7,-117.9,-274.0,-0.3,3.52,-0.03,0.0,1.2407658925034972,1.5533834040570924,0.2560548863826717,0.6,0,1,0.0
4.3524310829998285,231,5362.2,-93.3,0.7,-123.4,-1.7,1.22,-0.8,-0.08,-1.24,-0.2,-156.1,-148.5,-321.0,-0.25,4.48,-0.17,0.0,1.2585706178041818,2.240178564311336,0.2683824194496891,0.6,0,1,0.0
4.361206407999816,232,5362.21,-93.5,0.8,-123.2,-1.9,1.14,-1.11,0.0,-1.2,-0.14,-157.9,-186.1,-355.0,-0.2,5.5,0.06,0.0,1.2081390648431165,2.4782453470146977,0.21359184915885132,0.6,0,1,0.0
4.372251538000455,233,5362.22,-93.7,0.9,-123.1,-2.2,0.95,-1.23,0.01,-1.18,-0.14,-159.9,-217.3,-287.0,-0.14,6.15,0.21,0.0,1.1883181392203015,2.6935849717430487,0.1898955050653156,0.6,0,1,0.0
4.381078948000322,234,5362.23,-94.0,1.0,-123.1,-2.88,1.04,-1.27,0.0,-1.18,-0.16,-162.2,-232.7,-160.0,-0.08,6.39,-0.01,0.0,1.1907980517283356,3.3149509800297197,0.18852790922188278,0.6,0,1,0.0
4.392506094000055,235,5362.24,-94.4,1.1,-123.0,-3.58,1.1,-1.62,-0.01,-1.28,-0.07,-164.6,-233.2,-31.0,-0.02,6.27,-0.08,0.0,1.2819516371532897,4.08053918005942,0.27408786475390023,0.6,0,1,0.0
4.400592900999982,236,5362.25,-94.7,1.3,-122.9,-3.94,0.95,-2.38,0.0,-1.47,0.04,-166.9,-226.1,42.0,0.04,6.04,-0.09,0.0,1.4705441169852742,4.700053191188372,0.45342673769416697,0.6,0,1,0.0
4.412792807000187,237,5362.26,-95.1,1.6,-122.8,-4.13,0.64,-3.5,-0.04,-1.62,0.06,-169.1,-216.5,80.0,0.09,5.76,0.06,0.0,1.6216041440499591,5.4512842523574205,0.5923970294636749,0.6,0,1,0.0
4.4206594289998975,238,5362.27,-95.5,2.0,-122.8,-3.78,0.31,-4.27,-0.1,-1.62,0.07,-171.2,-207.2,85.0,0.15,5.52,-0.02,0.0,1.624592256537006,5.711164504722308,0.5834774391117072,0.6,0,1,0.0
4.432241035000516,239,5362.28,-95.8,2.5,-122.8,-2.1,-0.02,-4.16,-0.05,-1.38,0.06,-173.2,-199.1,75.0,0.2,5.34,-0.07,0.0,1.3822083779228078,4.660042918257298,0.334271689287559,0.6,0,1,0.0
4.445281717000398,240,5362.29,-95.9,2.8,-122.9,-0.35,0.0,-2.9,0.1,-1.07,-0.03,-175.1,-193.8,55.0,0.26,5.23,0.0,0.0,1.0750813922675808,2.921044333795706,0.026601809559685385,0.6,0,1,0.0
4.453199749000305,241,5362.3,-95.9,3.0,-122.9,0.19,0.61,-1.26,0.3,-0.89,-0.12,-177.0,-190.7,38.0,0.31,5.14,0.07,0.0,0.9468368391650168,1.4127278577277367,0.09960988867202114,0.6,0,1,0.0
4.465396800000235,242,5362.31,-95.9,3.1,-122.8,-0.32,1.51,0.07,0.46,-0.87,-0.15,-178.9,-187.6,32.0,0.36,5.06,-0.02,0.0,0.9954898291795853,1.5451213544573126,0.04993776068430367,0.6,0,1,0.0
4.4733133030003955,243,5362.32,-95.9,3.1,-122.5,-0.82,2.73,0.67,0.48,-0.93,-0.17,-180.8,-183.0,49.0,0.41,4.89,-0.22,0.0,1.0602829810951415,2.928173492127814,0.01455828340662757,0.6,0,1,0.0
4.481101053999737,244,5362.33,-96.0,3.0,-122.2,-0.92,4.17,0.84,0.42,-0.97,-0.12,-182.6,-175.7,71.0,0.46,4.67,0.02,0.0,1.0638138934982941,4.352114428642703,0.01772741189358462,0.6,0,1,0.0
4.4924076560000685,245,5362.34,-96.1,3.0,-121.7,-0.45,5.29,0.9,0.33,-0.99,-0.03,-184.3,-166.3,91.0,0.5,4.38,-0.14,0.0,1.0439827584783188,5.38484911580631,0.002061648663862936,0.6,0,1,0.0
4.501089107000553,246,5362.35,-96.0,3.0,-121.1,0.16,6.1,0.86,0.23,-1.02,0.04,-185.8,-152.9,131.0,0.54,3.96,0.12,0.0,1.0463746938836012,6.162402129040265,0.0003236810065909701,0.6,0,1,0.0
4.512531975000456,247,5362.36,-96.0,2.9,-120.5,0.71,6.53,0.62,0.1,-1.03,0.08,-187.2,-135.5,165.0,0.58,3.45,-0.15,0.0,1.0379306335203715,6.5976814109200514,0.007957971769505967,0.6,0,1,0.0
4.521203164999861,248,5362.37,-95.8,3.0,-119.8,1.09,6.86,0.28,0.0,-1.01,0.07,-188.5,-114.4,205.0,0.61,2.81,-0.03,0.0,1.0124228365658292,6.951697634391185,0.03279645334956727,0.6,0,1,0.0
4.532142374000614,249,5362.38,-95.7,3.0,-119.1,1.42,6.87,-0.11,-0.09,-0.99,0.11,-189.4,-89.8,243.0,0.63,2.1,-0.29,0.0,1.0001499887516871,7.016081527462462,0.044167915140435055,0.6,0,1,0.0
4.541201353999895,250,5362.39,-95.5,3.1,-118.4,1.79,6.53,-0.38,-0.15,-0.93,0.13,-190.1,-61.1,282.0,0.65,1.27,-0.03,0.0,0.950946896519464,6.781548495734584,0.09150358722520513,0.6,0,1,0.0
4.552267191000283,251,5362.4,-95.2,3.2,-117.8,1.68,6.01,-0.36,-0.18,-0.86,0.11,-190.5,-32.1,272.0,0.65,0.56,-0.25,0.0,0.8854942122905152,6.250767952819878,0.1538171460250708,0.6,0,1,0.0
4.561233577000166,252,5362.41,-95.1,3.3,-117.3,1.12,5.49,-0.11,-0.17,-0.83,0.08,-190.7,-7.2,240.0,0.66,-0.04,-0.19,0.0,0.8509994124557313,5.604159169759546,0.1845457069426576,0.6,0,1,0.0
4.572264453000571,253,5362.42,-95.0,3.3,-116.7,0.55,4.91,0.23,-0.15,-0.86,0.06,-190.6,6.3,131.0,0.65,-0.21,0.08,0.0,0.8750428560933459,4.946059037253801,0.15729221803894222,0.6,0,1,0.0
4.581096257999889,254,5362.43,-94.9,3.3,-116.3,0.13,4.4,0.5,-0.12,-0.9,0.04,-190.6,5.3,5.0,0.65,-0.03,0.15,0.0,0.9088454214001411,4.4302257278834,0.12101985967750406,0.6,0,1,0.0
4.59246097400046,255,5362.44,-94.9,3.3,-115.9,-0.02,3.97,0.64,-0.1,-0.95,0.0,-190.6,-4.7,-57.0,0.65,0.22,0.07,0.0,0.95524865872714,4.0213057580840585,0.07312428990349495,0.6,0,1,0.0
4.601295131999905,256,5362.45,-94.9,3.3,-115.5,-0.15,3.63,0.75,-0.09,-0.96,-0.04,-190.7,-10.1,-48.0,0.66,0.32,0.22,0.0,0.9650388593212192,3.7097034921944907,0.06206740752322737,0.6,0,1,0.0
4.612447104000239,257,5362.46,-94.9,3.2,-115.1,-0.13,3.48,0.85,-0.07,-1.01,-0.06,-190.9,-20.6,-110.0,0.66,0.75,-0.03,0.0,1.0141991914806479,3.5846617692608045,0.01264893385652277,0.6,0,1,0.0
4.621147226000176,258,5362.47,-94.8,3.2,-114.8,0.29,3.35,0.85,-0.07,-1.02,-0.05,-191.2,-35.5,-134.0,0.67,1.15,0.07,0.0,1.0236210236215353,3.4682992950436096,0.0031625596813227297,0.6,0,1,0.0
4.6324457370001255,259,5362.48,-94.7,3.1,-114.4,0.95,3.16,0.83,-0.06,-1.0,-0.04,-191.6,-51.3,-156.0,0.69,1.6,0.09,0.0,1.0025966287595427,3.4024990815575546,0.023703215452449022,0.6,0,1,0.0
4.64119683700028,260,5362.49,-94.6,3.1,-114.1,1.38,3.03,0.86,-0.06,-0.95,-0.04,-192.3,-68.9,-170.0,0.71,2.09,-0.04,0.0,0.952732911156112,3.4387352326109664,0.0720955943947621,0.6,0,1,0.0
4.652202006000152,261,5362.5,-94.5,3.0,-113.8,1.39,2.93,0.86,-0.06,-0.95,-0.05,-193.1,-85.7,-157.0,0.73,2.5,-0.11,0.0,0.9532051195833979,3.355085691901177,0.07019091824812662,0.6,0,1,0.0
4.66124202500032,262,5362.51,-94.3,2.9,-113.5,1.22,2.81,0.79,-0.07,-0.94,-0.05,-194.0,-98.9,-133.0,0.76,2.82,0.0,0.0,0.9439279633531363,3.163637147335326,0.07787871298882054,0.6,0,1,0.0
4.672238979999747,263,5362.52,-94.2,2.9,-113.2,1.01,2.67,0.81,-0.07,-0.92,-0.05,-195.1,-109.0,-110.0,0.79,3.07,0.09,0.0,0.9240129869217207,2.967338875153965,0.09583781563183147,0.6,0,1,0.0
4.681185401000221,264,5362.53,-94.1,2.7,-113.0,0.93,2.51,0.8,-0.07,-0.92,-0.06,-196.2,-116.1,-71.0,0.82,3.21,0.01,0.0,0.924608025057105,2.7937430089397988,0.09333792194651813,0.6,0,1,0.0
4.692814482999893,265,5362.54,-94.0,2.6,-112.7,0.98,2.38,0.75,-0.06,-0.92,-0.07,-197.4,-119.9,-54.0,0.85,3.32,0.01,0.0,0.924608025057105,2.6809140232390893,0.09147116350758766,0.6,0,1,0.0
4.700820238000233,266,5362.55,-93.9,2.5,-112.5,0.94,2.16,0.85,-0.06,-0.9,-0.08,-198.6,-121.7,-17.0,0.89,3.29,-0.01,0.0,0.9055385138137417,2.5043362394055637,0.10832986125593203,0.6,0,1,0.0
4.712113536000288,267,5362.56,-93.8,2.4,-112.3,0.8,1.95,0.94,-0.06,-0.9,-0.09,-199.8,-119.2,18.0,0.92,3.18,-0.22,0.0,0.9064766957842877,2.307834482799839,0.10524384569967837,0.6,0,1,0.0
4.7250016280004274,268,5362.57,-93.7,2.3,-112.1,0.68,1.79,0.99,-0.07,-0.92,-0.1,-201.0,-114.0,50.0,0.95,3.0,-0.01,0.0,0.9280624978954812,2.155597365001173,0.08198488271671511,0.6,0,1,0.0
4.733006557000408,269,5362.58,-93.6,2.2,-111.9,0.71,1.68,0.97,-0.09,-0.93,-0.11,-202.1,-105.8,73.0,0.98,2.76,0.32,0.0,0.9407975340103736,2.065768622087188,0.06786484966978623,0.6,0,1,0.0
4.741066780999972,270,5362.59,-93.5,2.1,-111.7,0.97,1.63,0.88,-0.09,-0.95,-0.12,-203.1,-97.8,74.0,1.0,2.57,-0.1,0.0,0.9617692030835672,2.0909806311871946,0.04595531698466071,0.6,0,1,0.0
4.752392016000158,271,5362.6,-93.4,2.1,-111.6,1.23,1.55,0.81,-0.11,-0.95,-0.14,-204.0,-88.9,87.0,1.03,2.31,0.16,0.0,0.9665402216152207,2.138106639061766,0.040360612483946956,0.6,0,1,0.0
4.761408219000259,272,5362.61,-93.3,2.0,-111.4,1.58,1.5,0.67,-0.13,-0.95,-0.16,-204.8,-79.4,95.0,1.05,2.03,-0.07,0.0,0.972111104761179,2.279320074057174,0.034093934751228794,0.6,0,1,0.0
4.772517761000017,273,5362.62,-93.1,2.0,-111.3,2.17,1.4,0.4,-0.15,-0.94,-0.13,-205.6,-71.3,78.0,1.07,1.86,-0.06,0.0,0.960728889958036,2.6132164089489414,0.04456662656328447,0.6,0,1,0.0
4.781312893000177,274,5362.63,-92.8,1.9,-111.1,2.65,1.09,0.06,-0.17,-0.87,-0.1,-206.2,-64.0,82.0,1.09,1.62,-0.23,0.0,0.8920762299265685,2.866042567722957,0.11095490086285675,0.6,0,1,0.0
4.792271080999853,275,5362.64,-92.5,2.0,-111.1,2.62,0.65,-0.19,-0.19,-0.8,-0.11,-206.8,-56.6,66.0,1.1,1.47,-0.22,0.0,0.8295782060782456,2.706104210853677,0.16998386621695605,0.6,0,1,0.0
4.801364371000091,276,5362.65,-92.3,2.0,-111.0,2.0,0.14,-0.29,-0.18,-0.75,-0.1,-207.3,-52.3,39.0,1.11,1.41,0.07,0.0,0.7777531742140305,2.0257591169731906,0.21737272011954778,0.6,0,1,0.0
4.812522739000087,277,5362.66,-92.2,2.0,-111.0,1.23,-0.34,-0.33,-0.14,-0.75,-0.12,-207.8,-50.1,19.0,1.13,1.38,-0.06,0.0,0.772334124585985,1.318104699938514,0.21833593435264131,0.6,0,1,0.0
4.821305290000055,278,5362.67,-92.1,2.1,-111.1,0.6,-0.68,-0.32,-0.1,-0.76,-0.13,-208.4,-51.7,-9.0,1.14,1.43,0.07,0.0,0.7774959806970065,0.9616652224137047,0.20891059667678746,0.6,0,1,0.0
4.832395702999747,279,5362.68,-92.0,2.1,-111.2,0.07,-0.96,-0.25,-0.08,-0.78,-0.15,-208.9,-53.5,-19.0,1.16,1.5,-0.19,0.0,0.7983107164506812,0.9944847912361455,0.1843339437046505,0.6,0,1,0.0
4.841298774999814,280,5362.69,-92.1,2.1,-111.3,-0.23,-1.12,-0.19,-0.07,-0.81,-0.17,-209.4,-57.7,-40.0,1.17,1.64,0.0,0.0,0.8306021911842035,1.1590513362228612,0.14900161959170555,0.6,0,1,0.0
4.852401681000629,281,5362.7,-92.1,2.1,-111.4,-0.34,-1.26,-0.17,-0.05,-0.82,-0.14,-210.1,-64.6,-66.0,1.19,1.87,0.0,0.0,0.8333666660000265,1.3160927019021114,0.14331240188036487,0.6,0,1,0.0
4.861394278000262,282,5362.71,-92.1,2.1,-111.5,-0.28,-1.41,-0.22,-0.05,-0.84,-0.14,-210.8,-75.0,-98.0,1.21,2.18,0.08,0.0,0.8530533394811838,1.454269576110289,0.12115321383122346,0.6,0,1,0.0
4.872501595000358,283,5362.72,-92.2,2.1,-111.7,-0.34,-1.46,-0.28,-0.06,-0.85,-0.17,-211.6,-86.2,-103.0,1.24,2.47,-0.09,0.0,0.8689073598491384,1.52499180325666,0.10319320959400347,0.6,0,1,0.0
4.881211787999746,284,5362.73,-92.2,2.2,-111.8,-0.7,-1.35,-0.23,-0.06,-0.89,-0.16,-212.6,-98.0,-113.0,1.26,2.8,0.22,0.0,0.9062560344626678,1.537985695642193,0.06452764428086455,0.6,0,1,0.0
4.892474682000284,285,5362.74,-92.3,2.2,-112.0,-1.2,-1.27,-0.09,-0.05,-0.98,-0.16,-213.6,-110.2,-121.0,1.29,3.15,-0.01,0.0,0.9942333730065591,1.7495713760804388,0.022980700377766228,0.6,0,1,0.0
4.9013297830006195,286,5362.75,-92.5,2.2,-112.1,-1.22,-1.3,0.02,-0.02,-1.08,-0.18,-214.8,-123.7,-140.0,1.33,3.57,0.06,0.0,1.0950799057603058,1.7829189549724351,0.12135068846888264,0.6,0,1,0.0
4.912630415999956,287,5362.76,-92.6,2.2,-112.2,-0.76,-1.37,0.11,0.0,-1.16,-0.18,-216.2,-138.9,-140.0,1.37,3.92,0.06,0.0,1.173882447266335,1.5705413079572281,0.19615016537541352,0.6,0,1,0.0
4.921359963000214,288,5362.77,-92.7,2.1,-112.4,-0.58,-1.49,0.23,0.01,-1.23,-0.1,-217.6,-152.3,-138.0,1.41,4.31,0.11,0.0,1.2340988615179904,1.6153637361288014,0.2512392480345276,0.6,0,1,0.0
4.932419733000643,289,5362.78,-92.8,2.1,-112.5,-0.96,-1.67,0.58,0.07,-1.28,-0.1,-219.3,-166.9,-147.0,1.45,4.73,-0.01,0.0,1.2858071395042103,2.011690831116949,0.29688857550033254,0.6,0,1,0.0
4.941163242000584,290,5362.79,-92.9,2.0,-112.7,-0.79,-1.62,0.84,0.2,-1.41,-0.13,-221.1,-184.6,-177.0,1.5,5.27,0.08,0.0,1.4300349646075092,1.9884918908559825,0.43229407259155883,0.6,0,1,0.0
4.952504042000328,291,5362.8,-92.9,1.9,-112.8,0.26,-1.42,0.84,0.24,-1.44,-0.13,-223.0,-205.1,-205.0,1.56,5.86,0.13,0.0,1.4656397920362287,1.6702095676890372,0.45854092201987284,0.6,0,1,0.0
4.9613702520000516,292,5362.81,-92.9,1.9,-113.0,0.85,-1.31,1.0,0.15,-1.36,-0.1,-225.3,-231.2,-255.0,1.63,6.63,0.13,0.0,1.3718964975536603,1.8543462459853608,0.35750167498655827,0.6,0,1,0.0
4.972410045000288,293,5362.82,-92.8,1.8,-113.1,0.57,-1.13,1.34,0.09,-1.31,0.0,-227.8,-261.2,-293.0,1.7,7.5,1.14,0.0,1.3130879635424277,1.8432037326351094,0.2927192781558192,0.6,0,1,0.0
4.981223028000386,294,5362.83,-92.7,1.6,-113.2,0.05,-1.16,1.8,0.04,-1.32,0.1,-230.6,-294.2,-316.0,1.78,8.39,0.17,0.0,1.3243866504914643,2.141985060638846,0.29793760580275874,0.6,0,1,0.0
4.992340134000187,295,5362.84,-92.7,1.4,-113.3,0.04,-1.33,2.17,-0.02,-1.39,0.16,-233.8,-328.0,-330.0,1.87,9.32,0.18,0.0,1.3993212640419639,2.5454665584132115,0.3654147749661931,0.6,0,1,0.0
5.001333758999863,296,5362.85,-92.7,1.2,-113.4,0.63,-1.78,2.18,-0.11,-1.38,0.18,-237.3,-356.1,-263.0,1.97,9.92,0.0,0.0,1.3960300856356926,2.8840423020475967,0.35488112462872334,0.6,0,1,0.0
5.012598574000549,297,5362.86,-92.6,1.0,-113.6,0.99,-2.42,1.92,-0.18,-1.28,0.22,-241.0,-372.4,-196.0,2.07,10.35,-0.06,0.0,1.311182672246701,3.243901971391861,0.264633037014937,0.6,0,1,0.0
5.025427270999899,298,5362.87,-92.5,0.8,-113.9,0.67,-3.22,1.71,-0.23,-1.13,0.25,-244.8,-392.8,-187.0,2.18,10.84,-0.14,0.0,1.179957626357828,3.7069394384046794,0.1307398313035426,0.6,0,1,0.0
5.03339309400053,299,5362.88,-92.5,0.6,-114.3,0.12,-3.96,1.6,-0.2,-1.08,0.25,-248.8,-396.9,-47.0,2.28,10.73,-0.13,0.0,1.1264546151532249,4.272704061832506,0.07569208369696079,0.6,0,1,0.0
5.041292187000181,300,5362.89,-92.5,0.4,-114.7,0.1,-4.66,1.35,-0.17,-1.07,0.23,-252.8,-392.7,11.0,2.39,10.62,0.05,0.0,1.1075648965184839,4.852638457581608,0.055666317760975303,0.6,0,1,0.0
5.052245351000238,301,5362.9,-92.5,0.3,-115.2,0.16,-5.24,1.02,-0.11,-1.04,0.19,-256.6,-379.9,137.0,2.49,10.0,-0.04,0.0,1.0629205050237764,5.340749011140666,0.010801487740942584,0.6,0,1,0.0
5.061287158000596,302,5362.91,-92.5,0.2,-115.7,0.02,-5.53,0.74,-0.07,-1.04,0.15,-260.2,-351.2,253.0,2.59,9.14,-0.16,0.0,1.0530906893520615,5.579327916514677,0.000952238627843105,0.6,0,1,0.0
5.072234747000039,303,5362.92,-92.4,0.1,-116.3,0.18,-5.68,0.54,-0.03,-1.02,0.11,-263.5,-316.3,331.0,2.67,8.11,0.05,0.0,1.026352765865616,5.708449877155794,0.02526997116143037,0.6,0,1,0.0
5.081232782999905,304,5362.93,-92.4,0.0,-116.9,0.49,-5.56,0.49,0.0,-1.0,0.08,-266.4,-273.5,408.0,2.74,6.87,-0.23,0.0,1.0031948963187562,5.603017044414553,0.04745928389412435,0.6,0,1,0.0
5.092347486000108,305,5362.94,-92.3,0.0,-117.4,0.95,-5.22,0.45,0.01,-0.99,0.05,-268.8,-229.2,430.0,2.81,5.68,-0.1,0.0,0.991312261600753,5.324791075713675,0.058155080239884915,0.6,0,1,0.0
5.1012821849999455,306,5362.95,-92.1,0.0,-117.9,1.22,-4.71,0.25,0.04,-0.98,0.03,-270.8,-182.1,463.0,2.85,4.37,0.0,0.0,0.9812746812182611,4.871857961804716,0.06682880740992925,0.6,0,1,0.0
5.112535336000292,307,5362.96,-91.9,0.0,-118.3,1.03,-4.26,-0.07,0.08,-0.95,0.02,-272.2,-133.6,477.0,2.89,3.04,-0.19,0.0,0.9535722311393091,4.383309252151848,0.09264063233910358,0.6,0,1,0.0
5.121342972000093,308,5362.97,-91.9,0.0,-118.7,0.56,-3.85,-0.41,0.1,-0.92,0.02,-273.2,-84.9,488.0,2.91,1.69,-0.26,0.0,0.9256349172324908,3.9120582817744425,0.11816638732100337,0.6,0,1,0.0
5.132428257999891,309,5362.98,-91.8,0.0,-119.1,0.06,-3.53,-0.71,0.1,-0.88,0.03,-273.8,-36.3,486.0,2.92,0.38,-0.29,0.0,0.886171540955813,3.601194246357727,0.15447716832572767,0.6,0,1,0.0
5.14135179799996,310,5362.99,-91.9,0.1,-119.4,-0.17,-3.11,-0.87,0.1,-0.85,0.03,-273.8,10.3,438.0,2.91,-0.71,0.01,0.0,0.8563877626402656,3.233867653445329,0.18057572770844943,0.6,0,1,0.0
5.1524873980006305,311,5363.0,-91.9,0.1,-119.7,-0.19,-2.73,-0.93,0.1,-0.84,0.04,-273.5,41.3,332.0,2.9,-1.44,0.14,0.0,0.8468766143896052,2.8903114019081055,0.18628513843992778,0.6,0,1,0.0
5.1613147070002015,312,5363.01,-91.9,0.2,-120.0,-0.09,-2.46,-0.98,0.1,-0.82,0.05,-273.0,61.6,378.0,2.88,-2.17,-0.1,0.0,0.8275868534480232,2.6495471311150514,0.20146340139387953,0.6,0,1,0.0
5.17243869899994,313,5363.02,-91.9,0.3,-120.2,-0.03,-2.28,-0.9,0.09,-0.79,0.03,-272.0,95.5,316.0,2.85,-2.92,-0.04,0.0,0.7956758133813042,2.4513873622909945,0.22870695263138652,0.6,0,1,0.0
5.181280927999978,314,5363.03,-91.9,0.4,-120.5,0.06,-2.1,-0.77,0.1,-0.79,0.0,-270.8,122.7,284.0,2.82,-3.66,0.0,0.0,0.7963039620647383,2.237520949622595,0.22351722786899342,0.6,0,1,0.0
5.192229717999908,315,5363.04,-91.9,0.5,-120.7,0.17,-1.9,-0.64,0.1,-0.8,-0.01,-269.4,148.0,264.0,2.78,-4.34,-0.08,0.0,0.8062877898120497,2.012088467239947,0.2092627321192484,0.6,0,1,0.0
5.201310248000482,316,5363.05,-91.9,0.6,-120.8,0.17,-1.74,-0.52,0.1,-0.81,-0.02,-267.8,174.0,260.0,2.73,-5.04,-0.2,0.0,0.8163945124754332,1.8239791665476885,0.19517288926674758,0.6,0,1,0.0
5.212515764999807,317,5363.06,-91.9,0.7,-121.0,-0.02,-1.57,-0.45,0.12,-0.86,-0.04,-265.9,199.7,256.0,2.67,-5.73,-0.09,0.0,0.8692525524840292,1.6333401360402555,0.1394685522729885,0.6,0,1,0.0
5.221309296000072,318,5363.07,-91.9,0.8,-121.2,-0.13,-1.44,-0.42,0.12,-0.88,-0.04,-263.7,224.4,244.0,2.61,-6.37,-0.02,0.0,0.8890444308357147,1.505622794726488,0.11728314044287702,0.6,0,1,0.0
5.2323101110005155,319,5363.08,-91.9,0.9,-121.3,-0.24,-1.31,-0.34,0.11,-0.89,-0.05,-261.3,247.6,234.0,2.54,-7.01,-0.05,0.0,0.8981647955692763,1.3745180973708568,0.10599952019512904,0.6,0,1,0.0
5.241314927000531,320,5363.09,-92.0,1.0,-121.4,-0.24,-1.17,-0.25,0.11,-0.91,-0.07,-258.6,270.8,237.0,2.47,-7.66,-0.04,0.0,0.9192932067626738,1.220245876862528,0.08317368682169701,0.6,0,1,0.0
5.252387892000115,321,5363.1,-92.0,1.0,-121.5,-0.13,-1.02,-0.2,0.1,-0.92,-0.08,-255.8,295.7,244.0,2.39,-8.33,0.0,0.0,0.9288702815786497,1.0475208828467335,0.07212467976560666,0.6,0,1,0.0
5.261334580000039,322,5363.11,-92.0,1.1,-121.6,-0.05,-0.86,-0.18,0.08,-0.9,-0.08,-252.7,317.2,210.0,2.3,-8.84,0.03,0.0,0.9070832376358853,0.8800568163476719,0.09203348923420362,0.6,0,1,0.0
5.272398152000278,323,5363.12,-92.1,1.1,-121.7,-0.08,-0.76,-0.16,0.06,-0.88,-0.09,-249.4,336.4,211.0,2.21,-9.42,-0.03,0.0,0.8866228059327146,0.7807688518377254,0.11024404251862685,0.6,0,1,0.0
5.281301428000006,324,5363.13,-92.1,1.2,-121.8,-0.13,-0.67,-0.05,0.06,-0.84,-0.11,-245.8,362.3,251.0,2.11,-10.18,-0.01,0.0,0.8492938243034621,0.684324484437025,0.14462156366492174,0.6,0,1,0.0
5.292273945000488,325,5363.14,-92.2,1.2,-121.9,-0.29,-0.54,0.02,0.06,-0.84,-0.13,-242.0,385.1,210.0,2.0,-10.68,-0.09,0.0,0.8521150157109074,0.6132699242584786,0.13896436481232688,0.6,0,1,0.0
5.301343570999961,326,5363.15,-92.2,1.2,-121.9,-0.39,-0.4,0.09,0.04,-0.84,-0.17,-238.0,409.8,278.0,1.89,-11.57,0.08,0.0,0.8579627031520659,0.5658621740318044,0.130454343823745,0.6,0,1,0.0
5.312620972999866,327,5363.16,-92.2,1.2,-121.9,-0.4,-0.24,0.08,0.03,-0.87,-0.17,-233.7,441.0,268.0,1.77,-12.26,-0.15,0.0,0.8869611039949836,0.4732863826479693,0.09942682412121073,0.6,0,1,0.0
5.321318971999972,328,5363.17,-92.3,1.2,-122.0,-0.38,-0.21,0.04,0.03,-0.89,-0.16,-229.1,464.7,254.0,1.64,-12.94,-0.14,0.0,0.9047651629014017,0.4360045871318328,0.07999030991049672,0.6,0,1,0.0
5.332346234999932,329,5363.18,-92.3,1.2,-122.0,-0.25,-0.2,0.01,0.05,-0.93,-0.17,-224.3,489.7,251.0,1.51,-13.62,-0.23,0.0,0.9467312184564318,0.32031234756093935,0.03726376926835728,0.6,0,1,0.0
5.341350040000179,330,5363.19,-92.3,1.2,-122.0,0.01,-0.11,0.02,0.07,-0.95,-0.19,-219.2,520.4,312.0,1.37,-14.57,-0.13,0.0,0.9713392816107047,0.11224972160321824,0.012402591991802714,0.6,0,1,0.0
5.352515524999944,331,5363.2,-92.3,1.1,-122.0,0.26,0.06,0.13,0.1,-0.97,-0.2,-213.8,545.2,226.0,1.22,-15.03,-0.11,0.0,0.9954396013822235,0.2968164415931166,0.011463773224121843,0.6,0,1,0.0
5.36138428600043,332,5363.21,-92.3,1.1,-122.0,0.52,0.35,0.33,0.12,-0.95,-0.22,-208.2,568.9,243.0,1.06,-15.72,-0.05,0.0,0.9824968193332739,0.7083784299369935,0.0014494286483311969,0.6,0,1,0.0
5.372552646000258,333,5363.22,-92.2,1.1,-121.9,0.7,0.55,0.6,0.13,-0.93,-0.21,-202.4,584.8,207.0,0.9,-16.24,0.0,0.0,0.9622369770487934,1.0735455276791943,0.021275085514155467,0.6,0,1,0.0
5.381356460000461,334,5363.23,-92.1,1.0,-121.9,0.83,0.76,0.86,0.15,-0.91,-0.22,-196.4,611.2,204.0,0.73,-16.76,-0.17,0.0,0.9481561052906847,1.416368596093545,0.03464883812681885,0.6,0,1,0.0
5.392452488999879,335,5363.24,-92.0,0.9,-121.8,0.87,0.93,0.99,0.14,-0.9,-0.23,-190.1,626.7,196.0,0.56,-17.31,-0.08,0.0,0.9394147114027969,1.6130406070524077,0.042522427374412586,0.6,0,1,0.0
5.401310414000363,336,5363.25,-92.0,0.8,-121.7,0.77,1.1,1.16,0.14,-0.84,-0.24,-183.7,653.5,298.0,0.38,-18.28,0.06,0.0,0.8847598544237865,1.7744013074837384,0.09523373866635454,0.6,0,1,0.0
5.412542789999861,337,5363.26,-91.9,0.7,-121.5,0.44,1.33,1.4,0.13,-0.82,-0.25,-176.9,682.8,222.0,0.2,-18.74,-0.29,0.0,0.8670640114778146,1.9805302320338358,0.11067098998007985,0.6,0,1,0.0
5.421293320000586,338,5363.27,-91.9,0.5,-121.4,0.2,1.54,1.56,0.12,-0.82,-0.24,-170.0,701.8,166.0,0.01,-19.11,0.01,0.0,0.8627861844049195,2.201181500921721,0.11264984071191553,0.6,0,1,0.0
5.4323777380004685,339,5363.28,-91.9,0.4,-121.2,-0.02,1.75,1.7,0.12,-0.79,-0.24,-162.9,712.3,172.0,-0.18,-19.6,0.06,0.0,0.8343260753446461,2.4398565531604515,0.13828775077674516,0.6,0,1,0.0
5.441492794000624,340,5363.29,-91.9,0.2,-121.0,-0.52,1.96,1.8,0.13,-0.81,-0.24,-155.8,698.4,-239.0,-0.37,-18.21,0.42,0.0,0.8547514258543241,2.711457172813172,0.11550515226172586,0.6,0,1,0.0
5.45232359900001,341,5363.3,-92.0,0.0,-120.8,-0.82,2.11,1.74,0.2,-0.8,-0.23,-149.4,609.7,-848.0,-0.53,-14.91,0.67,0.0,0.8560957890329797,2.855188259992675,0.1118775733014089,0.6,0,1,0.0
5.461466153000401,342,5363.31,-92.0,0.0,-120.6,-0.62,2.48,1.97,0.3,-0.78,-0.26,-144.3,457.0,-1398.0,-0.64,-10.23,0.38,0.0,0.8752142594816426,3.2273363630089755,0.0909039207956911,0.6,0,1,0.0
5.472641944000316,343,5363.32,-92.1,-0.2,-120.3,-0.9,2.89,2.0,0.26,-0.93,-0.28,-140.9,282.3,-1567.0,-0.72,-5.78,0.49,0.0,1.0054352291420865,3.6279608597668194,0.03853070788745783,0.6,0,1,0.0
5.48146479099978,344,5363.33,-92.3,-0.4,-120.0,-2.23,3.21,1.32,0.01,-1.19,-0.24,-139.1,138.1,-1404.0,-0.75,-2.24,0.38,0.0,1.2140016474453401,4.125457550381533,0.24215518366689726,0.6,0,1,0.0
5.4924702610005625,345,5363.34,-92.5,-0.5,-119.7,-2.91,2.87,0.34,-0.17,-1.28,-0.07,-138.6,23.4,-1165.0,-0.75,0.51,0.21,0.0,1.2931357237351382,4.101292479207013,0.3148634747575614,0.6,0,1,0.0
5.501468884000133,346,5363.35,-92.8,-0.5,-119.4,-1.73,1.72,-0.26,-0.22,-1.23,0.02,-138.9,-45.4,-719.0,-0.74,1.71,0.13,0.0,1.249679959029511,2.453344655770974,0.2659795558508954,0.6,0,1,0.0
5.51263209300032,347,5363.36,-92.8,-0.4,-119.3,0.34,0.68,-0.12,-0.18,-1.06,-0.06,-139.6,-85.1,-529.0,-0.71,2.9,0.21,0.0,1.0768472500777444,0.7696752561957543,0.09128390996114633,0.6,0,1,0.0
5.521418694000204,348,5363.37,-92.7,-0.4,-119.3,1.47,0.19,0.43,-0.07,-0.94,-0.19,-140.8,-139.0,-558.0,-0.67,4.47,0.16,0.0,0.9615612304996495,1.5433405327405871,0.023522067424609605,0.6,0,1,0.0
5.5326508030002515,349,5363.38,-92.6,-0.5,-119.3,1.13,0.2,0.72,0.0,-0.96,-0.27,-142.6,-187.2,-449.0,-0.62,5.5,0.23,0.0,0.9972462083156797,1.3547324459095234,0.011919652183592144,0.6,0,1,0.0
5.545428483999785,350,5363.39,-92.6,-0.6,-119.2,-0.85,0.32,0.27,-0.14,-1.23,-0.18,-144.7,-217.6,-338.0,-0.56,6.24,0.18,0.0,1.250959631642844,0.9475230867899737,0.2603204140005413,0.6,0,1,0.0
5.553256900000633,351,5363.4,-92.7,-0.6,-119.2,-1.79,0.2,-0.5,-0.13,-1.32,-0.13,-147.0,-246.8,-314.0,-0.49,7.08,0.0,0.0,1.3327415353323389,1.8692511869730082,0.3352602713362355,0.6,0,1,0.0
5.561503937999987,352,5363.41,-92.9,-0.5,-119.2,-1.68,0.03,-0.97,-0.02,-1.3,-0.1,-149.7,-278.0,-306.0,-0.41,7.9,0.14,0.0,1.303993865016243,1.9401546330125339,0.3003823489997368,0.6,0,1,0.0
5.572658197000237,353,5363.42,-93.1,-0.4,-119.2,-1.4,-0.19,-1.08,0.02,-1.22,-0.17,-152.7,-303.0,-239.0,-0.33,8.43,-0.18,0.0,1.2319496742968032,1.778341924377874,0.22377139511469113,0.6,0,1,0.0
5.5813849140004095,354,5363.43,-93.3,-0.3,-119.2,-1.96,0.0,-1.14,0.04,-1.14,-0.26,-155.8,-315.9,-143.0,-0.24,8.66,-0.11,0.0,1.1699572641767733,2.267421442961145,0.15854340529476785,0.6,0,1,0.0
5.592521302000023,355,5363.44,-93.5,-0.1,-119.2,-2.73,0.48,-1.46,0.03,-1.13,-0.24,-159.0,-320.3,-63.0,-0.16,8.72,-0.08,0.0,1.1555950847939773,3.132874079818721,0.14129760139373237,0.6,0,1,0.0
5.601400905000446,356,5363.45,-93.9,0.0,-119.2,-3.25,0.45,-1.99,0.04,-1.21,-0.15,-162.2,-315.6,46.0,-0.07,8.4,-0.18,0.0,1.2199180300331658,3.837329800785958,0.20150813570026238,0.6,0,1,0.0
5.612548281999807,357,5363.46,-94.2,0.2,-119.2,-3.32,0.5,-2.26,0.07,-1.28,-0.06,-165.2,-298.4,144.0,0.0,7.86,-0.1,0.0,1.2833160171991933,4.047221268969612,0.25960800040896403,0.6,0,1,0.0
5.621430111999871,358,5363.47,-94.5,0.5,-119.1,-2.96,0.58,-2.61,0.13,-1.41,0.02,-168.1,-280.1,153.0,0.07,7.44,0.04,0.0,1.4161214637170074,3.988746670321393,0.38456517798824263,0.6,0,1,0.0
5.632528920000368,359,5363.48,-94.8,0.7,-119.1,-2.9,0.82,-2.89,0.1,-1.44,0.07,-170.8,-263.5,174.0,0.15,6.92,-0.05,0.0,1.445164350515193,4.175464046067216,0.4053359034906996,0.6,0,1,0.0
5.641343426000276,360,5363.49,-95.1,1.0,-119.0,-2.68,1.04,-2.86,0.04,-1.43,0.08,-173.3,-240.1,232.0,0.21,6.18,-0.17,0.0,1.4327944723511463,4.055070899503485,0.38510670482011977,0.6,0,1,0.0
5.65261524700054,361,5363.5,-95.3,1.3,-118.9,-1.5,1.49,-2.39,0.06,-1.3,0.04,-175.5,-211.2,275.0,0.27,5.37,-0.08,0.0,1.3019984639007836,3.1909559696116148,0.24922448244236195,0.6,0,1,0.0
5.661412585000107,362,5363.51,-95.4,1.5,-118.7,-0.36,2.14,-1.6,0.14,-1.15,0.01,-177.3,-180.2,305.0,0.31,4.49,-0.1,0.0,1.1585335558368604,2.6961453966728133,0.10364438289086997,0.6,0,1,0.0
5.672552359000292,363,5363.52,-95.4,1.7,-118.5,0.24,3.05,-0.99,0.18,-1.05,-0.01,-178.9,-146.9,327.0,0.35,3.57,-0.03,0.0,1.065363787633126,3.2156181365330054,0.010265122393392723,0.6,0,1,0.0
5.681213196000499,364,5363.53,-95.3,1.8,-118.1,0.3,3.91,-0.62,0.16,-0.96,0.0,-180.2,-112.5,335.0,0.38,2.64,-0.15,0.0,0.9732420048477152,3.9702015062210636,0.08021952718417757,0.6,0,1,0.0
5.692530821999753,365,5363.54,-95.3,1.9,-117.7,0.33,4.82,-0.32,0.14,-0.9,0.03,-181.1,-79.2,325.0,0.4,1.77,0.08,0.0,0.9113177272499422,4.841869473664072,0.1393009286863116,0.6,0,1,0.0
5.701364381000531,366,5363.55,-95.2,1.9,-117.2,0.45,5.51,-0.2,0.17,-0.96,0.08,-181.6,-52.2,267.0,0.42,1.15,-0.07,0.0,0.9782126558167197,5.531961677379915,0.07095788011714355,0.6,0,1,0.0
5.712635186000625,367,5363.56,-95.2,2.0,-116.6,0.72,6.06,-0.44,0.15,-1.01,0.09,-182.0,-31.0,214.0,0.42,0.64,-0.09,0.0,1.0250365847129554,6.118463859499376,0.02365127219648966,0.6,0,1,0.0
5.721218497000336,368,5363.57,-95.0,2.2,-116.0,1.08,6.2,-0.82,0.09,-1.0,0.11,-182.2,-15.6,164.0,0.43,0.27,-0.08,0.0,1.0100495037373167,6.346558122321107,0.037865586108685845,0.6,0,1,0.0
5.732594728000549,369,5363.58,-94.9,2.3,-115.4,1.49,6.14,-1.23,0.02,-0.98,0.13,-182.3,-4.4,118.0,0.43,0.02,0.0,0.0,0.9887871358386495,6.436815983077348,0.05794539492720596,0.6,0,1,0.0
5.7412244850002025,370,5363.59,-94.7,2.5,-114.8,1.65,5.82,-1.51,-0.02,-0.95,0.12,-182.3,2.3,70.0,0.43,-0.09,0.0,0.0,0.9577577981932592,6.234981956669963,0.08719523792114425,0.6,0,1,0.0
5.752561524000157,371,5363.6,-94.5,2.7,-114.3,1.41,5.37,-1.64,-0.09,-0.93,0.12,-182.3,-0.2,-15.0,0.43,0.08,0.0,0.0,0.942019108086455,5.789179561906852,0.10087524946738957,0.6,0,1,0.0
5.761409122999794,372,5363.61,-94.4,2.9,-113.8,0.84,4.77,-1.45,-0.14,-0.92,0.12,-182.3,-3.2,-4.0,0.43,0.06,0.09,0.0,0.938296328459192,5.055788761410033,0.10250606851275956,0.6,0,1,0.0
5.772427365000112,373,5363.62,-94.3,3.1,-113.3,0.55,4.12,-1.11,-0.17,-0.94,0.1,-182.3,-3.6,-14.0,0.43,0.13,0.03,0.0,0.9604686356149273,4.3022087350569125,0.07872708612988377,0.6,0,1,0.0
5.781347271999948,374,5363.63,-94.2,3.2,-113.0,0.71,3.5,-0.63,-0.18,-0.94,0.06,-182.4,-10.1,-68.0,0.43,0.41,0.0,0.0,0.9589577675789481,3.6264307521308057,0.07863319508254574,0.6,0,1,0.0
5.79245194699979,375,5363.64,-94.1,3.2,-112.6,0.79,2.99,-0.09,-0.18,-0.93,0.01,-182.6,-23.8,-122.0,0.44,0.85,0.07,0.0,0.9473119866232033,3.093913379524385,0.08847339651752473,0.6,0,1,0.0
5.801298762000442,376,5363.65,-94.0,3.2,-112.4,0.89,2.65,0.34,-0.17,-0.93,-0.01,-183.0,-40.9,-165.0,0.45,1.35,-0.23,0.0,0.9454628496138809,2.8160610788830556,0.08851608285631019,0.6,0,1,0.0
5.812420361000477,377,5363.66,-93.9,3.2,-112.1,1.11,2.45,0.66,-0.15,-0.92,-0.01,-183.5,-59.9,-174.0,0.47,1.83,0.15,0.0,0.9322016949137134,2.7695125924970987,0.09974169280534817,0.6,0,1,0.0
5.821313845000077,378,5363.67,-93.8,3.1,-111.9,1.34,2.29,0.81,-0.13,-0.91,-0.01,-184.2,-76.5,-170.0,0.49,2.3,0.21,0.0,0.9192932067626738,2.7741304944072116,0.11039717733726007,0.6,0,1,0.0
5.832389826000508,379,5363.68,-93.6,3.1,-111.6,1.39,2.07,0.8,-0.12,-0.92,0.0,-185.1,-92.8,-153.0,0.52,2.68,0.08,0.0,0.9277930803794562,2.6185874054535585,0.09985935764606813,0.6,0,1,0.0
5.841300447000322,380,5363.69,-93.5,3.0,-111.4,1.26,1.8,0.69,-0.1,-0.91,0.0,-186.1,-105.8,-136.0,0.54,3.02,0.01,0.0,0.9154780172128657,2.3029763350933505,0.10993093239640539,0.6,0,1,0.0
5.852326043000176,381,5363.7,-93.4,3.0,-111.3,1.0,1.47,0.56,-0.07,-0.91,0.0,-187.3,-116.6,-112.0,0.58,3.29,0.04,0.0,0.9126883367283709,1.8640010729610645,0.11046620062328216,0.6,0,1,0.0
5.861349485000574,382,5363.71,-93.3,2.9,-111.1,0.87,1.19,0.44,-0.05,-0.91,-0.01,-188.5,-123.5,-74.0,0.61,3.42,0.01,0.0,0.9114274518577987,1.5383757668398186,0.10949254378397733,0.6,0,1,0.0
5.872276746999887,383,5363.72,-93.2,2.9,-111.0,0.83,0.97,0.31,-0.04,-0.93,-0.03,-189.7,-127.8,-46.0,0.65,3.5,0.11,0.0,0.9313431161500042,1.3137351331223506,0.08778534190193643,0.6,0,1,0.0
5.881311914999969,384,5363.73,-93.1,2.8,-110.9,0.81,0.7,0.38,-0.05,-0.9,-0.03,-191.0,-128.9,-14.0,0.68,3.49,0.03,0.0,0.9018869108707588,1.136001760562016,0.11489671623755826,0.6,0,1,0.0
5.89240021400019,385,5363.74,-93.0,2.7,-110.9,0.68,0.39,0.55,-0.05,-0.9,-0.04,-192.3,-127.6,3.0,0.72,3.45,-0.04,0.0,0.9022749026765623,0.957601169589929,0.11221854994311975,0.6,0,1,0.0
5.901304426000024,386,5363.75,-92.9,2.5,-110.9,0.69,0.12,0.7,-0.07,-0.91,-0.06,-193.6,-125.2,22.0,0.75,3.35,-0.01,0.0,0.91465840618233,0.9902019995940222,0.09783834550860493,0.6,0,1,0.0
5.912415452999994,387,5363.76,-92.8,2.5,-110.9,0.75,-0.06,0.77,-0.07,-0.91,-0.07,-194.8,-121.0,32.0,0.78,3.25,-0.01,0.0,0.9153687781435415,1.0765686229869418,0.09518541407644554,0.6,0,1,0.0
5.921331874999851,388,5363.77,-92.7,2.4,-110.9,0.8,-0.21,0.84,-0.07,-0.91,-0.08,-196.0,-116.6,50.0,0.81,3.08,-0.13,0.0,0.9161877536837086,1.1788553770501282,0.09247910976555285,0.6,0,1,0.0
5.9322782090002875,389,5363.78,-92.7,2.3,-110.9,0.87,-0.28,0.86,-0.06,-0.92,-0.11,-197.1,-109.5,67.0,0.84,2.87,0.24,0.0,0.9284934033152847,1.2549501982150526,0.07856999093129713,0.6,0,1,0.0
5.941281362000154,390,5363.79,-92.6,2.2,-110.9,0.92,-0.32,0.83,-0.05,-0.91,-0.13,-198.1,-102.4,66.0,0.87,2.7,0.01,0.0,0.9205976319760985,1.2797265332874834,0.08473644702507377,0.6,0,1,0.0
5.952334862000498,391,5363.8,-92.5,2.1,-110.9,0.94,-0.3,0.78,-0.04,-0.91,-0.16,-199.1,-95.8,72.0,0.9,2.49,0.01,0.0,0.924824307639024,1.2577758146824098,0.07889957593490526,0.6,0,1,0.0
5.961366133999945,392,5363.81,-92.4,2.0,-111.0,1.03,-0.3,0.66,-0.04,-0.9,-0.17,-200.0,-87.6,71.0,0.92,2.31,-0.04,0.0,0.9167878707749139,1.2595634164265013,0.08519729254303521,0.6,0,1,0.0
5.9725546360004955,393,5363.82,-92.3,2.0,-111.0,1.49,-0.3,0.4,-0.05,-0.9,-0.16,-200.8,-81.7,67.0,0.94,2.12,-0.28,0.0,0.9154780172128657,1.57165517846632,0.08477700318298165,0.6,0,1,0.0
5.981369064000319,394,5363.83,-92.1,2.0,-111.0,2.15,-0.43,0.07,-0.08,-0.85,-0.14,-201.6,-74.7,68.0,0.96,1.96,-0.06,0.0,0.8651589449343975,2.1936955121438344,0.13239415395222087,0.6,0,1,0.0
5.992423561000578,395,5363.84,-91.8,2.0,-111.1,2.48,-0.73,-0.2,-0.11,-0.78,-0.13,-202.3,-67.5,70.0,0.98,1.74,-0.12,0.0,0.798373346248483,2.5929327025590156,0.19519615758537268,0.6,0,1,0.0
6.001265828999749,396,5363.85,-91.6,2.0,-111.2,2.14,-1.03,-0.34,-0.14,-0.72,-0.13,-202.9,-61.6,62.0,1.0,1.6,-0.11,0.0,0.7449161026585477,2.3991873624208675,0.24368033315180182,0.6,0,1,0.0
6.012302609000471,397,5363.86,-91.5,2.0,-111.3,1.04,-1.41,-0.38,-0.15,-0.71,-0.13,-203.5,-54.9,68.0,1.01,1.41,-0.01,0.0,0.7372245248226621,1.7927911200137066,0.2463444727679337,0.6,0,1,0.0
6.025436341000386,398,5363.87,-91.4,2.1,-111.5,0.0,-1.65,-0.4,-0.14,-0.78,-0.12,-204.0,-49.1,50.0,1.02,1.3,-0.08,0.0,0.8014985963805551,1.6977926846349645,0.17842899318583993,0.6,0,1,0.0
6.03352374699989,399,5363.88,-91.5,2.1,-111.7,-0.44,-1.92,-0.45,-0.12,-0.85,-0.12,-204.5,-46.9,31.0,1.04,1.24,0.02,0.0,0.8667756341753037,2.020519735117675,0.11088891628326958,0.6,0,1,0.0
6.041507179999826,400,5363.89,-91.5,2.1,-111.9,-0.48,-2.16,-0.52,-0.09,-0.9,-0.15,-204.9,-45.2,17.0,1.05,1.22,0.07,0.0,0.9168424073961675,2.27297162322806,0.05960570020115763,0.6,0,1,0.0
6.052562889000001,401,5363.9,-91.6,2.2,-112.1,-0.46,-2.31,-0.57,-0.08,-0.9,-0.18,-205.4,-48.4,-33.0,1.06,1.41,-0.15,0.0,0.9213034245024817,2.423344795938044,0.054041789432946574,0.6,0,1,0.0
6.0614286870004435,402,5363.91,-91.6,2.2,-112.3,-0.74,-2.33,-0.58,-0.06,-0.9,-0.18,-206.0,-59.1,-94.0,1.08,1.77,-0.16,0.0,0.9197825830053535,2.512548506994442,0.054451378311473286,0.6,0,1,0.0
6.072613043000274,403,5363.92,-91.7,2.3,-112.6,-1.16,-2.29,-0.57,-0.05,-0.92,-0.16,-206.6,-72.1,-128.0,1.1,2.17,-0.07,0.0,0.9351470472604829,2.629562701287041,0.03830517577521697,0.6,0,1,0.0
6.081479952000336,404,5363.93,-91.9,2.3,-112.8,-1.54,-2.16,-0.52,-0.01,-0.96,-0.16,-207.5,-90.3,-172.0,1.12,2.7,0.03,0.0,0.9732933781753578,2.7032572944505304,0.0001556679631352642,0.6,0,1,0.0
6.0925075519999154,405,5363.94,-92.1,2.4,-113.0,-1.67,-1.89,-0.41,0.03,-1.02,-0.16,-208.6,-112.7,-202.0,1.16,3.29,0.01,0.0,1.0329085148259742,2.5552103631599494,0.05827027931373152,0.6,0,1,0.0
6.101457081000262,406,5363.95,-92.3,2.4,-113.2,-1.23,-1.57,-0.31,0.07,-1.06,-0.18,-209.8,-131.8,-194.0,1.2,3.84,0.34,0.0,1.0774506949276148,2.0183904478569055,0.1007562102270646,0.6,0,1,0.0
6.1127070590000585,407,5363.96,-92.4,2.4,-113.3,-0.47,-1.33,-0.21,0.08,-1.05,-0.23,-211.3,-150.5,-183.0,1.24,4.31,0.27,0.0,1.0778682665335315,1.426148659852822,0.0991503061963217,0.6,0,1,0.0
6.121477073000278,408,5363.97,-92.4,2.4,-113.4,0.09,-1.2,-0.13,0.05,-1.02,-0.23,-212.9,-166.1,-158.0,1.28,4.68,0.07,0.0,1.0468046618161384,1.2103718436910205,0.06672496744934997,0.6,0,1,0.0
6.132558289999906,409,5363.98,-92.4,2.4,-113.6,-0.05,-1.37,0.02,0.01,-0.99,-0.19,-214.7,-181.7,-159.0,1.33,5.14,0.01,0.0,1.0081170566953026,1.3710579856446627,0.027476615081943878,0.6,0,1,0.0
6.141420810000454,410,5363.99,-92.5,2.4,-113.7,-0.72,-1.6,0.25,0.0,-1.05,-0.14,-216.6,-195.7,-142.0,1.38,5.48,0.22,0.0,1.059292216529509,1.7722584461641029,0.07707873941782717,0.6,0,1,0.0
6.152518595999936,411,5364.0,-92.6,2.3,-113.9,-1.12,-1.86,0.54,-0.03,-1.1,-0.13,-218.7,-209.4,-139.0,1.45,5.86,0.12,0.0,1.108061370141564,2.2373198251479383,0.12333093516928462,0.6,0,1,0.0
6.161416867999833,412,5364.01,-92.7,2.3,-114.1,-1.16,-1.96,0.99,-0.03,-1.13,-0.15,-220.3,-217.9,-148.0,1.5,6.11,0.06,0.0,1.1403069762129843,2.4834049206683955,0.15246501041589078,0.6,0,1,0.0
6.172594643000593,413,5364.02,-92.8,2.1,-114.3,-0.72,-1.95,1.41,-0.05,-1.17,-0.2,-223.0,-232.3,-140.0,1.56,6.49,0.16,0.0,1.1880235687897778,2.5117722826721374,0.19617797093283063,0.6,0,1,0.0
6.181389829000182,414,5364.03,-92.9,2.0,-114.5,-0.29,-1.98,1.57,-0.06,-1.16,-0.2,-225.5,-247.9,-151.0,1.63,6.92,0.01,0.0,1.1786432878526056,2.543501523490796,0.18306173619574528,0.6,0,1,0.0
6.192567533000329,415,5364.04,-92.9,1.8,-114.6,-0.52,-1.92,1.75,-0.05,-1.14,-0.17,-228.1,-265.1,-170.0,1.71,7.43,0.07,0.0,1.1536897329871665,2.649396157617807,0.15494601770369998,0.6,0,1,0.0
6.201237033000325,416,5364.05,-93.0,1.6,-114.8,-1.23,-1.7,2.08,0.03,-1.22,-0.12,-230.8,-283.8,-178.0,1.78,7.91,-0.04,0.0,1.2262544597268545,2.9545388811115685,0.22296052955452028,0.6,0,1,0.0
6.212552261000383,417,5364.06,-93.2,1.4,-115.0,-1.3,-1.47,2.17,0.13,-1.4,-0.04,-233.8,-305.3,-204.0,1.87,8.54,0.07,0.0,1.4065916251705752,2.9257135881695597,0.3952317410982762,0.6,0,1,0.0
6.221288007000112,418,5364.07,-93.2,1.2,-115.1,-0.33,-1.31,2.06,0.12,-1.43,0.02,-237.0,-323.5,-164.0,1.96,8.94,0.11,0.0,1.4351654956833375,2.4634528613310223,0.4153294993788177,0.6,0,1,0.0
6.232383874000334,419,5364.08,-93.2,1.0,-115.2,0.27,-1.09,2.45,0.08,-1.33,0.05,-240.3,-335.8,-146.0,2.04,9.3,0.05,0.0,1.3333416666406253,2.695088124718745,0.3072355569293834,0.6,0,1,0.0
6.24140459299997,420,5364.09,-93.2,0.7,-115.3,0.23,-0.85,3.08,0.11,-1.33,0.15,-243.8,-357.3,-213.0,2.15,10.05,0.12,0.0,1.3429445260322557,3.203404439030451,0.31050164799459345,0.6,0,1,0.0
6.2524961879998955,421,5364.1,-93.1,0.4,-115.3,0.6,-1.08,3.16,0.06,-1.33,0.26,-247.6,-378.6,-179.0,2.25,10.45,0.02,0.0,1.3565028566132842,3.392933833719721,0.3175787790041096,0.6,0,1,0.0
6.261394434000067,422,5364.11,-93.0,0.1,-115.5,0.82,-1.89,2.84,-0.11,-1.19,0.32,-251.4,-393.0,-168.0,2.36,10.9,0.13,0.0,1.2371741995369931,3.5085752093976836,0.19428511948926208,0.6,0,1,0.0
6.2726133000005575,423,5364.12,-93.0,-0.1,-115.7,0.51,-2.88,2.48,-0.25,-1.07,0.32,-255.5,-406.5,-103.0,2.47,11.06,0.06,0.0,1.1444649404852907,3.834696858944654,0.09954434322880834,0.6,0,1,0.0
6.281293546000597,424,5364.13,-92.9,-0.3,-116.0,0.22,-3.71,2.01,-0.32,-1.03,0.3,-259.5,-399.9,47.0,2.58,10.68,-0.18,0.0,1.1195088208674375,4.225233721346075,0.07309645913873619,0.6,0,1,0.0
6.292311158999837,425,5364.14,-92.9,-0.5,-116.4,0.02,-4.46,1.48,-0.33,-1.0,0.28,-263.4,-382.5,155.0,2.68,10.08,-0.05,0.0,1.0896329657274508,4.699191419808305,0.04235619191877449,0.6,0,1,0.0
6.301467166000293,426,5364.15,-92.9,-0.7,-116.9,-0.09,-5.0,1.08,-0.28,-0.98,0.24,-267.1,-354.4,261.0,2.77,9.21,-0.26,0.0,1.047091209016674,5.11610203182071,0.00018185349616239854,0.6,0,1,0.0
6.3126112680001825,427,5364.16,-92.9,-0.8,-117.4,-0.13,-5.4,0.8,-0.18,-0.98,0.19,-270.4,-318.7,335.0,2.86,8.18,-0.18,0.0,1.014347080638575,5.460485326415593,0.03226746223677601,0.6,0,1,0.0
6.321368650000295,428,5364.17,-92.9,-0.9,-118.0,0.07,-5.62,0.65,-0.08,-0.98,0.14,-273.3,-275.4,420.0,2.93,6.89,-0.07,0.0,0.9931767214348108,5.657897135862404,0.05236906501172944,0.6,0,1,0.0
6.332649083000433,429,5364.18,-92.9,-1.0,-118.5,0.48,-5.5,0.57,0.0,-0.98,0.07,-275.7,-225.9,473.0,2.99,5.53,-0.24,0.0,0.9824968193332739,5.550252246519972,0.06178798777100103,0.6,0,1,0.0
6.341437681000571,430,5364.19,-92.8,-1.1,-119.1,0.65,-5.11,0.52,0.06,-0.96,0.02,-277.6,-177.0,475.0,3.04,4.24,-0.2,0.0,0.9620810776644555,5.177354536826699,0.08055965485102301,0.6,0,1,0.0
6.352393566000501,431,5364.2,-92.7,-1.1,-119.5,0.68,-4.56,0.37,0.1,-0.99,0.01,-279.0,-130.7,465.0,3.07,2.99,-0.22,0.0,0.9950879358127099,4.625245939406898,0.04660174076871326,0.6,0,1,0.0
6.361492570000337,432,5364.21,-92.6,-1.2,-120.0,0.61,-4.03,0.03,0.12,-0.98,0.0,-280.0,-83.7,465.0,3.09,1.72,-0.31,0.0,0.9873196037757985,4.076015210962786,0.053282671349512256,0.6,0,1,0.0
6.372554884999772,433,5364.22,-92.6,-1.2,-120.3,0.03,-3.52,-0.27,0.13,-0.98,-0.02,-280.5,-38.0,464.0,3.1,0.46,-0.21,0.0,0.9887871358386495,3.530467391153755,0.05077883650092807,0.6,0,1,0.0
6.381474662000073,434,5364.23,-92.6,-1.2,-120.7,-0.46,-2.99,-0.62,0.14,-0.99,-0.03,-280.6,6.3,425.0,3.1,-0.62,-0.22,0.0,1.000299955013495,3.088057641949062,0.038480696979561024,0.6,0,1,0.0
6.392551746000208,435,5364.24,-92.7,-1.1,-120.9,-0.69,-2.53,-0.95,0.12,-0.96,-0.02,-280.3,37.3,325.0,3.09,-1.33,-0.09,0.0,0.9676776322722356,2.7891755054137413,0.06968095932640406,0.6,0,1,0.0
6.401409416000206,436,5364.25,-92.8,-1.0,-121.2,-0.81,-2.18,-1.12,0.1,-0.92,-0.01,-279.8,62.9,280.0,3.07,-2.02,-0.09,0.0,0.9254728521139883,2.581259382549534,0.10964802469495827,0.6,0,1,0.0
6.412468939000064,437,5364.26,-92.8,-0.9,-121.4,-0.81,-1.9,-1.15,0.09,-0.89,-0.01,-279.0,88.4,259.0,3.04,-2.7,-0.15,0.0,0.8945948803788226,2.3640219965135687,0.1377154765015216,0.6,0,1,0.0
6.42115850800019,438,5364.27,-92.9,-0.7,-121.6,-0.83,-1.7,-1.08,0.08,-0.87,-0.02,-277.9,113.0,244.0,3.01,-3.34,0.01,0.0,0.8738993077008357,2.178370950963127,0.1552428281959184,0.6,0,1,0.0
6.432017819000066,439,5364.28,-93.0,-0.6,-121.7,-0.83,-1.56,-0.96,0.06,-0.87,-0.03,-276.6,136.8,243.0,2.97,-4.01,0.26,0.0,0.8725823743349392,2.010994778710278,0.15342856633057855,0.6,0,1,0.0
6.441150753000329,440,5364.29,-93.0,-0.5,-121.9,-0.76,-1.41,-0.81,0.04,-0.87,-0.05,-275.1,162.6,263.0,2.93,-4.77,-0.08,0.0,0.8723531395025755,1.794937324811092,0.1505846451396834,0.6,0,1,0.0
6.4523949260001245,441,5364.3,-93.1,-0.4,-122.0,-0.68,-1.22,-0.6,0.04,-0.87,-0.07,-273.2,191.5,278.0,2.88,-5.53,-0.06,0.0,0.8737276463521113,1.5201315732527891,0.1462259355243447,0.6,0,1,0.0
6.461207659000138,442,5364.31,-93.2,-0.3,-122.1,-0.44,-0.96,-0.39,0.05,-0.88,-0.09,-271.1,218.5,272.0,2.82,-6.27,-0.01,0.0,0.8860022573334675,1.1257441982972864,0.1312722980521287,0.6,0,1,0.0
6.472489777000192,443,5364.32,-93.3,-0.2,-122.2,-0.14,-0.67,-0.25,0.06,-0.88,-0.1,-268.8,244.5,260.0,2.75,-6.96,-0.06,0.0,0.8876936408468858,0.7286974680894672,0.1269892962479362,0.6,0,1,0.0
6.481122954000057,444,5364.33,-93.3,-0.2,-122.3,0.03,-0.38,-0.17,0.07,-0.88,-0.1,-266.2,268.8,250.0,2.67,-7.61,0.01,0.0,0.8884255736976508,0.41737273509418416,0.12373221612922769,0.6,0,1,0.0
6.492575608000152,445,5364.34,-93.3,-0.2,-122.3,0.0,-0.09,-0.17,0.07,-0.88,-0.1,-263.3,293.6,245.0,2.59,-8.27,-0.15,0.0,0.8884255736976508,0.19235384061671346,0.1212575718066432,0.6,0,1,0.0
6.5013217770001575,446,5364.35,-93.3,-0.2,-122.3,-0.13,0.12,-0.3,0.08,-0.9,-0.1,-260.2,315.9,228.0,2.51,-8.86,-0.07,0.0,0.9090654541890809,0.34828149534535996,0.09860533748890898,0.6,0,1,0.0
6.512382640999931,447,5364.36,-93.3,-0.1,-122.3,-0.19,0.3,-0.51,0.07,-0.91,-0.11,-256.9,340.5,256.0,2.41,-9.61,-0.14,0.0,0.9192932067626738,0.6214499175315739,0.08661003321700989,0.6,0,1,0.0
6.521123186000295,448,5364.37,-93.3,0.0,-122.2,-0.33,0.46,-0.71,0.08,-0.91,-0.12,-253.3,365.4,227.0,2.31,-10.16,-0.12,0.0,0.9213576938409967,0.9080748867797193,0.08285463521591308,0.6,0,1,0.0
6.532360713000344,449,5364.38,-93.4,0.0,-122.2,-0.56,0.6,-0.84,0.07,-0.9,-0.15,-249.5,383.1,202.0,2.21,-10.68,-0.14,0.0,0.9150956234186677,1.174393460472256,0.0873343715254774,0.6,0,1,0.0
6.54110891900018,450,5364.39,-93.4,0.0,-122.1,-0.66,0.67,-0.9,0.05,-0.91,-0.16,-245.5,408.8,253.0,2.09,-11.45,-0.37,0.0,0.9253107586103168,1.3017296186228537,0.07557685160715166,0.6,0,1,0.0
6.55244576000041,451,5364.4,-93.5,0.1,-122.1,-0.6,0.67,-0.91,0.04,-0.92,-0.18,-241.3,430.7,211.0,1.98,-11.95,-0.18,0.0,0.9382963284591921,1.2794530081249564,0.06133945612311076,0.6,0,1,0.0
6.5612170510003125,452,5364.41,-93.6,0.2,-122.0,-0.49,0.64,-0.86,0.03,-0.92,-0.19,-236.8,459.5,302.0,1.85,-12.92,-0.01,0.0,0.9398936110007345,1.178685708745126,0.05854733010993696,0.6,0,1,0.0
6.5725632399999085,453,5364.42,-93.6,0.3,-122.0,-0.32,0.57,-0.74,0.03,-0.93,-0.2,-232.0,488.8,258.0,1.72,-13.55,-0.15,0.0,0.9517352573063583,0.9873702446397703,0.04577157012822686,0.6,0,1,0.0
6.581197931000133,454,5364.43,-93.6,0.4,-121.9,-0.09,0.52,-0.48,0.03,-0.93,-0.21,-226.9,512.0,249.0,1.58,-14.22,0.01,0.0,0.9538867857350788,0.7133722730804724,0.0427476408655163,0.6,0,1,0.0
6.592486274999828,455,5364.44,-93.6,0.4,-121.9,0.22,0.52,-0.14,0.05,-0.93,-0.22,-221.6,537.0,269.0,1.43,-14.99,-0.04,0.0,0.9569743988216195,0.5817215828899596,0.03886682722339607,0.6,0,1,0.0
6.601200144000359,456,5364.45,-93.6,0.4,-121.8,0.71,0.63,0.13,0.07,-0.94,-0.22,-216.0,566.9,243.0,1.27,-15.6,-0.18,0.0,0.9679359482941007,0.9580709785814411,0.027347172195896552,0.6,0,1,0.0
6.61254762200042,457,5364.46,-93.5,0.4,-121.7,1.11,0.77,0.36,0.09,-0.91,-0.21,-210.2,586.5,253.0,1.11,-16.31,0.09,0.0,0.9382430388763884,1.3980700983856282,0.0558992799813367,0.6,0,1,0.0
6.62109806799981,458,5364.47,-93.3,0.3,-121.6,1.23,0.94,0.71,0.1,-0.88,-0.23,-204.2,607.9,186.0,0.95,-16.72,-0.2,0.0,0.9150409826887537,1.7031147935473991,0.07751930944559193,0.6,0,1,0.0
6.632314944999962,459,5364.48,-93.2,0.2,-121.5,1.15,1.1,0.9,0.1,-0.87,-0.23,-197.9,636.1,277.0,0.77,-17.63,-0.05,0.0,0.9054280755532159,1.8282505298782221,0.08538957224950705,0.6,0,1,0.0
6.641094431000056,460,5364.49,-93.1,0.2,-121.4,0.91,1.29,1.04,0.09,-0.84,-0.24,-191.4,657.8,227.0,0.59,-18.17,0.11,0.0,0.8782368700982668,1.8904496819540055,0.11032916215036703,0.6,0,1,0.0
6.652270520999991,461,5364.5,-93.0,0.1,-121.3,0.37,1.52,1.07,0.09,-0.84,-0.24,-184.7,684.2,297.0,0.41,-19.1,-0.07,0.0,0.8782368700982668,1.8953100010288555,0.10812257890735966,0.6,0,1,0.0
6.661098637000578,462,5364.51,-93.0,0.0,-121.1,-0.06,1.69,1.04,0.09,-0.84,-0.24,-177.6,715.9,231.0,0.21,-19.59,0.07,0.0,0.8782368700982668,1.985270762389856,0.10596012732921245,0.6,0,1,0.0
6.672265676000279,463,5364.52,-93.1,0.0,-120.9,-0.49,1.88,1.03,0.09,-0.83,-0.25,-170.3,729.0,116.0,0.01,-19.72,-0.24,0.0,0.8714929718592113,2.198954296932976,0.11044994505690264,0.6,0,1,0.0
6.6810906720002095,464,5364.53,-93.1,-0.1,-120.7,-0.76,2.03,1.04,0.1,-0.83,-0.24,-163.1,722.0,-33.0,-0.17,-19.39,0.39,0.0,0.8697700845625814,2.404183853202579,0.10992937570646188,0.6,0,1,0.0
6.692392564000329,465,5364.54,-93.2,-0.2,-120.5,-0.99,2.17,1.04,0.15,-0.85,-0.23,-156.2,658.2,-686.0,-0.35,-16.37,0.55,0.0,0.8932524839036272,2.6020376630633155,0.08471803683810775,0.6,0,1,0.0
6.7010913250005615,466,5364.55,-93.3,-0.3,-120.2,-0.58,2.36,1.09,0.28,-0.84,-0.25,-150.6,508.4,-1369.0,-0.48,-11.55,0.75,0.0,0.9200543462209175,2.6634751735279982,0.056757851030401096,0.6,0,1,0.0
6.712349717000507,467,5364.56,-93.3,-0.4,-120.0,-0.36,2.72,1.12,0.32,-0.95,-0.24,-146.8,330.2,-1577.0,-0.56,-7.01,0.61,0.0,1.0307764064044151,2.963511430718633,0.05288492497003461,0.6,0,1,0.0
6.721095720000449,468,5364.57,-93.4,-0.5,-119.7,-1.62,3.15,0.58,0.07,-1.19,-0.2,-144.5,183.5,-1412.0,-0.61,-3.48,0.53,0.0,1.2087183294713453,3.5893314140658563,0.22621031107622547,0.6,0,1,0.0
6.7322723630004475,469,5364.58,-93.7,-0.5,-119.4,-2.59,3.07,-0.38,-0.15,-1.25,-0.09,-143.5,66.9,-1207.0,-0.62,-0.51,0.37,0.0,1.2621806526801145,4.03452599446329,0.2740791815992948,0.6,0,1,0.0
6.7410863599998265,470,5364.59,-93.9,-0.4,-119.1,-1.6,2.27,-0.99,-0.23,-1.16,0.0,-143.5,-21.7,-851.0,-0.61,1.19,0.16,0.0,1.1825819210524064,2.94838939083697,0.19059084097215506,0.6,0,1,0.0
6.752253239999845,471,5364.6,-94.0,-0.3,-118.9,0.36,1.19,-0.86,-0.18,-0.97,-0.03,-144.0,-60.4,-494.0,-0.59,1.98,0.21,0.0,0.9870157040290696,1.5117208737065186,0.0048758685301582005,0.6,0,1,0.0
6.761097268000412,472,5364.61,-93.9,-0.2,-118.9,1.4,0.52,-0.27,-0.08,-0.86,-0.13,-144.9,-98.6,-490.0,-0.57,3.36,0.18,0.0,0.8734414691323054,1.5176626766182266,0.11608110135838401,0.6,0,1,0.0
6.772395007999876,473,5364.62,-93.8,-0.2,-118.8,1.31,0.12,0.04,0.08,-0.82,-0.22,-146.2,-150.7,-477.0,-0.52,4.61,0.12,0.0,0.8527602242131136,1.3160927019021116,0.13402709935202428,0.6,0,1,0.0
6.781107785000131,474,5364.63,-93.7,-0.2,-118.8,-0.11,0.45,0.06,0.03,-1.0,-0.28,-148.0,-187.2,-374.0,-0.47,5.45,0.17,0.0,1.0388936422945325,0.46711882856506654,0.05106419235480675,0.6,0,1,0.0
6.792309573999773,475,5364.64,-93.8,-0.2,-118.8,-1.61,0.44,-0.57,-0.08,-1.17,-0.2,-150.1,-216.7,-324.0,-0.41,6.26,0.16,0.0,1.189663818059539,1.7636893150438941,0.19779768075741688,0.6,0,1,0.0
6.801114202000463,476,5364.65,-94.0,-0.1,-118.7,-2.08,0.58,-1.02,-0.06,-1.24,-0.15,-152.5,-247.9,-312.0,-0.34,7.1,0.17,0.0,1.2504799078753726,2.3881373494839027,0.2534414951617855,0.6,0,1,0.0
6.8123967500005165,477,5364.66,-94.2,0.0,-118.7,-1.74,0.19,-1.4,-0.03,-1.28,-0.12,-155.1,-271.5,-230.0,-0.27,7.58,0.07,0.0,1.2859626744194406,2.2413611935607345,0.28314577647173644,0.6,0,1,0.0
6.821107442000539,478,5364.67,-94.4,0.0,-118.7,-1.72,-0.06,-1.78,-0.02,-1.28,-0.16,-157.9,-284.8,-147.0,-0.19,7.85,0.09,0.0,1.290116273829611,2.4759644585494356,0.2815533883642687,0.6,0,1,0.0
6.8323729040002945,479,5364.68,-94.6,0.2,-118.7,-2.21,-0.16,-2.33,-0.03,-1.28,-0.17,-160.8,-290.6,-64.0,-0.11,7.88,-0.07,0.0,1.2915881696578053,3.2153693411488513,0.27736477850861374,0.6,0,1,0.0
6.84110439899996,480,5364.69,-94.9,0.4,-118.8,-2.88,-0.27,-2.94,-0.07,-1.29,-0.11,-163.7,-283.8,61.0,-0.03,7.5,0.0,0.0,1.2965724044572289,4.124427232962172,0.27670203304187657,0.6,0,1,0.0
6.852306409000448,481,5364.7,-95.2,0.7,-118.8,-3.31,-0.52,-3.43,-0.08,-1.37,0.0,-166.4,-263.5,167.0,0.03,6.88,0.06,0.0,1.3723337786413334,4.794934827502873,0.34541413908146157,0.6,0,1,0.0
6.861118892000377,482,5364.71,-95.5,1.1,-118.9,-3.19,-0.93,-3.93,-0.09,-1.48,0.07,-168.9,-242.5,185.0,0.09,6.36,-0.07,0.0,1.4843853947004464,5.146445375208018,0.44831644003776305,0.6,0,1,0.0
6.872410065000622,483,5364.72,-95.8,1.5,-119.1,-2.88,-1.31,-4.02,-0.06,-1.41,0.06,-171.2,-223.5,189.0,0.15,5.83,-0.24,0.0,1.4125508840392262,5.115750189366169,0.36895229078901215,0.6,0,1,0.0
6.881110592999903,484,5364.73,-96.1,1.8,-119.3,-2.09,-1.39,-3.34,0.03,-1.28,0.01,-173.3,-203.3,200.0,0.21,5.27,-0.1,0.0,1.2803905654135381,4.178013882217242,0.23205613272005765,0.6,0,1,0.0
6.892277625000133,485,5364.74,-96.2,2.1,-119.4,-1.0,-1.01,-2.11,0.19,-1.09,-0.04,-175.2,-182.9,201.0,0.25,4.73,0.0,0.0,1.1071585252347562,2.5440518862633286,0.05764761069045021,0.6,0,1,0.0
6.901092482000422,486,5364.75,-96.3,2.2,-119.5,-0.35,-0.16,-0.71,0.34,-0.98,-0.08,-176.9,-164.5,177.0,0.3,4.28,-0.09,0.0,1.040384544291196,0.8075890043827987,0.008943842848047723,0.6,0,1,0.0
6.912389236999843,487,5364.76,-96.3,2.2,-119.5,-0.21,0.95,0.36,0.45,-0.94,-0.17,-178.4,-148.3,167.0,0.34,3.83,0.05,0.0,1.0559356040971437,1.037400597647794,0.006475072618741917,0.6,0,1,0.0
6.921146100000442,488,5364.77,-96.3,2.2,-119.3,-0.04,2.26,0.9,0.44,-0.98,-0.17,-179.8,-133.0,156.0,0.37,3.43,0.0,0.0,1.087612063191651,2.4329406075775872,0.03738850107898428,0.6,0,1,0.0
6.93258333599988,489,5364.78,-96.3,2.1,-119.0,0.1,3.73,1.09,0.35,-0.94,-0.12,-181.0,-116.0,169.0,0.41,2.94,-0.09,0.0,1.010198000393982,3.887286971655167,0.03922505048431102,0.6,0,1,0.0
6.9412252950005495,490,5364.79,-96.3,2.0,-118.5,0.6,5.05,1.21,0.26,-0.95,-0.03,-182.0,-99.8,158.0,0.43,2.53,-0.14,0.0,0.985393322486001,5.227485054976245,0.06274913382444636,0.6,0,1,0.0
6.95242928100015,491,5364.8,-96.1,2.0,-117.9,1.15,5.96,1.14,0.19,-1.0,0.04,-182.9,-81.9,177.0,0.45,2.0,0.01,0.0,1.0186756107809787,6.176058613711499,0.028877508618879277,0.6,0,1,0.0
6.961258923000059,492,5364.81,-96.0,2.0,-117.3,1.61,6.48,0.76,0.1,-1.02,0.08,-183.6,-62.4,194.0,0.47,1.43,-0.14,0.0,1.0280077820717117,6.720126486904841,0.019154430581583393,0.6,0,1,0.0
6.972533766000197,493,5364.82,-95.8,2.0,-116.6,1.86,6.67,0.21,0.0,-1.0,0.1,-184.1,-43.8,183.0,0.48,0.97,-0.09,0.0,1.004987562112089,6.927669160691783,0.04133115753038208,0.6,0,1,0.0
6.981097818999842,494,5364.83,-95.5,2.1,-116.0,2.16,6.44,-0.3,-0.09,-0.98,0.13,-184.4,-27.7,161.0,0.49,0.57,-0.09,0.0,0.9926731586982696,6.799205835978199,0.05257264972531739,0.6,0,1,0.0
6.9924367869998605,495,5364.84,-95.3,2.2,-115.4,2.23,5.92,-0.71,-0.17,-0.93,0.13,-184.6,-11.1,173.0,0.49,0.07,-0.06,0.0,0.9543060305792896,6.365799242828822,0.08912098228741128,0.6,0,1,0.0
7.001125741000578,496,5364.85,-95.1,2.3,-114.8,1.78,5.27,-0.79,-0.22,-0.89,0.11,-184.6,2.6,116.0,0.49,-0.13,0.0,0.0,0.9233634170791044,5.618309354245278,0.1176623238718445,0.6,0,1,0.0
7.012546843000564,497,5364.86,-94.9,2.4,-114.3,1.23,4.64,-0.63,-0.23,-0.89,0.09,-184.5,5.0,40.0,0.49,-0.12,0.07,0.0,0.9236341266973628,4.841425409938688,0.1150437819685145,0.6,0,1,0.0
7.02116783800011,498,5364.87,-94.8,2.5,-113.9,0.96,3.96,-0.37,-0.2,-0.9,0.09,-184.5,-0.8,-40.0,0.49,0.12,-0.14,0.0,0.9263368717696603,4.091466729670425,0.11009421615829273,0.6,0,1,0.0
7.032534071000555,499,5364.88,-94.7,2.6,-113.6,0.81,3.3,-0.12,-0.14,-0.9,0.06,-184.6,-8.3,-60.0,0.49,0.32,0.03,0.0,0.9127978965795221,3.4000735286166974,0.12116052752146234,0.6,0,1,0.0
7.041121256000224,500,5364.89,-94.6,2.6,-113.3,0.35,2.82,0.22,-0.09,-0.89,0.0,-184.7,-20.0,-121.0,0.5,0.75,-0.01,0.0,0.8945389874119518,2.850140347421509,0.13663104795525194,0.6,0,1,0.0
7.052370594000422,501,5364.9,-94.6,2.6,-113.0,-0.05,2.5,0.58,-0.07,-0.93,-0.04,-185.0,-35.9,-140.0,0.51,1.15,0.01,0.0,0.9334880824091972,2.5668852720758677,0.0957283138988464,0.6,0,1,0.0
7.061272982000446,502,5364.91,-94.6,2.5,-112.8,0.06,2.33,0.82,-0.07,-0.99,-0.04,-185.5,-52.4,-165.0,0.52,1.65,0.0,0.0,0.9932774033471213,2.4708095839218367,0.03522021310170376,0.6,0,1,0.0
7.0725372779998,503,5364.92,-94.5,2.4,-112.5,0.54,2.2,1.0,-0.06,-1.01,-0.04,-186.2,-72.5,-193.0,0.54,2.22,0.0,0.0,1.0125709851659783,2.4762067765031257,0.015608098657189817,0.6,0,1,0.0
7.081115977000081,504,5364.93,-94.4,2.3,-112.3,1.04,2.05,1.13,-0.06,-1.0,-0.04,-187.0,-92.1,-190.0,0.57,2.73,-0.01,0.0,1.0025966287595427,2.561444904736387,0.025070805962353004,0.6,0,1,0.0
7.092341233999832,505,5364.94,-94.3,2.1,-112.1,1.36,1.95,1.12,-0.07,-0.98,-0.05,-188.2,-111.2,-176.0,0.6,3.2,0.1,0.0,0.9837682653958705,2.628022069922549,0.04302118593950477,0.6,0,1,0.0
7.101120582000476,506,5364.95,-94.1,2.0,-111.9,1.46,1.81,1.04,-0.08,-0.94,-0.04,-189.4,-125.5,-156.0,0.64,3.6,0.02,0.0,0.9442457307290301,2.5474104498490227,0.08089284619421833,0.6,0,1,0.0
7.112424263999856,507,5364.96,-94.0,1.9,-111.7,1.31,1.64,1.04,-0.08,-0.91,-0.05,-190.7,-138.5,-126.0,0.68,3.88,0.17,0.0,0.9148770409186143,2.342498665954796,0.10805630528454147,0.6,0,1,0.0
7.121323498000493,508,5364.97,-93.9,1.7,-111.5,0.93,1.54,1.09,-0.08,-0.89,-0.06,-192.2,-146.6,-89.0,0.72,4.05,-0.01,0.0,0.8956003573022959,2.103473318109835,0.1247863291228426,0.6,0,1,0.0
7.132447408000189,509,5364.98,-93.8,1.6,-111.4,0.58,1.36,1.14,-0.08,-0.88,-0.07,-193.7,-150.6,-50.0,0.76,4.13,0.01,0.0,0.8863972021616494,1.8669761648183942,0.1313096945782194,0.6,0,1,0.0
7.141117607000524,510,5364.99,-93.8,1.4,-111.3,0.45,1.23,1.04,-0.07,-0.9,-0.08,-195.2,-153.2,-31.0,0.8,4.18,-0.07,0.0,0.9062560344626678,1.6724233913695419,0.1092218450316571,0.6,0,1,0.0
7.152386536000449,511,5365.0,-93.7,1.3,-111.1,0.31,1.0,1.13,-0.07,-0.88,-0.09,-196.7,-153.5,-4.0,0.84,4.15,-0.09,0.0,0.8873556220591606,1.5404544783926593,0.12555981228646107,0.6,0,1,0.0
7.161119977000453,512,5365.01,-93.7,1.1,-111.0,0.25,0.76,1.23,-0.08,-0.87,-0.11,-197.9,-151.8,17.0,0.88,4.07,0.02,0.0,0.8805679985100526,1.467310464761974,0.12970048711885773,0.6,0,1,0.0
7.172446319000301,513,5365.02,-93.7,1.0,-111.0,0.3,0.6,1.24,-0.09,-0.89,-0.14,-199.6,-146.6,44.0,0.92,3.91,-0.24,0.0,0.9054280755532159,1.4098226838861687,0.10274360187418063,0.6,0,1,0.0
7.181148915999984,514,5365.03,-93.6,0.9,-110.9,0.4,0.48,1.11,-0.1,-0.91,-0.15,-201.1,-140.1,62.0,0.95,3.71,0.12,0.0,0.9276852914647294,1.2737739202856997,0.07887665824341383,0.6,0,1,0.0
7.192547323000326,515,5365.04,-93.6,0.8,-110.9,0.58,0.41,0.94,-0.12,-0.93,-0.16,-202.4,-130.8,83.0,0.99,3.45,0.25,0.0,0.951262319236918,1.1781765572273113,0.05419363786180076,0.6,0,1,0.0
7.201128271000016,516,5365.05,-93.5,0.7,-110.8,0.83,0.31,0.83,-0.14,-0.92,-0.17,-203.6,-121.7,94.0,1.02,3.17,0.0,0.0,0.9459915433025815,1.2140428328522845,0.05827512552021441,0.6,0,1,0.0
7.212243292000494,517,5365.06,-93.4,0.6,-110.8,1.09,0.25,0.68,-0.15,-0.93,-0.17,-204.8,-111.1,101.0,1.05,2.89,0.12,0.0,0.9572356031824141,1.308816259067712,0.046090444327574254,0.6,0,1,0.0
7.221112094000091,518,5365.07,-93.3,0.6,-110.8,1.62,0.15,0.35,-0.16,-0.93,-0.17,-205.8,-101.8,94.0,1.08,2.64,0.0,0.0,0.9588534820294496,1.6641514354168614,0.04358311417092797,0.6,0,1,0.0
7.232531781000034,519,5365.08,-93.1,0.6,-110.8,2.33,-0.08,-0.13,-0.18,-0.88,-0.16,-206.8,-91.2,103.0,1.1,2.35,0.03,0.0,0.9123595782365634,2.3349946466748057,0.0882754776045378,0.6,0,1,0.0
7.241115155000443,520,5365.09,-92.8,0.6,-110.8,2.53,-0.46,-0.46,-0.19,-0.77,-0.16,-207.6,-81.6,98.0,1.13,2.09,-0.03,0.0,0.8090735442467514,2.6122978390681255,0.18773028136246284,0.6,0,1,0.0
7.2524229059999925,521,5365.1,-92.6,0.7,-110.9,1.94,-0.87,-0.63,-0.18,-0.7,-0.16,-208.4,-73.9,70.0,1.15,1.95,-0.14,0.0,0.7402702209328699,2.2175211385689204,0.25140293258281743,0.6,0,1,0.0
7.261122517000331,522,5365.11,-92.5,0.7,-111.0,0.62,-1.16,-0.58,-0.16,-0.67,-0.16,-209.1,-70.5,41.0,1.16,1.89,0.09,0.0,0.7071774883294859,1.4374978260853126,0.27880575188247736,0.6,0,1,0.0
7.2724220690006405,523,5365.12,-92.5,0.8,-111.1,-0.74,-1.46,-0.51,-0.11,-0.71,-0.17,-209.8,-70.5,3.0,1.18,1.94,0.07,0.0,0.7383088784512889,1.7144386836512993,0.24272087452546087,0.6,0,1,0.0
7.281126110000514,524,5365.13,-92.6,0.8,-111.3,-1.47,-1.66,-0.48,-0.06,-0.8,-0.19,-210.5,-75.3,-41.0,1.2,2.13,0.18,0.0,0.8244392033376385,2.2686780291614763,0.15345873864632897,0.6,0,1,0.0
7.292457035000552,525,5365.14,-92.7,0.9,-111.4,-1.31,-1.76,-0.61,-0.02,-0.87,-0.22,-211.3,-83.6,-73.0,1.23,2.38,0.09,0.0,0.8976079322287654,2.2772351657218013,0.07868420956009803,0.6,0,1,0.0
7.301129039999978,526,5365.15,-92.9,0.9,-111.6,-0.9,-1.69,-0.71,0.0,-0.88,-0.2,-212.2,-92.2,-78.0,1.25,2.61,0.1,0.0,0.9024411338142783,2.0421067552897423,0.07237398781509352,0.6,0,1,0.0
7.312612712000373,527,5365.16,-92.9,1.0,-111.8,-0.82,-1.4,-0.64,-0.01,-0.89,-0.18,-213.2,-102.0,-102.0,1.28,2.93,0.08,0.0,0.9080748867797193,1.744133022449836,0.06540543015265943,0.6,0,1,0.0
7.321121513000435,528,5365.17,-93.0,1.0,-111.9,-1.09,-1.0,-0.52,0.0,-0.96,-0.16,-214.3,-114.1,-107.0,1.31,3.22,0.11,0.0,0.9732420048477152,1.5679604586851035,0.00023354584297019532,0.6,0,1,0.0
7.332408106000003,529,5365.18,-93.2,1.1,-112.0,-0.98,-0.61,-0.54,0.01,-1.05,-0.15,-215.5,-124.7,-107.0,1.35,3.52,-0.03,0.0,1.0607073111843814,1.2744018204632321,0.08548712528382219,0.6,0,1,0.0
7.341177870000138,530,5365.19,-93.3,1.1,-112.0,-0.32,-0.41,-0.62,0.02,-1.08,-0.15,-216.9,-134.4,-91.0,1.38,3.74,0.01,0.0,1.0905503197927182,0.8092589202474076,0.11302353121431574,0.6,0,1,0.0
7.352552707000541,531,5365.2,-93.4,1.2,-112.1,0.51,-0.43,-0.69,0.0,-1.06,-0.18,-218.3,-140.8,-68.0,1.42,3.89,-0.01,0.0,1.075174404457249,0.9597395480024775,0.09569466356126966,0.6,0,1,0.0
7.361124447999828,532,5365.21,-93.3,1.2,-112.1,0.9,-0.73,-0.82,-0.05,-1.02,-0.14,-219.7,-145.1,-47.0,1.46,3.99,-0.13,0.0,1.0307764064044151,1.4196126232180382,0.05027073219826694,0.6,0,1,0.0
7.372329956000613,533,5365.22,-93.3,1.3,-112.3,-0.17,-1.33,-0.69,-0.07,-0.99,-0.13,-221.2,-148.4,-46.0,1.5,4.11,0.0,0.0,1.000949549178179,1.5079456223617613,0.020034997472590188,0.6,0,1,0.0
7.381123866000053,534,5365.23,-93.4,1.4,-112.4,-1.29,-1.68,-0.49,-0.07,-1.09,-0.14,-222.7,-154.4,-65.0,1.54,4.31,-0.07,0.0,1.101181184001979,2.174074515742273,0.11786129965046233,0.6,0,1,0.0
7.392449243000556,535,5365.24,-93.5,1.4,-112.6,-1.57,-1.68,-0.09,-0.03,-1.15,-0.22,-224.3,-165.9,-118.0,1.59,4.71,0.09,0.0,1.1712386605641054,2.3011736136154526,0.18416040068833706,0.6,0,1,0.0
7.401329622000048,536,5365.25,-93.7,1.4,-112.7,-1.17,-1.34,0.51,-0.01,-1.2,-0.24,-226.1,-184.9,-181.0,1.64,5.31,0.13,0.0,1.223805540108395,1.85056748053131,0.23199273462797398,0.6,0,1,0.0
7.41238008900018,537,5365.26,-93.8,1.3,-112.8,-0.28,-1.12,1.0,-0.03,-1.19,-0.2,-228.1,-209.0,-230.0,1.7,6.01,0.06,0.0,1.2070625501605126,1.5273506473629428,0.2109447497864898,0.6,0,1,0.0
7.421243448000496,538,5365.27,-93.8,1.1,-113.0,0.1,-1.1,1.39,-0.04,-1.13,-0.11,-230.4,-236.4,-264.0,1.77,6.78,0.36,0.0,1.1360457737256893,1.7754154443397185,0.13712941388463318,0.6,0,1,0.0
7.432543685999917,539,5365.28,-93.8,0.9,-113.1,-0.52,-1.07,1.76,0.0,-1.15,-0.07,-233.0,-268.4,-314.0,1.84,7.72,0.26,0.0,1.1521284650593437,2.1243587267690924,0.15014786311392192,0.6,0,1,0.0
7.441389513000104,540,5365.29,-93.9,0.7,-113.1,-1.28,-0.8,2.02,0.07,-1.24,-0.06,-235.9,-301.8,-311.0,1.92,8.56,0.24,0.0,1.2434226956268732,2.521666115884496,0.23661325180782233,0.6,0,1,0.0
7.452577381000083,541,5365.3,-94.0,0.5,-113.2,-1.21,-0.42,2.36,0.08,-1.32,0.01,-239.1,-328.3,-264.0,2.01,9.2,0.21,0.0,1.3224598292575847,2.685162937328012,0.309337377729763,0.6,0,1,0.0
7.461148649000279,542,5365.31,-94.1,0.3,-113.2,-0.58,-0.1,2.96,0.08,-1.32,0.06,-242.6,-355.0,-286.0,2.11,10.03,0.15,0.0,1.323782459469833,3.01794632159023,0.30444680778317124,0.6,0,1,0.0
7.47232193400032,543,5365.32,-94.1,0.0,-113.1,0.07,0.22,3.56,0.1,-1.38,0.14,-246.3,-383.4,-253.0,2.22,10.65,0.04,0.0,1.3906832852953974,3.567478100843788,0.36392068093656094,0.6,0,1,0.0
7.481129740000142,544,5365.33,-94.1,-0.3,-113.1,0.89,0.05,3.44,0.04,-1.38,0.21,-250.3,-401.2,-214.0,2.33,11.19,0.14,0.0,1.3964598096615597,3.5536178747862017,0.3623032611966688,0.6,0,1,0.0
7.492521543999828,545,5365.34,-94.0,-0.6,-113.1,0.86,-0.69,2.82,-0.09,-1.24,0.3,-254.4,-425.1,-221.0,2.44,11.78,-0.1,0.0,1.2789448776237389,3.027887052054617,0.23989256257567093,0.6,0,1,0.0
7.501151033000497,546,5365.35,-93.9,-0.9,-113.2,0.04,-1.88,2.22,-0.22,-1.12,0.31,-258.8,-433.4,-72.0,2.56,11.71,-0.23,0.0,1.182751030437091,2.909364191709247,0.14082474108124265,0.6,0,1,0.0
7.512468507000449,547,5365.36,-94.0,-1.1,-113.5,-0.7,-3.01,1.71,-0.32,-1.09,0.33,-263.1,-428.9,15.0,2.68,11.55,-0.14,0.0,1.1829623831720095,3.5318833502821123,0.13821537193983802,0.6,0,1,0.0
7.521129218000169,548,5365.37,-94.0,-1.3,-113.8,-0.81,-4.09,1.31,-0.37,-1.05,0.32,-267.3,-415.4,120.0,2.79,11.05,-0.15,0.0,1.1583609109426993,4.370388998704806,0.11134162171631723,0.6,0,1,0.0
7.532268011999804,549,5365.38,-94.1,-1.4,-114.3,-0.58,-4.94,1.11,-0.32,-1.03,0.25,-271.3,-390.4,233.0,2.89,10.22,-0.12,0.0,1.107158525234756,5.096282959177208,0.05893645128820646,0.6,0,1,0.0
7.541159741000229,550,5365.39,-94.1,-1.6,-114.8,-0.21,-5.53,0.95,-0.23,-1.02,0.19,-274.9,-349.7,392.0,2.99,8.89,-0.4,0.0,1.0627323275406653,5.614935440412472,0.014220048522233464,0.6,0,1,0.0
7.552551970000422,551,5365.4,-94.1,-1.7,-115.3,0.09,-5.84,0.9,-0.13,-0.99,0.12,-278.1,-302.4,426.0,3.07,7.7,-0.1,0.0,1.0056838469419702,5.909627737852867,0.04197186343493242,0.6,0,1,0.0
7.561143169000388,552,5365.41,-94.1,-1.8,-115.9,0.26,-5.88,0.98,-0.02,-0.98,0.05,-280.8,-260.4,423.0,3.14,6.55,-0.1,0.0,0.9814784765851974,5.966774673137909,0.06485368911587108,0.6,0,1,0.0
7.572251884999787,553,5365.42,-94.0,-2.0,-116.5,0.51,-5.5,1.04,0.07,-1.01,0.0,-283.1,-214.3,459.0,3.19,5.24,0.08,0.0,1.0124228365658292,5.620649428669253,0.033231142552534454,0.6,0,1,0.0
7.581129461999808,554,5365.43,-93.9,-2.1,-117.0,0.82,-4.84,1.05,0.14,-1.03,-0.02,-284.9,-164.8,481.0,3.24,3.89,-0.14,0.0,1.0396634070698074,5.020009960149482,0.005870760607585179,0.6,0,1,0.0
7.592467655999826,555,5365.44,-93.8,-2.2,-117.4,1.13,-4.07,0.96,0.17,-1.04,-0.03,-286.1,-120.8,479.0,3.27,2.6,-0.33,0.0,1.054229576515476,4.331674041291658,0.008521500661321735,0.6,0,1,0.0
7.601215347000107,556,5365.45,-93.6,-2.3,-117.8,1.13,-3.29,0.68,0.18,-1.03,-0.05,-287.1,-69.2,472.0,3.28,1.31,-0.17,0.0,1.0468046618161384,3.544488679626442,0.0010746542427444439,0.6,0,1,0.0
7.612588224000319,557,5365.46,-93.5,-2.4,-118.1,0.39,-2.53,0.25,0.18,-1.01,-0.06,-287.4,-21.5,474.0,3.29,0.01,-0.04,0.0,1.0276672613253768,2.5720614300595543,0.017701491323056873,0.6,0,1,0.0
7.621146086999943,558,5365.47,-93.5,-2.4,-118.3,-0.38,-1.92,-0.23,0.16,-1.01,-0.05,-287.4,18.1,384.0,3.28,-0.86,-0.04,0.0,1.023816389788716,1.9707105317625926,0.021121315602523172,0.6,0,1,0.0
7.632431552000526,559,5365.48,-93.6,-2.4,-118.5,-0.86,-1.46,-0.65,0.13,-0.97,-0.04,-287.0,45.5,281.0,3.27,-1.48,-0.19,0.0,0.9794896630388705,1.8148553661380291,0.06413908150532133,0.6,0,1,0.0
7.641148685000189,560,5365.49,-93.7,-2.3,-118.6,-0.87,-1.16,-0.94,0.1,-0.94,-0.03,-286.4,68.2,252.0,3.25,-2.12,-0.04,0.0,0.9457801012920498,1.7280335644888383,0.09589167038709923,0.6,0,1,0.0
7.652264516000287,561,5365.5,-93.8,-2.2,-118.7,-0.7,-0.97,-1.13,0.07,-0.91,-0.03,-285.5,93.2,251.0,3.22,-2.83,-0.1,0.0,0.9131812525451889,1.645539425234169,0.12592070875128092,0.6,0,1,0.0
7.661165614999845,562,5365.51,-93.8,-2.0,-118.8,-0.62,-0.91,-1.27,0.04,-0.89,-0.04,-284.4,119.1,253.0,3.19,-3.54,0.17,0.0,0.8917959407846618,1.6808926200087857,0.14435990010157185,0.6,0,1,0.0
7.672495767000328,563,5365.52,-93.9,-1.9,-118.9,-0.64,-0.95,-1.36,0.03,-0.87,-0.05,-283.0,143.4,259.0,3.15,-4.22,-0.04,0.0,0.8719518335321051,1.7781169815284934,0.16091992720704595,0.6,0,1,0.0
7.681381626000075,564,5365.53,-93.9,-1.7,-119.0,-0.67,-0.97,-1.41,0.02,-0.87,-0.07,-281.4,170.1,251.0,3.1,-4.91,-0.2,0.0,0.8730406634286859,1.8379064176393747,0.1566344753642558,0.6,0,1,0.0
7.692494678000003,565,5365.54,-94.0,-1.5,-119.1,-0.64,-0.97,-1.36,0.02,-0.88,-0.08,-279.5,192.5,225.0,3.05,-5.47,0.03,0.0,0.8838551917593741,1.788882332631188,0.1429035480928963,0.6,0,1,0.0
7.701298959000269,566,5365.55,-94.1,-1.4,-119.2,-0.4,-0.94,-1.23,0.02,-0.89,-0.1,-277.4,214.1,233.0,2.98,-6.17,-0.14,0.0,0.8958236433584459,1.5989058759038943,0.12831639456394806,0.6,0,1,0.0
7.712809751999885,567,5365.56,-94.1,-1.2,-119.3,0.03,-0.88,-1.04,0.03,-0.9,-0.11,-275.1,240.3,259.0,2.92,-6.88,0.1,0.0,0.9071934744033381,1.3626811806141597,0.11460763224867465,0.6,0,1,0.0
7.72129382500043,568,5365.57,-94.1,-1.1,-119.4,0.52,-0.82,-0.87,0.04,-0.89,-0.1,-272.5,270.3,287.0,2.85,-7.68,-0.06,0.0,0.8964931678490361,1.3037254312162512,0.1228017800269171,0.6,0,1,0.0
7.732491779000156,569,5365.58,-94.1,-1.0,-119.5,0.83,-0.72,-0.72,0.05,-0.88,-0.11,-269.9,295.6,263.0,2.77,-8.37,-0.09,0.0,0.888256719648098,1.3136590120727676,0.1284174636632981,0.6,0,1,0.0
7.741471579000063,570,5365.59,-94.0,-0.9,-119.6,0.97,-0.58,-0.65,0.07,-0.87,-0.13,-266.5,322.2,251.0,2.68,-9.04,-0.17,0.0,0.8824397996464122,1.3037637822857329,0.1315496959916842,0.6,0,1,0.0
7.752483924000444,571,5365.6,-93.9,-0.9,-119.6,0.95,-0.39,-0.66,0.08,-0.88,-0.14,-263.1,345.8,240.0,2.57,-9.7,-0.03,0.0,0.8946507698538017,1.2207374820165062,0.11695195126860891,0.6,0,1,0.0
7.761428898000304,572,5365.61,-93.8,-0.8,-119.7,0.94,-0.22,-0.72,0.08,-0.88,-0.14,-259.5,367.2,219.0,2.48,-10.25,0.3,0.0,0.8946507698538017,1.2043255373859678,0.11461291224323678,0.6,0,1,0.0
7.772651011000562,573,5365.62,-93.7,-0.7,-119.7,0.83,0.01,-0.78,0.08,-0.88,-0.16,-255.6,392.9,256.0,2.36,-11.01,-0.19,0.0,0.8979977728257459,1.139034679015525,0.10904059108586661,0.6,0,1,0.0
7.781249053000465,574,5365.63,-93.6,-0.6,-119.7,0.58,0.12,-0.77,0.07,-0.89,-0.17,-251.5,413.3,191.0,2.26,-11.39,-0.05,0.0,0.9087904048789248,0.9714422267947795,0.09628299985203403,0.6,0,1,0.0
7.793248435999885,575,5365.64,-93.6,-0.6,-119.7,0.56,0.31,-0.89,0.08,-0.93,-0.2,-247.2,433.8,233.0,2.14,-12.1,-0.14,0.0,0.9546203433826456,1.0962663909835053,0.04944400012134709,0.6,0,1,0.0
7.801445115000206,576,5365.65,-93.5,-0.5,-119.6,0.81,0.45,-0.91,0.07,-0.9,-0.23,-242.6,457.7,197.0,2.01,-12.62,-0.13,0.0,0.9315578350268974,1.298730149030198,0.07105637830755329,0.6,0,1,0.0
7.812630512999931,577,5365.66,-93.4,-0.4,-119.6,1.07,0.55,-0.7,0.08,-0.86,-0.24,-237.9,479.7,262.0,1.89,-13.45,0.09,0.0,0.8964373932405988,1.3919051691835906,0.10405328369197486,0.6,0,1,0.0
7.8214722610000535,578,5365.67,-93.3,-0.3,-119.5,1.4,0.66,-0.45,0.08,-0.83,-0.27,-232.9,511.9,264.0,1.73,-14.19,-0.05,0.0,0.8764701934464172,1.6118622769951532,0.12154007381643328,0.6,0,1,0.0
7.832740361000106,579,5365.68,-93.1,-0.3,-119.4,1.59,0.83,-0.17,0.08,-0.8,-0.29,-227.6,535.0,248.0,1.6,-14.84,-0.08,0.0,0.854692927313664,1.801638143468327,0.14045099315020282,0.6,0,1,0.0
7.841496191999795,580,5365.69,-93.0,-0.3,-119.3,1.65,1.01,0.1,0.09,-0.79,-0.3,-222.0,563.3,297.0,1.43,-15.76,-0.06,0.0,0.8498235110892144,1.9371628738957392,0.1424140011871594,0.6,0,1,0.0
7.852655615000003,581,5365.7,-92.8,-0.3,-119.2,1.63,1.16,0.25,0.1,-0.81,-0.28,-216.2,596.6,279.0,1.27,-16.47,-0.26,0.0,0.8628441342444185,2.016184515365595,0.12680551047131616,0.6,0,1,0.0
7.861265395999908,582,5365.71,-92.7,-0.3,-119.1,1.32,1.24,0.33,0.1,-0.84,-0.23,-210.1,617.6,259.0,1.12,-17.11,0.08,0.0,0.8766413177577247,1.8408965207202714,0.11074816041884983,0.6,0,1,0.0
7.872705974000382,583,5365.72,-92.6,-0.3,-119.0,0.92,1.24,0.33,0.1,-0.86,-0.2,-203.7,637.0,197.0,0.93,-17.59,0.0,0.0,0.8885943956609225,1.578892016573648,0.09681918086533903,0.6,0,1,0.0
7.881259857999794,584,5365.73,-92.5,-0.4,-118.9,0.57,1.2,0.26,0.09,-0.87,-0.18,-197.2,665.5,257.0,0.76,-18.34,-0.08,0.0,0.892972563968233,1.3536986370680884,0.09059219230686788,0.6,0,1,0.0
7.8925570119999975,585,5365.74,-92.4,-0.4,-118.7,0.14,1.2,0.23,0.07,-0.86,-0.16,-190.4,686.1,233.0,0.56,-18.96,-0.09,0.0,0.8775534171775528,1.2298373876248843,0.10389111231559711,0.6,0,1,0.0
7.901165992000642,586,5365.75,-92.5,-0.4,-118.6,-0.42,1.13,0.15,0.04,-0.88,-0.15,-183.2,715.9,328.0,0.36,-20.02,0.09,0.0,0.8935882720806042,1.2148250902907791,0.08609913226429478,0.6,0,1,0.0
7.912759050999739,587,5365.76,-92.6,-0.4,-118.5,-1.01,0.97,0.0,0.0,-0.89,-0.13,-175.8,745.1,236.0,0.18,-20.43,0.07,0.0,0.8994442728707543,1.400357097314824,0.07863826884466174,0.6,0,1,0.0
7.921139611000399,588,5365.77,-92.7,-0.4,-118.4,-1.42,0.68,-0.2,-0.03,-0.92,-0.11,-168.3,762.8,135.0,-0.04,-20.72,-0.06,0.0,0.9270382947861432,1.587072777159258,0.050023361990687465,0.6,0,1,0.0
7.932542735999959,589,5365.78,-92.9,-0.4,-118.4,-1.35,0.27,-0.39,-0.06,-0.96,-0.08,-160.5,767.2,-2.0,-0.25,-20.5,-0.08,0.0,0.9651942809610923,1.4309088021254186,0.011630028299423611,0.6,0,1,0.0
7.941297017000579,590,5365.79,-93.0,-0.4,-118.4,-0.84,-0.23,-0.52,-0.03,-0.98,-0.07,-153.3,697.6,-832.0,-0.43,-16.77,0.84,0.0,0.9829547293746543,1.014347080638575,0.006007811711855715,0.6,0,1,0.0
7.952585568999893,591,5365.8,-93.1,-0.3,-118.4,0.09,-0.66,-0.52,0.1,-0.97,-0.13,-147.8,456.5,-2228.0,-0.54,-8.5,1.26,0.0,0.9837682653958706,0.8450443775329199,0.006684920778410541,0.6,0,1,0.0
7.961385008999969,592,5365.81,-93.0,-0.3,-118.5,1.83,-0.65,-0.18,0.37,-0.95,-0.3,-145.3,163.0,-2464.0,-0.58,-1.6,0.66,0.0,1.0627323275406653,1.950333304848174,0.08393600326474115,0.6,0,1,0.0
7.972420512000099,593,5365.82,-92.9,-0.2,-118.5,-0.39,1.41,-0.96,-0.07,-1.66,-0.3,-145.1,-26.4,-1775.0,-0.57,2.02,0.41,0.0,1.6883423823383692,1.7497999885701223,0.6953551369011962,0.6,0,2,0.0
7.9812983870006065,594,5365.83,-93.0,0.0,-118.3,-1.7,2.13,-3.03,-0.4,-1.66,-0.12,-146.0,-110.2,-1034.0,-0.53,3.68,0.06,0.0,1.711724276862369,4.075266862427539,0.7043622907966922,0.6,0,2,0.0
7.9926085950000925,595,5365.84,-93.1,0.3,-118.1,0.05,1.75,-3.69,-0.34,-1.36,0.16,-147.4,-158.6,-629.0,-0.49,4.76,-0.39,0.0,1.4109571219565817,4.084250237191644,0.3955232331730869,0.6,0,2,0.0
8.001166488000308,596,5365.85,-93.0,0.6,-118.0,2.14,0.41,-3.23,-0.2,-1.06,0.22,-149.2,-189.7,-375.0,-0.44,5.38,0.0,0.0,1.100908715561831,3.896228946045137,0.08376533024276944,0.6,0,2,0.0
8.012399401000039,597,5365.86,-92.8,0.9,-118.0,1.77,-0.14,-2.48,0.01,-0.8,0.05,-151.3,-204.9,-203.0,-0.38,5.68,-0.01,0.0,0.8016233529532433,3.050065573065602,0.2112096317185017,0.6,0,2,0.0
8.02105865700014,598,5365.87,-92.7,1.1,-118.1,-1.02,-0.25,-2.17,0.2,-0.85,-0.12,-153.4,-213.8,-123.0,-0.32,5.9,0.0,0.0,0.8814193099768123,2.410767512639906,0.128785401201034,0.6,0,2,0.0
8.032789828000205,599,5365.88,-93.0,1.4,-118.1,-4.17,-0.16,-2.89,0.24,-1.2,0.07,-155.6,-220.0,-67.0,-0.26,5.99,0.14,0.0,1.2257650672131262,5.076081165623734,0.21124914891457425,0.6,0,2,0.0
8.04127449600037,600,5365.89,-93.5,1.7,-118.2,-5.57,-0.64,-3.48,0.16,-1.43,0.12,-157.8,-219.1,-7.0,-0.2,5.92,0.11,0.0,1.443918280236108,6.5988559614527125,0.4208143146988048,0.6,0,2,0.0
8.052608199000133,601,5365.9,-94.1,2.0,-118.3,-5.32,-0.73,-3.01,0.07,-1.58,0.03,-159.9,-214.9,26.0,-0.14,5.79,0.0,0.0,1.581834378182495,6.155923976138757,0.5475558043922881,0.6,0,2,0.0
8.061256495000634,602,5365.91,-94.4,2.3,-118.3,-2.7,-0.23,-1.83,0.06,-1.6,0.0,-162.0,-208.0,67.0,-0.09,5.53,0.01,0.0,1.601124604770035,3.269831799955466,0.5555091103602314,0.6,0,2,0.0
8.072585505999996,603,5365.92,-94.5,2.4,-118.3,1.01,0.46,-0.52,0.16,-1.51,-0.07,-164.0,-196.5,108.0,-0.04,5.16,-0.25,0.0,1.5200657880499777,1.2256018929489298,0.4649612877673708,0.6,0,2,0.0
8.081273167999825,604,5365.93,-94.2,2.5,-118.2,2.52,1.4,0.31,0.24,-1.29,-0.08,-165.9,-181.5,137.0,0.0,4.75,-0.1,0.0,1.3145721737508367,2.8993964889266177,0.2542783199988652,0.6,0,2,0.0
8.092596266999863,605,5365.94,-94.0,2.4,-118.1,1.91,2.13,0.44,0.28,-1.04,-0.09,-167.6,-165.9,145.0,0.05,4.33,0.05,0.0,1.0807867504739315,2.8945811441381286,0.020083038787520824,0.6,0,2,0.0
8.101173554000525,606,5365.95,-93.9,2.4,-117.8,0.76,3.15,0.44,0.29,-0.9,-0.08,-169.2,-152.5,133.0,0.09,3.99,-0.01,0.0,0.9489467845985885,3.2701223218711557,0.10952178854606565,0.6,0,2,0.0
8.11236246000044,607,5365.96,-93.8,2.4,-117.4,-0.26,4.07,0.39,0.27,-0.9,-0.05,-170.6,-139.7,132.0,0.13,3.62,-0.17,0.0,0.9409569596958194,4.09690126803173,0.11516138117985797,0.6,0,2,0.0
8.121165174000453,608,5365.97,-93.9,2.4,-117.0,-0.61,4.69,0.13,0.23,-0.99,0.0,-171.9,-127.1,128.0,0.16,3.29,-0.01,0.0,1.016366075781753,4.731289464828801,0.038957219792045805,0.6,0,2,0.0
8.132647678000467,609,5365.98,-93.9,2.4,-116.5,-0.21,4.92,-0.09,0.15,-1.01,0.05,-173.1,-112.7,141.0,0.19,2.88,-0.06,0.0,1.02230132544177,4.925302021196264,0.03236153072938808,0.6,0,2,0.0
8.141281283999888,610,5365.99,-93.8,2.5,-116.0,0.44,5.01,-0.17,0.07,-0.98,0.04,-174.1,-99.5,128.0,0.22,2.56,-0.06,0.0,0.9833107342035884,5.032156595337629,0.06992507952821836,0.6,0,2,0.0
8.152514935,611,5366.0,-93.7,2.5,-115.5,1.11,5.05,-0.18,-0.01,-0.94,0.04,-175.0,-87.2,121.0,0.24,2.25,-0.01,0.0,0.9409038208021051,5.1736834073994125,0.11008535307110756,0.6,0,2,0.0
8.16127066900026,612,5366.01,-93.5,2.6,-115.0,1.63,4.86,-0.18,-0.06,-0.89,0.05,-175.6,-79.5,138.0,0.26,1.96,-0.06,0.0,0.893420393767682,5.129220213638717,0.15441740450342,0.6,0,2,0.0
8.172554996000144,613,5366.02,-93.3,2.6,-114.5,1.66,4.54,-0.06,-0.1,-0.87,0.05,-176.5,-68.3,99.0,0.28,1.78,-0.03,0.0,0.8771544903835355,4.834335528281007,0.16726964172981518,0.6,0,2,0.0
8.18139974800033,614,5366.03,-93.2,2.6,-114.1,1.28,4.06,0.08,-0.12,-0.86,0.06,-177.1,-61.7,90.0,0.29,1.56,-0.02,0.0,0.8704022058795577,4.257745882506375,0.17054148770911715,0.6,0,2,0.0
8.192569128000287,615,5366.04,-93.0,2.6,-113.7,0.97,3.56,0.26,-0.14,-0.86,0.07,-177.7,-53.6,69.0,0.31,1.41,0.07,0.0,0.8741281370600079,3.698932278374396,0.16347924539809366,0.6,0,2,0.0
8.201177881000149,616,5366.05,-92.9,2.6,-113.4,0.77,3.18,0.52,-0.13,-0.84,0.05,-178.2,-51.7,20.0,0.32,1.43,0.08,0.0,0.85146931829632,3.312959402105616,0.18241530287854602,0.6,0,2,0.0
8.212530628999957,617,5366.06,-92.9,2.6,-113.1,0.58,2.93,0.84,-0.1,-0.85,0.01,-178.7,-53.7,-11.0,0.34,1.51,0.01,0.0,0.8559205570612263,3.1027246091137384,0.17440478283136684,0.6,0,2,0.0
8.221168924999802,618,5366.07,-92.8,2.5,-112.8,0.39,2.83,1.1,-0.08,-0.87,0.0,-179.3,-60.3,-62.0,0.35,1.76,0.17,0.0,0.8736704184073076,3.061208911524988,0.1535218230555797,0.6,0,2,0.0
8.232628230000046,619,5366.08,-92.7,2.4,-112.5,0.4,2.78,1.26,-0.06,-0.89,-0.01,-180.0,-69.9,-84.0,0.37,2.01,0.12,0.0,0.8920762299265685,3.0783112253311877,0.13241369130559244,0.6,0,2,0.0
8.241305216,620,5366.09,-92.7,2.2,-112.2,0.68,2.7,1.31,-0.05,-0.88,-0.01,-180.7,-79.7,-102.0,0.4,2.31,0.18,0.0,0.8814760348415605,3.0770927837814708,0.1401536086627886,0.6,0,2,0.0
8.252442177000376,621,5366.1,-92.6,2.0,-111.9,0.87,2.62,1.29,-0.04,-0.86,-0.02,-181.6,-90.8,-105.0,0.42,2.6,0.05,0.0,0.8611620056644393,3.0471954318684586,0.15725828508311146,0.6,0,2,0.0
8.261275120999926,622,5366.11,-92.5,1.9,-111.7,0.77,2.55,1.25,-0.04,-0.84,-0.03,-182.6,-100.4,-89.0,0.45,2.81,0.0,0.0,0.841486779456457,2.9424309677543836,0.17339484106527203,0.6,0,2,0.0
8.272498086000269,623,5366.12,-92.4,1.7,-111.4,0.52,2.47,1.21,-0.05,-0.85,-0.03,-183.5,-107.6,-89.0,0.48,3.05,-0.07,0.0,0.8519976525789258,2.7991784509030504,0.15962628858394712,0.6,0,2,0.0
8.281202993000079,624,5366.13,-92.3,1.5,-111.2,0.28,2.38,1.16,-0.06,-0.86,-0.04,-184.8,-117.8,-94.0,0.51,3.31,0.06,0.0,0.8630179604156567,2.662404927880055,0.14563386113227184,0.6,0,2,0.0
8.292586890000166,625,5366.14,-92.3,1.4,-110.9,0.21,2.3,1.11,-0.08,-0.89,-0.05,-186.0,-124.9,-70.0,0.54,3.47,-0.13,0.0,0.8949860334105778,2.562459755781542,0.1113924723746037,0.6,0,2,0.0
8.301175847000195,626,5366.15,-92.3,1.3,-110.7,0.28,2.21,1.1,-0.09,-0.89,-0.06,-187.3,-131.2,-70.0,0.58,3.66,0.12,0.0,0.8965489389877164,2.484451649760969,0.10763297546151573,0.6,0,2,0.0
8.312589484000455,627,5366.16,-92.3,1.2,-110.5,0.3,2.14,1.15,-0.09,-0.89,-0.08,-188.7,-137.1,-60.0,0.62,3.79,0.08,0.0,0.8981091247727082,2.4478766308782802,0.10395133388299338,0.6,0,2,0.0
8.321166685999742,628,5366.17,-92.2,1.0,-110.3,0.23,2.07,1.19,-0.08,-0.88,-0.09,-190.1,-141.0,-42.0,0.66,3.87,0.13,0.0,0.8882004278314664,2.398728830026437,0.1115828302077505,0.6,0,2,0.0
8.332645901999967,629,5366.18,-92.2,0.9,-110.1,0.13,1.96,1.17,-0.08,-0.88,-0.1,-191.5,-142.2,-13.0,0.69,3.86,-0.16,0.0,0.8892693630166284,2.2863508042293073,0.10830361712213665,0.6,0,2,0.0
8.341214807000142,630,5366.19,-92.2,0.8,-109.9,0.0,1.82,1.13,-0.09,-0.89,-0.11,-192.9,-141.4,9.0,0.73,3.8,-0.01,0.0,0.9012768719988326,2.142265156324025,0.09437018597713387,0.6,0,2,0.0
8.352629052000339,631,5366.2,-92.2,0.7,-109.7,-0.13,1.64,1.05,-0.1,-0.9,-0.12,-194.3,-137.7,32.0,0.77,3.68,-0.15,0.0,0.913454979733539,1.951665955024066,0.08054823667757893,0.6,0,2,0.0
8.361179171000003,632,5366.21,-92.2,0.6,-109.5,-0.19,1.43,0.93,-0.11,-0.91,-0.12,-195.6,-133.7,41.0,0.81,3.56,0.0,0.0,0.9244457799135654,1.7163624325881757,0.06816628776760147,0.6,0,2,0.0
8.372559553999963,633,5366.22,-92.2,0.5,-109.4,-0.12,1.24,0.78,-0.13,-0.93,-0.13,-197.0,-128.0,55.0,0.84,3.4,-0.06,0.0,0.9479978902930112,1.4698299221338502,0.04372189384039249,0.6,0,2,0.0
