host_time_s,seq,device_time_s,roll,pitch,yaw,gyro_x,gyro_y,gyro_z,accel_x,accel_y,accel_z,belt_length,belt_velocity,belt_acceleration,motor_pos,motor_vel,motor_iq_meas,motor_iq_set,acc_mag,gyro_mag,acc_residual,threshold,heel_strike,hs_count,torque_cmd_nm
2.0708824950002054,3,998.89,-101.4,2.3,59.7,0.0,-0.03,-0.07,0.04,-0.97,-0.18,-113.9,0.0,-1.0,-1.42,0.0,-0.03,0.0,0.9873702446397704,0.07615773105863909,0.0,0.28,0,0,0.0
2.0825783489999594,4,998.9,-101.4,2.3,59.7,0.03,-0.06,-0.06,0.04,-0.97,-0.18,-113.9,0.0,-2.0,-1.42,0.01,-0.03,0.0,0.9873702446397704,0.09,0.0,0.28,0,0,0.0
2.090323471999909,5,998.91,-101.4,2.3,59.7,0.03,-0.08,-0.05,0.04,-0.97,-0.18,-113.9,0.1,0.0,-1.42,0.0,-0.11,0.0,0.9873702446397704,0.09899494936611665,0.0,0.28,0,0,0.0
2.1027548329998353,6,998.92,-101.4,2.3,59.7,0.03,-0.09,-0.05,0.04,-0.97,-0.19,-113.9,0.0,1.0,-1.42,0.0,-0.03,0.0,0.9892421341612982,0.10723805294763608,0.0018344517310973085,0.28,0,0,0.0
2.1126919540001836,7,998.93,-101.4,2.3,59.7,0.01,-0.09,-0.05,0.04,-0.96,-0.19,-113.9,0.0,-2.0,-1.42,0.0,0.05,0.0,0.979438614717635,0.10344080432788601,0.007809686358314583,0.28,0,0,0.0
2.1221871900002043,8,998.94,-101.4,2.3,59.7,-0.06,-0.08,-0.04,0.04,-0.96,-0.18,-113.9,0.0,-1.0,-1.42,0.0,0.04,0.0,0.977547952787995,0.10770329614269009,0.009506341322195522,0.28,0,0,0.0
2.130282065999836,9,998.95,-101.4,2.3,59.7,-0.09,-0.1,-0.04,0.04,-0.97,-0.18,-113.9,0.0,0.0,-1.42,0.0,0.04,0.0,0.9873702446397704,0.14035668847618202,0.0003096315189883292,0.28,0,0,0.0
2.142527058000269,10,998.96,-101.4,2.3,59.7,-0.08,-0.12,-0.05,0.04,-0.97,-0.18,-113.9,0.0,-2.0,-1.42,0.0,0.03,0.0,0.9873702446397704,0.15264337522473748,0.0003034388886085093,0.28,0,0,0.0
2.150345240000206,11,998.97,-101.4,2.3,59.7,-0.05,-0.14,-0.05,0.04,-0.97,-0.18,-113.9,0.0,0.0,-1.42,0.0,0.04,0.0,0.9873702446397704,0.15684387141358122,0.0002973701108363036,0.28,0,0,0.0
2.1623914229999173,12,998.98,-101.4,2.3,59.6,-0.04,-0.16,-0.05,0.04,-0.97,-0.18,-113.9,0.0,0.0,-1.42,0.0,-0.03,0.0,0.9873702446397704,0.17233687939614087,0.0002914227086195931,0.28,0,0,0.0
2.17029744499996,13,998.99,-101.4,2.3,59.6,-0.04,-0.16,-0.05,0.04,-0.97,-0.18,-113.9,0.0,1.0,-1.42,0.0,0.04,0.0,0.9873702446397704,0.17233687939614087,0.00028559425444718567,0.28,0,0,0.0
2.1824517650002235,14,999.0,-101.4,2.3,59.6,-0.04,-0.18,-0.04,0.04,-0.97,-0.19,-113.9,0.0,0.0,-1.42,0.0,0.05,0.0,0.9892421341612982,0.18867962264113206,0.0021143341004554728,0.28,0,0,0.0
2.190388897000048,15,999.01,-101.4,2.3,59.6,-0.06,-0.15,-0.03,0.05,-0.97,-0.19,-113.9,0.0,-1.0,-1.42,0.0,0.04,0.0,0.9896969233053117,0.16431676725154984,0.002517740779579558,0.28,0,0,0.0
2.2026434479998898,16,999.02,-101.4,2.4,59.6,-0.07,-0.14,-0.03,0.05,-0.97,-0.19,-113.9,0.0,0.0,-1.42,0.0,-0.02,0.0,0.9896969233053117,0.1593737745050923,0.002467385963987989,0.28,0,0,0.0
2.2102655290000257,17,999.03,-101.4,2.4,59.6,-0.1,-0.11,-0.04,0.05,-0.97,-0.19,-113.9,0.0,2.0,-1.42,0.0,-0.03,0.0,0.9896969233053117,0.15394804318340652,0.0024180382447082094,0.28,0,0,0.0
2.2224133210002037,18,999.04,-101.4,2.4,59.6,-0.13,-0.09,-0.04,0.05,-0.97,-0.19,-113.9,-0.1,-2.0,-1.42,0.0,0.04,0.0,0.9896969233053117,0.16309506430300091,0.002369677479814092,0.28,0,0,0.0
2.2303571480001665,19,999.05,-101.4,2.4,59.6,-0.13,-0.08,-0.03,0.04,-0.98,-0.19,-113.9,0.0,0.0,-1.42,0.0,0.03,0.0,0.9990495483208027,0.15556349186104046,0.01148785644539907,0.28,0,0,0.0
2.2424510040000314,20,999.06,-101.5,2.4,59.6,-0.15,-0.06,-0.02,0.04,-0.98,-0.19,-113.9,0.0,-1.0,-1.42,0.0,0.04,0.0,0.9990495483208027,0.16278820596099705,0.011258099316491132,0.28,0,0,0.0
2.2502393859999756,21,999.07,-101.5,2.4,59.5,-0.11,-0.07,-0.03,0.04,-0.98,-0.19,-113.9,0.1,-5.0,-1.42,0.03,0.05,0.0,0.9990495483208027,0.13379088160259653,0.011032937330161308,0.28,0,0,0.0
2.2624119530000826,22,999.08,-101.5,2.4,59.5,-0.12,-0.06,-0.01,0.04,-0.97,-0.19,-113.9,0.0,0.0,-1.42,0.0,-0.02,0.0,0.9892421341612982,0.1345362404707371,0.0012010127072437093,0.28,0,0,0.0
2.270286133999889,23,999.09,-101.5,2.4,59.5,-0.1,-0.05,-0.03,0.04,-0.97,-0.19,-113.9,0.0,1.0,-1.42,0.0,-0.03,0.0,0.9892421341612982,0.11575836902790226,0.0011769924530988796,0.28,0,0,0.0
2.282397059000232,24,999.1,-101.5,2.4,59.5,-0.14,-0.04,-0.03,0.04,-0.97,-0.19,-113.9,-0.1,-2.0,-1.42,0.0,0.05,0.0,0.9892421341612982,0.14866068747318506,0.0011534526040368753,0.28,0,0,0.0
2.2902411109998866,25,999.11,-101.5,2.4,59.5,-0.17,-0.02,-0.03,0.04,-0.97,-0.19,-113.9,0.0,0.0,-1.42,0.0,-0.03,0.0,0.9892421341612982,0.17378147196982768,0.00113038355195616,0.28,0,0,0.0
2.302641748000042,26,999.12,-101.5,2.4,59.5,-0.18,0.0,-0.02,0.04,-0.97,-0.19,-113.9,0.0,0.0,-1.42,0.0,-0.04,0.0,0.9892421341612982,0.18110770276274832,0.001107775880917039,0.28,0,0,0.0
2.3102057060000334,27,999.13,-101.5,2.4,59.5,-0.17,0.03,-0.02,0.05,-0.97,-0.19,-113.9,0.0,2.0,-1.42,0.0,0.05,0.0,0.9896969233053117,0.17378147196982768,0.0015313137244318265,0.28,0,0,0.0
2.3223723209998752,28,999.14,-101.6,2.4,59.5,-0.15,0.07,-0.01,0.05,-0.97,-0.19,-113.9,-0.1,0.0,-1.42,0.0,0.04,0.0,0.9896969233053117,0.16583123951776998,0.0015006874499431389,0.28,0,0,0.0
2.330359029000192,29,999.15,-101.6,2.4,59.5,-0.17,0.09,0.0,0.05,-0.97,-0.2,-113.9,0.0,1.0,-1.42,0.0,0.03,0.0,0.9916652661054535,0.19235384061671346,0.0033996496450832137,0.28,0,0,0.0
2.3424519549998877,30,999.16,-101.6,2.4,59.6,-0.16,0.15,0.02,0.05,-0.98,-0.2,-113.9,0.1,1.0,-1.42,0.0,0.03,0.0,1.0014489502715553,0.2202271554554524,0.012919667134961399,0.28,0,0,0.0
2.3502118900000823,31,999.17,-101.6,2.5,59.6,-0.14,0.19,0.02,0.06,-0.98,-0.2,-113.9,-0.1,1.0,-1.42,0.0,-0.02,0.0,1.0019980039900278,0.2368543856465402,0.013199346436365222,0.28,0,0,0.0
2.362454944000092,32,999.18,-101.6,2.5,59.6,-0.14,0.24,0.0,0.06,-0.98,-0.21,-113.9,0.1,-1.0,-1.42,0.0,-0.04,0.0,1.004041831797859,0.2778488797889961,0.014938310759312512,0.28,0,0,0.0
2.3703983049999806,33,999.19,-101.7,2.5,59.6,-0.16,0.3,-0.05,0.06,-0.98,-0.22,-113.9,0.0,0.0,-1.42,0.0,0.04,0.0,1.0061808982484213,0.34365680554879163,0.016735829665677326,0.28,0,0,0.0
2.3826410800002122,34,999.2,-101.7,2.5,59.7,-0.14,0.38,-0.09,0.04,-0.97,-0.22,-113.9,0.0,0.0,-1.42,0.0,0.12,0.0,0.9954396013822235,0.4148493702538308,0.005874642143489983,0.28,0,0,0.0
2.3903844679998656,35,999.21,-101.7,2.5,59.7,-0.12,0.49,-0.05,0.03,-0.96,-0.21,-113.9,-0.1,0.0,-1.42,0.0,-0.02,0.0,0.9831581764904364,0.5069516742254631,0.006278647093331258,0.28,0,0,0.0
2.402788562999831,36,999.22,-101.7,2.5,59.7,-0.07,0.54,-0.03,0.02,-0.97,-0.2,-113.9,-0.2,0.0,-1.42,0.0,-0.02,0.0,0.9906058752097122,0.5453439281774393,0.0011456705934257405,0.28,0,0,0.0
2.4102419900000314,37,999.23,-101.7,2.5,59.8,-0.09,0.57,-0.05,0.02,-0.97,-0.2,-113.9,0.0,-1.0,-1.42,0.0,-0.01,0.0,0.9906058752097122,0.5792236183029832,0.001122757181557188,0.28,0,0,0.0
2.4225860090000424,38,999.24,-101.7,2.5,59.9,-0.24,0.61,-0.08,0.01,-0.98,-0.2,-113.9,-0.1,-1.0,-1.42,0.0,0.04,0.0,1.0002499687578101,0.6603786792439622,0.010551513715062022,0.28,0,0,0.0
2.4303247319999173,39,999.25,-101.8,2.5,59.9,-0.27,0.62,-0.13,0.0,-0.99,-0.2,-113.9,0.2,1.0,-1.42,0.0,0.05,0.0,1.01,0.6886218120274727,0.019895514058106856,0.28,0,0,0.0
2.4424513620001562,40,999.26,-101.8,2.5,60.0,-0.06,0.56,-0.13,0.0,-0.98,-0.19,-113.9,-0.2,0.0,-1.42,0.0,0.03,0.0,0.9982484660644363,0.578013840664737,0.007981100520092266,0.28,0,0,0.0
2.450288265999916,41,999.27,-101.8,2.5,60.0,0.14,0.5,-0.06,0.0,-0.98,-0.2,-113.9,0.0,-3.0,-1.42,0.01,-0.02,0.0,1.000199980003999,0.5226853738148792,0.00973396217046174,0.28,0,0,0.0
2.462425546999839,42,999.28,-101.7,2.5,60.1,0.42,0.52,-0.06,0.0,-0.99,-0.2,-113.9,0.0,0.0,-1.42,0.0,0.03,0.0,1.01,0.6711184694225006,0.019143302523133565,0.28,0,0,0.0
2.4702830860001086,43,999.29,-101.7,2.5,60.1,0.67,0.48,-0.08,0.0,-0.99,-0.2,-113.9,-0.1,0.0,-1.42,0.0,0.05,0.0,1.01,0.8280700453464066,0.018760436472670894,0.28,0,0,0.0
2.4823821750001116,44,999.3,-101.6,2.5,60.2,0.85,0.44,-0.14,0.01,-0.99,-0.21,-113.9,0.3,0.0,-1.42,0.0,0.03,0.0,1.0120770721639731,0.9673158739522473,0.020420758463911115,0.28,0,0,0.0
2.490239319000011,45,999.31,-101.5,2.5,60.2,0.92,0.43,-0.19,0.01,-0.98,-0.21,-113.9,0.0,2.0,-1.42,-0.02,0.05,0.0,1.002297361066066,1.0331505214633538,0.010428226418683795,0.28,0,0,0.0
2.502666660000159,46,999.32,-101.4,2.5,60.2,0.89,0.42,-0.23,0.01,-0.99,-0.2,-113.9,0.2,0.0,-1.42,0.0,-0.02,0.0,1.0100495037373167,1.0106433594498112,0.017816761708135953,0.28,0,0,0.0
2.5102806360000613,47,999.33,-101.3,2.5,60.3,0.94,0.38,-0.3,0.0,-0.99,-0.19,-113.9,0.3,2.0,-1.42,-0.01,0.03,0.0,1.0080674580602234,1.0573551910309043,0.015518021710421714,0.28,0,0,0.0
2.522430237000208,48,999.34,-101.2,2.6,60.3,1.02,0.32,-0.38,-0.01,-0.97,-0.2,-113.9,0.6,0.0,-1.42,-0.01,0.11,0.0,0.9904544411531506,1.1345483682946267,0.0020530952927180213,0.28,0,0,0.0
2.530309917000068,49,999.35,-101.1,2.6,60.3,0.84,0.24,-0.37,-0.03,-0.95,-0.19,-113.9,0.9,0.0,-1.42,0.0,-0.03,0.0,0.9692780818733084,0.9487360012142471,0.02276486548110901,0.28,0,0,0.0
2.542430507000063,50,999.36,-101.1,2.6,60.3,0.66,0.12,-0.33,-0.04,-0.96,-0.18,-113.9,1.1,2.0,-1.42,-0.03,0.04,0.0,0.977547952787995,0.7475961476626268,0.01420509467509401,0.28,0,0,0.0
2.550306189999901,51,999.37,-101.0,2.5,60.3,0.67,-0.01,-0.3,-0.04,-0.96,-0.18,-113.8,1.4,5.0,-1.42,-0.05,0.04,0.0,0.977547952787995,0.7341661937191061,0.01392099278159209,0.28,0,0,0.0
2.5624620580001647,52,999.38,-100.9,2.5,60.3,0.72,-0.12,-0.28,-0.04,-0.97,-0.19,-113.8,1.1,-1.0,-1.42,-0.03,-0.1,0.0,0.9892421341612982,0.7817928114276825,0.002182275180123039,0.28,0,0,0.0
2.5702832980000494,53,999.39,-100.9,2.5,60.3,0.79,-0.28,-0.29,-0.03,-0.97,-0.2,-113.8,1.3,3.0,-1.42,-0.04,0.13,0.0,0.9908582138732059,0.886904729945669,0.0005548715588510333,0.28,0,0,0.0
2.5827659860001404,54,999.4,-100.8,2.5,60.2,0.82,-0.4,-0.31,-0.03,-0.96,-0.2,-113.8,2.6,10.0,-1.42,-0.08,0.12,0.0,0.9810708435174292,0.9635870484808313,0.01013539707633515,0.28,0,0,0.0
2.5925758050002514,55,999.41,-100.7,2.4,60.2,0.75,-0.49,-0.3,-0.02,-0.96,-0.21,-113.8,3.1,7.0,-1.42,-0.09,-0.06,0.0,0.9829038610159184,0.9447751055145346,0.008136331986289047,0.28,0,0,0.0
2.6024489470000844,56,999.42,-100.7,2.4,60.1,0.73,-0.55,-0.31,0.0,-0.97,-0.2,-113.7,5.4,23.0,-1.43,-0.19,-0.02,0.0,0.9904039579888602,0.9651424765287246,0.0006235103130803887,0.28,0,0,0.0
2.61226650000026,57,999.43,-100.6,2.4,60.1,0.84,-0.57,-0.33,0.01,-0.96,-0.22,-113.6,8.7,28.0,-1.43,-0.27,0.1,0.0,0.9849365461794988,1.0674268124794317,0.0059691036799929265,0.28,0,0,0.0
2.6226080659998843,58,999.44,-100.5,2.4,60.0,0.89,-0.51,-0.35,0.03,-0.96,-0.23,-113.5,13.6,56.0,-1.43,-0.48,0.19,0.0,0.9876234100101111,1.0838357809188623,0.003216595052393023,0.28,0,0,0.0
2.632555121000223,59,999.45,-100.5,2.5,60.0,0.8,-0.37,-0.32,0.04,-0.95,-0.24,-113.3,20.2,46.0,-1.44,-0.57,-0.1,0.0,0.9806630410084801,0.9377099764852671,0.009973424772943495,0.28,0,0,0.0
2.6423296000002665,60,999.46,-100.5,2.5,59.9,0.47,-0.22,-0.24,0.05,-0.95,-0.23,-113.1,21.2,17.0,-1.44,-0.57,0.17,0.0,0.9787236586493656,0.5717516943569122,0.011674550989416832,0.28,0,0,0.0
2.6526745310002298,61,999.47,-100.5,2.5,59.9,0.27,-0.03,-0.2,0.06,-0.98,-0.25,-112.9,23.1,17.0,-1.45,-0.63,-0.13,0.0,1.01316336293808,0.33734255586866,0.022309850233311668,0.28,0,0,0.0
2.662358676000167,62,999.48,-100.5,2.5,59.9,0.35,0.12,-0.29,0.06,-1.01,-0.24,-112.7,22.7,-1.0,-1.46,-0.6,-0.05,0.0,1.039855759228173,0.4701063709417263,0.048022201592936464,0.28,0,0,0.0
2.672522926000056,63,999.49,-100.5,2.6,59.9,0.58,0.25,-0.52,0.06,-1.03,-0.26,-112.5,21.3,-19.0,-1.46,-0.52,0.13,0.0,1.0640018796975879,0.8181075723888638,0.07072495562110437,0.28,0,0,0.0
2.6829069380000874,64,999.5,-100.4,2.7,59.9,0.66,0.38,-0.85,0.03,-1.03,-0.25,-112.3,14.7,-65.0,-1.47,-0.28,0.25,0.0,1.0603301372685772,1.1412712210513327,0.06571214892825183,0.28,0,0,0.0
2.6903511380000964,65,999.51,-100.4,2.8,60.0,0.61,0.35,-1.2,0.01,-1.04,-0.18,-112.2,5.6,-68.0,-1.47,-0.09,0.11,0.0,1.0555093557141026,1.390898989862312,0.05967354002630176,0.28,0,0,0.0
2.702524741000161,66,999.52,-100.3,2.9,59.9,0.65,0.04,-1.56,0.0,-1.03,-0.16,-112.2,1.3,-46.0,-1.47,0.0,-0.04,0.0,1.0423531071570709,1.690473306503241,0.045586945639884524,0.28,0,0,0.0
2.7125519290002558,67,999.53,-100.2,3.0,59.9,0.69,-0.26,-1.8,-0.01,-1.02,-0.15,-112.2,-0.4,-12.0,-1.47,-0.02,-0.09,0.0,1.0310189135025603,1.9451735141112734,0.033567696945666414,0.28,0,0,0.0
2.7222310900001503,68,999.54,-100.1,3.2,59.8,0.69,-0.67,-1.92,-0.01,-1.02,-0.15,-112.2,0.5,-8.0,-1.47,0.0,0.02,0.0,1.0310189135025603,2.1474170531128784,0.03289634300675304,0.28,0,0,0.0
2.730294140999831,69,999.55,-100.1,3.3,59.7,0.93,-1.14,-2.0,0.0,-1.02,-0.13,-112.2,-0.3,-2.0,-1.47,0.0,-0.19,0.0,1.0282509421342632,2.4828411145298848,0.029525804205686845,0.28,0,0,0.0
2.7424551929998415,70,999.56,-99.9,3.4,59.5,1.55,-1.76,-2.08,0.0,-0.99,-0.12,-112.2,-0.4,-8.0,-1.47,0.04,0.11,0.0,0.9972462083156797,3.134724868309817,0.0014493510206387006,0.28,0,0,0.0
2.7503694259999065,71,999.57,-99.7,3.6,59.3,1.75,-2.34,-2.01,0.01,-0.94,-0.11,-112.2,-2.8,-17.0,-1.47,0.09,0.17,0.0,0.9464671151181112,3.5465758133726677,0.051183875333843054,0.28,0,0,0.0
2.76240658100005,72,999.58,-99.5,3.7,59.0,1.7,-2.86,-1.89,0.04,-0.93,-0.14,-112.2,-4.7,-22.0,-1.46,0.17,0.09,0.0,0.9413288479590967,3.8264474385518477,0.05519569964300042,0.28,0,0,0.0
2.7702593610001713,73,999.59,-99.4,3.8,58.7,1.6,-3.2,-1.76,0.05,-0.91,-0.2,-112.3,-7.9,-27.0,-1.46,0.25,0.07,0.0,0.9330594836343501,3.9871794542006764,0.062195762688392,0.28,0,0,0.0
2.7824192749999384,74,999.6,-99.3,3.9,58.3,1.33,-3.35,-1.53,0.08,-0.91,-0.23,-112.4,-6.6,20.0,-1.46,0.09,-0.05,0.0,0.9420191080864548,3.9156480945049186,0.052171415471561566,0.28,0,0,0.0
2.7902579320002587,75,999.61,-99.3,4.0,57.9,0.95,-3.44,-1.34,0.09,-0.94,-0.24,-112.4,-0.3,48.0,-1.46,-0.06,0.09,0.0,0.9743202758846805,3.8120466943624916,0.019472842719869154,0.28,0,0,0.0
2.8024107290002576,76,999.62,-99.3,4.1,57.6,0.62,-3.44,-1.22,0.09,-0.98,-0.25,-112.4,2.3,13.0,-1.46,-0.03,0.19,0.0,1.0153817016275208,3.7022155528818144,0.021156811362511796,0.28,0,0,0.0
2.810239204000027,77,999.63,-99.3,4.2,57.2,0.23,-3.4,-1.24,0.09,-1.02,-0.25,-112.4,0.9,2.0,-1.46,-0.03,-0.09,0.0,1.0540398474441086,3.6263618131675717,0.05861865803551758,0.28,0,0,0.0
2.8223572639999475,78,999.64,-99.4,4.3,56.9,-0.16,-3.38,-1.34,0.09,-1.04,-0.25,-112.4,2.9,20.0,-1.46,-0.12,0.03,0.0,1.0734057946554976,3.6394505079750705,0.07642491314196842,0.28,0,0,0.0
2.8325518609999563,79,999.65,-99.5,4.4,56.5,-0.38,-3.34,-1.46,0.09,-1.04,-0.25,-112.3,5.6,21.0,-1.46,-0.17,-0.02,0.0,1.0734057946554976,3.6649147329781084,0.07489641487912901,0.28,0,0,0.0
2.842445364000014,80,999.66,-99.6,4.5,56.1,-0.38,-3.35,-1.55,0.09,-1.01,-0.26,-112.2,10.2,60.0,-1.47,-0.41,0.03,0.0,1.0468046618161384,3.710714216966863,0.0473293763989745,0.28,0,0,0.0
2.850340425000013,81,999.67,-99.7,4.6,55.8,-0.18,-3.34,-1.58,0.1,-0.97,-0.27,-112.0,23.6,132.0,-1.47,-0.89,-0.21,0.0,1.011830025251277,3.699243165838115,0.012107645037430892,0.28,0,0,0.0
2.8624675089999982,82,999.68,-99.8,4.7,55.4,0.13,-3.28,-1.51,0.12,-0.92,-0.29,-111.7,43.2,178.0,-1.49,-1.42,-0.06,0.0,0.97205966895042,3.6132257056541595,0.027109457038157703,0.28,0,0,0.0
2.870322281999961,83,999.69,-99.8,4.8,55.1,0.37,-3.1,-1.33,0.14,-0.88,-0.31,-111.1,63.8,196.0,-1.51,-1.99,-0.11,0.0,0.9434511116109832,3.3934937748580007,0.05460365409004264,0.28,0,0,0.0
2.88244858500002,84,999.7,-99.8,4.8,54.8,0.44,-2.89,-1.14,0.16,-0.86,-0.31,-110.3,84.6,208.0,-1.53,-2.57,-0.05,0.0,0.9280624978954811,3.1377221036924223,0.06859242244943375,0.28,0,0,0.0
2.892583946999821,85,999.71,-99.7,4.9,54.5,0.52,-2.57,-0.9,0.18,-0.85,-0.33,-109.3,106.6,214.0,-1.56,-3.17,-0.08,0.0,0.9294084139924708,2.7722373635747717,0.06590157622539528,0.28,0,0,0.0
2.902546627999982,86,999.72,-99.7,4.9,54.2,0.51,-2.21,-0.68,0.2,-0.85,-0.33,-108.1,130.2,235.0,-1.6,-3.84,-0.03,0.0,0.9334880824091971,2.3678260071213,0.06058546965249556,0.28,0,0,0.0
2.912628424000104,87,999.73,-99.7,5.0,54.0,0.55,-1.83,-0.48,0.21,-0.85,-0.34,-106.6,153.2,221.0,-1.64,-4.41,-0.13,0.0,0.9392550239418472,1.9702284131541705,0.05372215755744858,0.28,0,0,0.0
2.9221690489998764,88,999.74,-99.6,5.0,53.8,0.6,-1.42,-0.28,0.21,-0.85,-0.33,-104.9,174.6,210.0,-1.69,-4.98,0.02,0.0,0.935681569766125,1.5667801377347108,0.056149699498507344,0.28,0,0,0.0
2.930253381000057,89,999.75,-99.6,5.0,53.7,0.69,-1.04,-0.1,0.2,-0.85,-0.33,-103.0,195.4,215.0,-1.74,-5.57,-0.11,0.0,0.9334880824091971,1.252078272313676,0.057176323118326544,0.28,0,0,0.0
2.942558088000169,90,999.76,-99.5,4.9,53.6,0.78,-0.74,0.06,0.19,-0.85,-0.34,-100.9,217.9,224.0,-1.8,-6.21,-0.34,0.0,0.934986630920464,1.0768472500777444,0.05456421911491849,0.28,0,0,0.0
2.950299692000044,91,999.77,-99.4,4.9,53.6,0.87,-0.37,0.23,0.18,-0.84,-0.36,-98.6,242.3,240.0,-1.87,-6.89,-0.15,0.0,0.9314504817756014,0.9729850975220535,0.05693836089458537,0.28,0,0,0.0
2.962467249999918,92,999.78,-99.3,4.9,53.6,0.93,0.02,0.41,0.17,-0.83,-0.37,-96.0,264.3,209.0,-1.94,-7.4,-0.06,0.0,0.9244998647917695,1.0165628362280417,0.06261119832084894,0.28,0,0,0.0
2.97032051899987,93,999.79,-99.2,4.8,53.6,0.89,0.41,0.58,0.17,-0.83,-0.37,-93.3,279.3,161.0,-2.02,-7.75,-0.07,0.0,0.9244998647917695,1.1386834503056589,0.06135897435443194,0.28,0,0,0.0
2.982463743000153,94,999.8,-99.2,4.8,53.7,0.78,0.77,0.74,0.17,-0.84,-0.37,-90.4,291.4,124.0,-2.1,-8.03,0.08,0.0,0.9334880824091971,1.3224598292575847,0.05132334160226426,0.28,0,0,0.0
2.990235899000254,95,999.81,-99.1,4.7,53.8,0.77,1.13,0.93,0.17,-0.84,-0.37,-87.4,293.5,12.0,-2.18,-7.86,0.09,0.0,0.9334880824091971,1.6536928372584794,0.050296874770218936,0.28,0,0,0.0
3.00243538299992,96,999.82,-99.0,4.6,53.9,0.8,1.43,1.14,0.17,-0.85,-0.37,-84.6,276.8,-149.0,-2.25,-7.18,0.22,0.0,0.9424966843443005,1.996121238802894,0.04046250737841328,0.28,0,0,0.0
3.0102514569998675,97,999.83,-98.9,4.5,54.1,0.8,1.74,1.34,0.16,-0.87,-0.36,-82.0,248.5,-248.0,-2.32,-6.37,0.09,0.0,0.9550392662084632,2.3373489255992568,0.027361527003965436,0.28,0,0,0.0
3.0225180120000914,98,999.84,-98.8,4.4,54.3,0.83,2.04,1.49,0.13,-0.89,-0.36,-79.8,215.3,-310.0,-2.37,-5.43,0.16,0.0,0.9688137075826292,2.659059984280159,0.01331534391720346,0.28,0,0,0.0
3.03031935800027,99,999.85,-98.7,4.3,54.6,0.85,2.29,1.58,0.1,-0.91,-0.33,-77.8,183.1,-313.0,-2.42,-4.59,0.13,0.0,0.9731392500562291,2.9091235793620047,0.008810005414731426,0.28,0,0,0.0
3.0424487850000332,100,999.86,-98.6,4.2,54.8,0.85,2.43,1.62,0.07,-0.9,-0.31,-76.2,153.4,-286.0,-2.46,-3.86,0.17,0.0,0.9544631999192007,3.0416771689316406,0.02693633444072463,0.28,0,0,0.0
3.050204702999963,101,999.87,-98.5,4.1,55.1,0.83,2.49,1.66,0.06,-0.9,-0.28,-74.9,130.0,-234.0,-2.5,-3.31,0.05,0.0,0.9444575162494077,3.105575631022371,0.03620317774830728,0.28,0,0,0.0
3.0627087050002046,102,999.88,-98.4,3.9,55.4,0.72,2.49,1.65,0.05,-0.9,-0.27,-73.7,113.5,-180.0,-2.53,-2.9,0.02,0.0,0.9409569596958194,3.072621030976648,0.038909659615857684,0.28,0,0,0.0
3.0703090980000525,103,999.89,-98.3,3.8,55.6,0.52,2.46,1.66,0.05,-0.88,-0.27,-72.6,100.3,-147.0,-2.55,-2.55,-0.06,0.0,0.921845974119321,3.012905574358413,0.056860232288508894,0.28,0,0,0.0
3.0823316539999723,104,999.9,-98.2,3.7,55.9,0.34,2.42,1.71,0.07,-0.87,-0.27,-71.7,90.2,-108.0,-2.58,-2.34,0.13,0.0,0.9136191766814005,2.982633064927699,0.06378528913190085,0.28,0,0,0.0
3.0923682150000786,105,999.91,-98.2,3.5,56.2,0.16,2.38,1.76,0.09,-0.87,-0.29,-70.9,80.0,-110.0,-2.6,-2.02,0.02,0.0,0.9214662229295222,2.96438863848855,0.05481947802610354,0.28,0,0,0.0
3.1025566650000655,106,999.92,-98.2,3.4,56.4,-0.05,2.41,1.81,0.1,-0.88,-0.32,-70.1,69.1,-109.0,-2.62,-1.74,0.15,0.0,0.9417005893594843,3.014415366202873,0.033893409364218585,0.28,0,0,0.0
3.112526938999963,107,999.93,-98.2,3.2,56.7,-0.31,2.47,1.84,0.11,-0.89,-0.33,-69.5,59.6,-98.0,-2.63,-1.51,-0.01,0.0,0.9555626614722867,3.095577490550027,0.019630710506387872,0.28,0,0,0.0
3.1263628000001518,108,999.94,-98.2,3.1,57.0,-0.61,2.46,1.81,0.1,-0.9,-0.33,-69.0,50.7,-96.0,-2.65,-1.24,-0.02,0.0,0.9637945839233587,3.1144501922490266,0.011170812294209576,0.28,0,0,0.0
3.1343706410002596,109,999.95,-98.3,3.0,57.2,-0.87,2.46,1.73,0.08,-0.92,-0.33,-68.5,39.0,-117.0,-2.66,-0.89,0.0,0.0,0.9806630410084801,3.130718767312069,0.005583691895093557,0.28,0,0,0.0
3.1423714269999437,110,999.96,-98.4,2.8,57.5,-1.03,2.36,1.65,0.06,-0.93,-0.34,-68.3,25.0,-136.0,-2.66,-0.49,0.01,0.0,0.9920181449953424,3.058267483396441,0.016600019964316703,0.28,0,0,0.0
3.1543353910001315,111,999.97,-98.5,2.7,57.8,-1.13,2.27,1.57,0.05,-0.96,-0.34,-68.1,9.5,-148.0,-2.67,-0.06,0.06,0.0,1.0196568050084303,2.9823983637334566,0.04335390637785652,0.28,0,0,0.0
3.1623171840001305,112,999.98,-98.6,2.6,58.0,-1.12,2.11,1.47,0.05,-0.97,-0.35,-68.1,-2.9,-106.0,-2.66,0.13,-0.03,0.0,1.0324243313676793,2.804888589587829,0.05499900408236347,0.28,0,0,0.0
3.1724785989999873,113,999.99,-98.7,2.5,58.2,-1.04,2.01,1.4,0.06,-0.99,-0.36,-68.1,-2.9,-13.0,-2.66,0.02,0.01,0.0,1.0551303237041385,2.661146369518219,0.07615089649044626,0.28,0,0,0.0
3.1825276220001797,114,1000.0,-98.8,2.3,58.6,-0.93,1.82,1.21,0.14,-1.02,-0.38,-68.2,-0.7,-2.0,-2.66,0.03,0.07,0.0,1.097451593465516,2.3751631522908063,0.11610272292678725,0.28,0,0,0.0
3.1902374999999665,115,1000.01,-98.9,2.2,58.8,-0.88,1.85,1.12,0.18,-1.03,-0.42,-68.2,-3.5,-30.0,-2.66,0.16,-0.05,0.0,1.126809655620682,2.334801918793113,0.1425515693803141,0.28,0,0,0.0
3.20280039499994,116,1000.02,-99.0,2.1,59.1,-0.72,1.99,0.98,0.2,-1.05,-0.44,-68.3,-10.5,-63.0,-2.66,0.38,0.0,0.0,1.1558979193683152,2.332144935461774,0.16820703646538848,0.28,0,0,0.0
3.2103702630001862,117,1000.03,-99.0,2.1,59.3,-0.58,2.13,0.89,0.2,-1.02,-0.42,-68.4,-17.0,-70.0,-2.65,0.61,-0.1,0.0,1.1210709165793213,2.3802100747623096,0.13071243300286672,0.28,0,0,0.0
3.2227951810000377,118,1000.04,-99.1,2.0,59.5,-0.46,2.22,0.9,0.2,-1.0,-0.42,-68.6,-28.4,-110.0,-2.65,0.99,0.05,0.0,1.1029052543169788,2.4392621835300936,0.11029583532571374,0.28,0,0,0.0
3.2303693680000833,119,1000.05,-99.1,1.9,59.7,-0.48,2.24,0.91,0.2,-0.98,-0.43,-69.0,-44.6,-157.0,-2.63,1.48,-0.02,0.0,1.0887148386974432,2.4649746449000243,0.0941833113120546,0.28,0,0,0.0
3.242570918000183,120,1000.06,-99.2,1.9,60.0,-0.89,2.39,0.79,0.19,-1.05,-0.42,-69.6,-64.9,-204.0,-2.61,2.12,-0.14,0.0,1.1467344941179716,2.669887638085169,0.14915890739793125,0.28,0,0,0.0
3.25260781399993,121,1000.07,-99.3,1.9,60.2,-1.67,2.5,0.38,0.11,-1.13,-0.39,-70.4,-91.7,-263.0,-2.59,2.95,0.07,0.0,1.2004582458378132,3.0303960137249386,0.19882500593541752,0.28,0,0,0.0
3.262261779000255,122,1000.08,-99.5,1.9,60.5,-2.46,2.51,-0.07,0.05,-1.16,-0.32,-71.6,-125.3,-329.0,-2.55,3.98,0.2,0.0,1.2043670536842164,3.5151955848857113,0.19867913750618427,0.28,0,0,0.0
3.2726452219999373,123,1000.09,-99.8,2.0,60.7,-2.47,2.15,-0.44,0.03,-1.16,-0.26,-73.1,-163.9,-369.0,-2.5,5.05,0.06,0.0,1.1891593669479292,3.304088376542008,0.1798020217544991,0.28,0,0,0.0
3.2822516259998338,124,1000.1,-100.1,2.1,60.9,-1.87,1.58,-0.62,0.03,-1.09,-0.28,-75.0,-202.2,-358.0,-2.45,5.98,0.15,0.0,1.1257886124845997,2.5254108576625707,0.11410264194534614,0.28,0,0,0.0
3.292651830000068,125,1000.11,-100.3,2.1,61.0,-1.61,0.99,-0.54,0.04,-1.02,-0.27,-77.2,-231.6,-295.0,-2.38,6.64,0.17,0.0,1.0558882516630252,1.9656551070826236,0.04331823550129621,0.28,0,0,0.0
3.3023417949998475,126,1000.12,-100.5,2.2,61.1,-1.77,0.61,-0.4,0.08,-1.02,-0.29,-79.7,-251.2,-193.0,-2.31,6.97,-0.04,0.0,1.063437821407533,1.9144189719076647,0.04985044914088799,0.28,0,0,0.0
3.3103250280000793,127,1000.13,-100.7,2.3,61.1,-2.56,0.24,-0.37,0.06,-1.05,-0.24,-82.3,-258.1,-94.0,-2.24,7.04,0.03,0.0,1.0787492757819122,2.5977105304479173,0.06385866544496177,0.28,0,0,0.0
3.322807374000149,128,1000.14,-101.1,2.3,61.1,-3.18,0.11,-0.36,0.07,-1.09,-0.24,-84.9,-258.6,-19.0,-2.17,6.95,-0.12,0.0,1.1183022847155415,3.2022023671217283,0.10134344089101921,0.28,0,0,0.0
3.3303343570000834,129,1000.15,-101.4,2.4,61.1,-3.97,0.05,-0.62,0.03,-1.29,-0.19,-87.4,-248.3,100.0,-2.1,6.43,-0.18,0.0,1.3042622435691376,4.018432530228671,0.28155733174972286,0.28,0,1,0.0
3.3426979000000756,130,1000.16,-101.8,2.5,61.1,-4.31,-0.09,-1.32,-0.02,-1.4,-0.19,-89.7,-223.1,225.0,-2.05,5.6,-0.43,0.0,1.4129755836531641,4.5085030775191886,0.38246525839707446,0.28,0,1,0.0
3.352642640999875,131,1000.17,-102.2,2.6,61.0,-4.19,-0.26,-1.91,-0.03,-1.38,-0.22,-91.7,-191.3,290.0,-2.0,4.73,-0.1,0.0,1.3977481890526633,4.612136164512059,0.3598931065206421,0.28,0,1,0.0
3.3625016539999706,132,1000.18,-102.5,2.7,60.9,-3.16,-0.55,-2.11,0.05,-1.31,-0.26,-93.4,-161.2,286.0,-1.95,3.97,-0.12,0.0,1.336487934850143,3.839296810615194,0.29266019527175935,0.28,0,1,0.0
3.37026032499989,133,1000.19,-102.5,2.7,60.9,-3.16,-0.55,-2.11,0.05,-1.31,-0.26,-94.9,-135.6,251.0,-1.92,3.42,-0.04,0.0,1.336487934850143,3.839296810615194,0.28680699136632426,0.28,0,1,0.0
3.382605155999954,134,1000.2,-102.8,2.9,60.8,-1.56,-0.6,-1.94,0.14,-1.16,-0.25,-96.1,-113.9,224.0,-1.89,2.85,0.1,0.0,1.1948640089985136,2.560703028466987,0.14227940420440088,0.28,0,1,0.0
3.3902846579999277,135,1000.21,-102.9,3.1,60.7,-0.01,-0.48,-1.16,0.25,-0.94,-0.25,-97.1,-96.0,183.0,-1.87,2.41,-0.16,0.0,1.004290794541103,1.2554282137979853,0.04732793404794955,0.28,0,1,0.0
3.4025151979999464,136,1000.22,-102.8,3.2,60.7,1.04,0.04,-0.14,0.36,-0.86,-0.25,-97.9,-82.9,138.0,-1.84,2.12,-0.1,0.0,0.9652460826131334,1.0501428474260062,0.08464519305640084,0.28,0,1,0.0
3.4128606180001952,137,1000.23,-102.5,3.1,61.0,1.28,2.49,0.74,0.32,-0.96,-0.16,-98.7,-71.3,124.0,-1.83,1.8,-0.18,0.0,1.0244998779892558,2.8958763785769586,0.02488356972667294,0.28,0,1,0.0
3.422200012999838,138,1000.24,-102.5,3.1,61.0,1.28,2.49,0.74,0.32,-0.96,-0.16,-99.3,-59.9,117.0,-1.81,1.48,-0.04,0.0,1.0244998779892558,2.8958763785769586,0.024385898332139444,0.28,0,1,0.0
3.432508276000135,139,1000.25,-102.3,3.2,61.7,0.93,4.42,0.55,0.05,-0.97,0.02,-99.8,-46.5,134.0,-1.8,1.09,-0.12,0.0,0.9714936952960631,4.550142854900272,0.07584423940482554,0.28,0,1,0.0
3.4422837870001786,140,1000.26,-102.3,3.2,61.7,0.93,4.42,0.55,0.05,-0.97,0.02,-100.2,-32.8,145.0,-1.79,0.68,0.02,0.0,0.9714936952960631,4.550142854900272,0.07432735461672912,0.28,0,1,0.0
3.452675449000253,141,1000.27,-102.1,3.2,62.2,1.14,4.79,0.46,-0.04,-1.0,0.08,-100.4,-15.4,158.0,-1.79,0.23,-0.01,0.0,1.0039920318408906,4.945230024983671,0.04099243771046357,0.28,0,1,0.0
3.4623032439999406,142,1000.28,-101.7,3.4,63.1,2.13,4.27,-0.08,-0.13,-0.96,0.12,-100.5,-2.8,122.0,-1.79,-0.03,-0.1,0.0,0.9761659694949419,4.772441723059591,0.06744213005528399,0.28,0,1,0.0
3.472497055000076,143,1000.29,-101.7,3.4,63.1,2.13,4.27,-0.08,-0.13,-0.96,0.12,-100.5,1.8,48.0,-1.79,-0.03,-0.1,0.0,0.9761659694949419,4.772441723059591,0.0660932874541783,0.28,0,1,0.0
3.4826247089999924,144,1000.3,-101.2,3.5,63.8,2.05,3.07,-0.05,-0.09,-0.81,0.05,-100.5,-0.5,0.0,-1.79,0.03,0.0,0.0,0.8165169930871005,3.691869445145643,0.22122741858477946,0.28,0,1,0.0
3.4927056159999665,145,1000.31,-101.1,3.6,64.1,1.34,2.6,0.18,-0.05,-0.83,0.01,-100.5,-0.8,6.0,-1.79,0.0,0.09,0.0,0.8315647900193947,2.9305289624912434,0.20205602921943566,0.28,0,1,0.0
3.501929053999902,146,1000.32,-101.1,3.6,64.1,1.34,2.6,0.18,-0.05,-0.83,0.01,-100.5,-2.2,-20.0,-1.78,0.12,0.0,0.0,0.8315647900193947,2.9305289624912434,0.198014908635047,0.28,0,1,0.0
3.5123654970002463,147,1000.33,-100.9,3.6,64.5,0.28,1.89,0.58,0.04,-0.9,-0.06,-100.5,-6.4,-32.0,-1.78,0.21,0.13,0.0,0.902884267223657,1.996722314193939,0.12416152280216886,0.28,0,1,0.0
3.5223764130000745,148,1000.34,-100.9,3.6,64.5,0.28,1.89,0.58,0.04,-0.9,-0.06,-100.6,-9.9,-41.0,-1.78,0.35,0.15,0.0,0.902884267223657,1.996722314193939,0.12167829234612548,0.28,0,1,0.0
3.532489661999989,149,1000.35,-100.8,3.6,64.7,0.19,1.77,0.84,0.07,-0.96,-0.13,-100.8,-17.4,-66.0,-1.77,0.55,0.03,0.0,0.9712878049270464,1.9684003657792792,0.052209259549881315,0.28,0,1,0.0
3.5426523040000575,150,1000.36,-100.7,3.4,65.1,0.6,1.87,1.41,0.06,-1.03,-0.18,-101.0,-26.6,-96.0,-1.77,0.87,0.08,0.0,1.047329938462565,2.4176434807473166,0.023356216505924454,0.28,0,1,0.0
3.5528686389998256,151,1000.37,-100.7,3.4,65.1,0.6,1.87,1.41,0.06,-1.03,-0.18,-101.4,-38.6,-112.0,-1.76,1.21,-0.03,0.0,1.047329938462565,2.4176434807473166,0.022889092175806036,0.28,0,1,0.0
3.5621497520000958,152,1000.38,-100.4,3.2,65.6,1.88,1.93,1.46,0.0,-1.01,-0.15,-101.8,-52.3,-132.0,-1.74,1.6,0.14,0.0,1.021077861869505,3.064457537640226,0.003295724728908711,0.28,0,1,0.0
3.5727385850000246,153,1000.39,-100.1,3.0,65.8,2.21,1.78,1.37,-0.03,-0.96,-0.15,-102.4,-64.3,-118.0,-1.72,1.89,0.02,0.0,0.972111104761179,3.151095047757208,0.051217232200490015,0.28,0,1,0.0
3.582236834000014,154,1000.4,-100.1,3.0,65.8,2.21,1.78,1.37,-0.03,-0.96,-0.15,-103.2,-74.9,-104.0,-1.7,2.13,0.06,0.0,0.972111104761179,3.151095047757208,0.050192887556480104,0.28,0,1,0.0
3.592348074000256,155,1000.41,-99.7,2.7,66.1,1.73,1.3,1.15,-0.04,-0.88,-0.13,-104.0,-79.5,-48.0,-1.68,2.17,0.2,0.0,0.8904493247793498,2.450591765268136,0.1292175741875431,0.28,0,1,0.0
3.6022052590001294,156,1000.42,-99.5,2.6,66.2,1.16,0.97,1.22,-0.03,-0.87,-0.14,-104.8,-80.8,-21.0,-1.66,2.19,-0.09,0.0,0.8817028978062849,1.942910188351484,0.1352047211373959,0.28,0,1,0.0
3.6128506479999487,157,1000.43,-99.5,2.6,66.2,1.16,0.97,1.22,-0.03,-0.87,-0.14,-105.6,-80.8,-9.0,-1.64,2.21,-0.03,0.0,0.8817028978062849,1.942910188351484,0.13250062671464802,0.28,0,1,0.0
3.6223858769999424,158,1000.44,-99.4,2.2,66.4,0.64,0.35,1.45,0.0,-0.85,-0.19,-106.4,-81.3,0.0,-1.61,2.18,0.04,0.0,0.870976463516667,1.6231450951778772,0.14036251978418046,0.28,0,1,0.0
3.6326501530002133,159,1000.45,-99.4,2.2,66.4,0.64,0.35,1.45,0.0,-0.85,-0.19,-107.2,-79.9,2.0,-1.59,2.18,0.13,0.0,0.870976463516667,1.6231450951778772,0.13755526938849694,0.28,0,1,0.0
3.642285943999923,160,1000.46,-99.4,2.1,66.5,0.58,0.17,1.59,0.0,-0.85,-0.21,-108.0,-81.2,-10.0,-1.57,2.22,0.12,0.0,0.8755569655939013,1.7009997060552362,0.13031527196503734,0.28,0,1,0.0
3.652652343000227,161,1000.47,-99.3,1.7,66.5,0.56,-0.01,1.79,-0.01,-0.86,-0.28,-108.8,-82.0,0.0,-1.55,2.2,0.08,0.0,0.9044888059008801,1.8755799103210717,0.09935576302489746,0.28,0,1,0.0
3.6621015300002,162,1000.48,-99.3,1.7,66.5,0.56,-0.01,1.79,-0.01,-0.86,-0.28,-109.6,-80.4,14.0,-1.53,2.14,-0.08,0.0,0.9044888059008801,1.8755799103210717,0.09736864776439946,0.28,0,1,0.0
3.6726151500001833,163,1000.49,-99.2,1.4,66.6,0.66,0.07,1.49,-0.06,-0.92,-0.28,-110.4,-78.1,15.0,-1.51,2.11,-0.04,0.0,0.9635351576356724,1.6311345744603662,0.037555850109015076,0.28,0,1,0.0
3.682277138000245,164,1000.5,-99.1,1.3,66.6,0.87,0.03,1.17,-0.09,-0.93,-0.26,-111.2,-77.9,9.0,-1.48,2.1,0.05,0.0,0.9698453484963466,1.458320952328396,0.03062074606337417,0.28,0,1,0.0
3.6926245939998807,165,1000.51,-99.1,1.3,66.6,0.87,0.03,1.17,-0.09,-0.93,-0.26,-112.0,-75.6,22.0,-1.46,2.02,0.1,0.0,0.9698453484963466,1.458320952328396,0.03000833114210666,0.28,0,1,0.0
3.7022706990001097,166,1000.52,-98.8,1.1,66.6,1.51,-0.34,0.36,-0.15,-0.92,-0.22,-112.7,-75.2,7.0,-1.44,2.03,-0.08,0.0,0.9577577981932593,1.5891192529196794,0.041253963816290096,0.28,0,1,0.0
3.7126870980000604,167,1000.53,-98.7,1.1,66.6,1.9,-0.67,-0.16,-0.17,-0.89,-0.21,-113.5,-74.6,6.0,-1.42,2.02,0.05,0.0,0.9301075206662938,2.0210145966815776,0.0675261565163906,0.28,0,1,0.0
3.722126003000085,168,1000.54,-98.7,1.1,66.6,1.9,-0.67,-0.16,-0.17,-0.89,-0.21,-114.2,-72.7,24.0,-1.4,1.92,-0.19,0.0,0.9301075206662938,2.0210145966815776,0.0661756333860628,0.28,0,1,0.0
3.7327789199998733,169,1000.55,-98.2,1.2,66.3,2.18,-1.63,-1.16,-0.2,-0.79,-0.2,-114.9,-69.6,25.0,-1.38,1.86,-0.03,0.0,0.8391066678319272,2.958868026796734,0.15403295649602078,0.28,0,1,0.0
3.742291217000002,170,1000.56,-98.2,1.2,66.3,2.18,-1.63,-1.16,-0.2,-0.79,-0.2,-115.6,-70.0,-1.0,-1.37,1.93,0.01,0.0,0.8391066678319272,2.958868026796734,0.15095229736610039,0.28,0,1,0.0
3.7525136720000773,171,1000.57,-98.1,1.3,66.1,1.45,-2.22,-1.29,-0.19,-0.73,-0.2,-116.3,-72.1,-17.0,-1.35,1.98,0.09,0.0,0.7803845206050668,2.9487285395573464,0.2054809557011016,0.28,0,1,0.0
3.7627362640000683,172,1000.58,-98.1,1.4,65.5,-1.05,-3.46,-1.08,-0.1,-0.81,-0.23,-117.0,-73.5,-18.0,-1.33,2.03,-0.1,0.0,0.8479386770280031,3.7736587021086048,0.135168263292602,0.28,0,1,0.0
3.772703174000071,173,1000.59,-98.1,1.4,65.5,-1.05,-3.46,-1.08,-0.1,-0.81,-0.23,-117.8,-78.4,-48.0,-1.3,2.21,0.12,0.0,0.8479386770280031,3.7736587021086048,0.13246489802675,0.28,0,1,0.0
3.7822795739998583,174,1000.6,-98.2,1.5,65.1,-1.16,-3.62,-1.1,-0.04,-0.85,-0.27,-118.6,-87.2,-85.0,-1.28,2.51,0.05,0.0,0.8927485648266257,3.9572717874818757,0.08590191002356484,0.28,0,1,0.0
3.7925936120000188,175,1000.61,-98.4,1.6,64.4,-0.91,-3.5,-0.97,0.06,-0.83,-0.29,-119.6,-99.2,-111.0,-1.25,2.86,0.12,0.0,0.8812491134747313,3.7441955077159097,0.09545333414794999,0.28,0,1,0.0
3.8023163409998233,176,1000.62,-98.4,1.6,64.4,-0.91,-3.5,-0.97,0.06,-0.83,-0.29,-120.7,-115.0,-152.0,-1.22,3.34,0.28,0.0,0.8812491134747313,3.7441955077159097,0.093544267464991,0.28,0,1,0.0
3.810298901999886,177,1000.63,-98.6,1.6,64.0,-1.65,-3.09,-0.54,0.12,-0.82,-0.3,-122.0,-133.9,-175.0,-1.18,3.86,-0.02,0.0,0.881362581461228,3.544319398699841,0.09156218348892442,0.28,0,1,0.0
3.822755475000122,178,1000.64,-98.8,1.6,63.8,-2.49,-2.39,-0.1,0.21,-0.9,-0.34,-123.4,-151.6,-173.0,-1.14,4.33,-0.1,0.0,0.9847334664770971,3.45285389207247,0.011572527496405804,0.28,0,1,0.0
3.832651586999873,179,1000.65,-99.0,1.6,63.6,-2.31,-1.19,0.17,0.23,-0.99,-0.42,-125.1,-167.4,-149.0,-1.1,4.69,0.15,0.0,1.0997272389097215,2.6040545309190435,0.12403497393044949,0.28,0,1,0.0
3.8422881910000797,180,1000.66,-99.3,1.5,63.5,-0.09,0.33,0.04,0.24,-1.01,-0.44,-126.8,-177.4,-104.0,-1.05,4.9,0.13,0.0,1.1275194011634568,0.3443835071544513,0.14879059346050116,0.28,0,1,0.0
3.8525866640002278,181,1000.67,-99.2,1.6,63.6,0.84,0.71,-0.47,0.14,-0.99,-0.47,-128.6,-182.7,-59.0,-1.0,5.01,0.0,0.0,1.1048076755707303,1.196076920603353,0.1235572905104192,0.28,0,1,0.0
3.862698226000248,182,1000.68,-99.2,1.6,63.6,0.84,0.71,-0.47,0.14,-0.99,-0.47,-130.5,-184.1,-28.0,-0.95,5.02,-0.14,0.0,1.1048076755707303,1.196076920603353,0.12108614470021084,0.28,0,1,0.0
3.8727392870000585,183,1000.69,-99.3,1.7,63.7,-2.56,0.2,-0.54,-0.01,-0.95,-0.37,-132.3,-187.9,-43.0,-0.9,5.17,-0.01,0.0,1.0195587280779856,2.6239664632003206,0.03512045326331681,0.28,0,1,0.0
3.882094658999904,184,1000.7,-99.3,1.7,63.7,-2.56,0.2,-0.54,-0.01,-0.95,-0.37,-134.3,-194.9,-69.0,-0.84,5.4,0.06,0.0,1.0195587280779856,2.6239664632003206,0.0344180441980505,0.28,0,1,0.0
3.8927535689999786,185,1000.71,-99.7,1.8,63.7,-4.44,-0.38,0.02,-0.02,-1.09,-0.32,-136.3,-204.3,-91.0,-0.79,5.69,0.09,0.0,1.136177802986839,4.456276472572141,0.14801637672476575,0.28,0,1,0.0
3.9024023199999647,186,1000.72,-100.6,1.6,63.5,-2.39,-0.89,1.1,0.05,-1.36,-0.39,-138.4,-217.2,-122.0,-0.73,6.08,-0.12,0.0,1.4156977078458524,2.777444868939796,0.4189855559521035,0.28,1,2,3.0
3.912497433000226,187,1000.73,-100.7,1.5,63.5,0.51,-0.58,1.17,-0.04,-1.35,-0.5,-140.7,-234.6,-169.0,-0.66,6.62,0.08,0.0,1.440173600646811,1.4019272449025306,0.434592219778001,0.28,0,2,3.0
3.922299528000167,188,1000.74,-100.7,1.5,63.5,0.51,-0.58,1.17,-0.04,-1.35,-0.5,-143.2,-245.1,80.0,-0.6,5.86,2.82,3.49,1.440173600646811,1.4019272449025306,0.4259003753824411,0.28,0,2,3.0
3.93265957299991,189,1000.75,-100.4,1.2,63.4,0.5,-0.87,1.16,-0.06,-1.18,-0.05,-144.9,-128.7,991.0,-0.57,1.69,2.89,3.49,1.1825819210524064,1.5337861650177969,0.16494252187227576,0.28,0,2,3.0
3.94226752700024,190,1000.76,-100.4,1.2,63.4,0.5,-0.87,1.16,-0.06,-1.18,-0.05,-145.2,5.3,1073.0,-0.57,-1.23,3.58,3.49,1.1825819210524064,1.5337861650177969,0.16164367143483016,0.28,0,2,3.0
3.95255173500027,191,1000.77,-100.5,1.1,63.3,-1.76,-1.32,1.55,0.1,-1.29,-0.1,-144.7,57.0,491.0,-0.59,-1.57,3.41,3.49,1.2977287852244013,2.691189328159578,0.2712547248946884,0.28,0,2,3.0
3.962712546000148,192,1000.78,-100.9,0.6,63.2,-0.66,-0.81,2.74,0.32,-1.53,-0.06,-144.2,52.6,92.0,-0.6,-1.2,3.63,3.49,1.5642570121306791,2.9324563082849164,0.5270272927649469,0.28,0,2,3.0
3.9725977210000565,193,1000.79,-100.9,0.6,63.2,-0.66,-0.81,2.74,0.32,-1.53,-0.06,-143.9,17.4,-284.0,-0.61,0.16,3.68,3.49,1.5642570121306791,2.9324563082849164,0.5164867469096479,0.28,0,2,3.0
3.982524650999949,194,1000.8,-100.8,0.3,63.2,2.31,-0.22,3.67,0.32,-1.46,-0.09,-143.9,-9.3,-137.0,-0.6,0.22,3.35,3.49,1.497364351118324,4.342050206987478,0.4406022041793469,0.28,0,2,3.0
3.992568936000225,195,1000.81,-99.8,-0.4,63.3,6.16,-0.08,3.78,-0.14,-1.24,0.24,-144.0,-9.4,-75.0,-0.6,0.35,3.51,3.49,1.270747811330006,7.227752071010737,0.20970595110320822,0.28,0,2,3.0
4.002230822000001,196,1000.82,-99.8,-0.4,63.3,6.16,-0.08,3.78,-0.14,-1.24,0.24,-144.1,-13.8,-30.0,-0.6,0.34,3.4,3.49,1.270747811330006,7.227752071010737,0.20551183208114399,0.28,0,2,3.0
4.012420312999893,197,1000.83,-99.2,-0.7,63.4,5.5,-0.69,2.65,-0.36,-1.13,0.38,-144.3,-11.0,7.0,-0.59,0.26,3.42,3.49,1.245351356043747,6.143988932281697,0.17651306925898735,0.28,0,2,3.0
4.022789175000071,198,1000.84,-98.5,-1.0,62.9,1.86,-3.67,0.2,-0.58,-0.89,0.38,-144.3,-6.9,43.0,-0.59,0.08,3.37,3.49,1.1282287002199511,4.1192839183528,0.058202605166487675,0.28,0,2,3.0
4.032664359000137,199,1000.85,-98.4,-1.1,62.5,-0.06,-5.04,-0.19,-0.45,-0.84,0.28,-144.4,-0.7,43.0,-0.59,-0.02,3.43,3.49,0.9932270636667125,5.043936954403772,0.07526305075901585,0.28,0,2,3.0
4.042161779000253,200,1000.86,-98.4,-1.1,62.5,-0.06,-5.04,-0.19,-0.45,-0.84,0.28,-144.4,0.6,13.0,-0.59,0.0,3.6,3.49,0.9932270636667125,5.043936954403772,0.07375778974383562,0.28,0,2,3.0
4.052707273000124,201,1000.87,-98.5,-1.2,61.4,-0.07,-5.8,-0.56,-0.11,-1.08,0.0,-144.3,1.5,23.0,-0.59,-0.09,3.48,3.49,1.0855873986004074,5.827392212645378,0.01823049428606205,0.28,0,2,3.0
4.0622696559998985,202,1000.88,-98.4,-1.2,60.8,0.15,-5.65,-0.82,-0.04,-1.16,0.0,-144.3,6.5,45.0,-0.59,-0.25,3.35,3.49,1.1606894502837526,5.711164504722308,0.09146589505001912,0.28,0,2,3.0
4.072771664999891,203,1000.89,-98.4,-1.2,60.8,0.15,-5.65,-0.82,-0.04,-1.16,0.0,-144.2,18.2,141.0,-0.6,-0.8,3.48,3.49,1.1606894502837526,5.711164504722308,0.08963657714901885,0.28,0,2,3.0
4.082197893999819,204,1000.9,-98.3,-1.1,59.7,0.88,-5.54,-1.5,0.08,-1.09,-0.02,-143.8,42.6,233.0,-0.61,-1.58,3.52,3.49,1.0931148155614763,5.80654802787336,0.021620703578207667,0.28,0,2,3.0
4.092861624999841,205,1000.91,-98.2,-1.0,59.1,0.87,-5.45,-1.8,0.1,-0.99,-0.05,-143.1,77.0,337.0,-0.64,-2.68,3.27,3.49,0.9962931295557548,5.805118431177783,0.07369696277896354,0.28,0,2,0.0
4.10226682099983,206,1000.92,-98.2,-1.0,59.1,0.87,-5.45,-1.8,0.1,-0.99,-0.05,-142.0,128.8,453.0,-0.67,-4.1,3.33,3.49,0.9962931295557548,5.805118431177783,0.07222302352338417,0.28,0,2,0.0
4.112615727000048,207,1000.93,-98.1,-0.8,58.0,0.33,-4.98,-2.01,0.14,-0.9,-0.06,-140.4,172.3,263.0,-0.72,-4.37,0.42,0.0,0.9127978965795221,5.380464663948644,0.1526038913696245,0.28,0,2,0.0
4.1222421190000205,208,1000.94,-98.1,-0.8,58.0,0.33,-4.98,-2.01,0.14,-0.9,-0.06,-139.0,105.5,-491.0,-0.75,-1.84,0.14,0.0,0.9127978965795221,5.380464663948644,0.1495518135422319,0.28,0,2,0.0
4.132867324000017,209,1000.95,-98.0,-0.5,57.0,0.31,-5.0,-2.39,0.01,-0.86,-0.06,-138.5,39.5,-486.0,-0.76,-0.61,0.07,0.0,0.8621484790916237,5.550513489759303,0.19619720640952776,0.28,0,2,0.0
4.142221613999936,210,1000.96,-98.0,-0.5,57.0,0.31,-5.0,-2.39,0.01,-0.86,-0.06,-138.3,12.0,-295.0,-0.76,-0.13,0.08,0.0,0.8621484790916237,5.550513489759303,0.19227326228133712,0.28,0,2,0.0
4.1528695060001155,211,1000.97,-97.9,-0.3,56.4,0.35,-4.91,-2.41,0.01,-0.8,-0.13,-138.3,2.7,-121.0,-0.76,-0.09,0.06,0.0,0.8105553651663778,5.4807572469504615,0.2389890486824514,0.28,0,2,0.0
4.162305199999992,212,1000.98,-97.9,0.0,55.4,0.5,-4.76,-2.08,0.09,-0.74,-0.16,-138.2,9.2,31.0,-0.76,-0.41,0.0,0.0,0.7624303246854757,5.218620507375488,0.2813718073800865,0.28,0,2,0.0
4.172735427000134,213,1000.99,-97.9,0.0,55.4,0.5,-4.76,-2.08,0.09,-0.74,-0.16,-138.0,27.2,158.0,-0.77,-1.05,-0.13,0.0,0.7624303246854757,5.218620507375488,0.27574437123248485,0.28,0,2,0.0
4.182278122999833,214,1001.0,-97.8,0.1,54.9,0.36,-4.48,-1.81,0.15,-0.74,-0.22,-137.6,47.3,272.0,-0.78,-1.73,0.02,0.0,0.7864477096412704,4.845214133554884,0.2466924465511563,0.28,0,2,0.0
4.192841501000203,215,1001.01,-97.8,0.3,54.1,-0.08,-3.31,-1.34,0.27,-0.83,-0.32,-136.8,76.6,249.0,-0.81,-2.37,0.01,0.0,0.9296235797353679,3.571848261054772,0.10144624492791754,0.28,0,2,0.0
4.202123184999891,216,1001.02,-97.8,0.3,54.1,-0.08,-3.31,-1.34,0.27,-0.83,-0.32,-135.9,100.9,247.0,-0.84,-3.04,-0.48,0.0,0.9296235797353679,3.571848261054772,0.09941732002935921,0.28,0,2,0.0
4.2126541719999295,217,1001.03,-97.8,0.4,53.6,0.04,-1.61,-1.14,0.33,-0.87,-0.34,-134.9,124.5,265.0,-0.87,-3.79,-0.19,0.0,0.9906563480844405,1.9731446981911893,0.037616860646681016,0.28,0,2,0.0
4.222275125000124,218,1001.04,-97.8,0.4,53.6,0.04,-1.61,-1.14,0.33,-0.87,-0.34,-133.3,152.7,245.0,-0.91,-4.43,0.0,0.0,0.9906563480844405,1.9731446981911893,0.036864523433747354,0.28,0,2,0.0
4.23270714399996,219,1001.05,-97.8,0.5,53.5,0.06,-0.81,-1.13,0.33,-0.86,-0.32,-131.6,176.2,241.0,-0.96,-5.08,-0.06,0.0,0.9751410154434075,1.3916177636118332,0.05133225895328475,0.28,0,2,0.0
4.242217819999951,220,1001.06,-97.9,0.7,53.4,-0.29,0.1,-0.9,0.23,-0.78,-0.24,-129.7,199.5,237.0,-1.02,-5.72,-0.01,0.0,0.8478797084492588,0.9508417323613851,0.17502169462848471,0.28,0,2,0.0
4.252712428999985,221,1001.07,-97.9,0.7,53.4,-0.29,0.1,-0.9,0.23,-0.78,-0.24,-127.5,225.1,262.0,-1.08,-6.48,-0.06,0.0,0.8478797084492588,0.9508417323613851,0.171521260735915,0.28,0,2,0.0
4.262281233000067,222,1001.08,-97.9,0.8,53.4,-0.51,0.29,-0.7,0.18,-0.74,-0.22,-125.0,253.3,266.0,-1.15,-7.2,-0.04,0.0,0.7927168473042565,0.9133454987024351,0.22215043944329893,0.28,0,2,0.0
4.272506573000101,223,1001.09,-97.9,0.9,53.4,-0.52,0.48,-0.44,0.13,-0.72,-0.23,-122.3,276.8,230.0,-1.23,-7.76,-0.24,0.0,0.7669419795525605,0.8333066662399864,0.24296680105109503,0.28,0,2,0.0
4.2825278840000465,224,1001.1,-98.0,0.9,53.5,-0.5,0.58,-0.13,0.12,-0.71,-0.23,-119.4,298.0,224.0,-1.31,-8.37,-0.21,0.0,0.7559100475585703,0.7767238891652555,0.24891875838418365,0.28,0,2,0.0
4.292674657000134,225,1001.11,-98.1,0.9,53.6,-0.45,0.78,0.28,0.12,-0.72,-0.21,-116.3,322.3,244.0,-1.4,-9.08,-0.02,0.0,0.7595393340703297,0.9430270409696638,0.24038368243497577,0.28,0,2,0.0
4.302316955000151,226,1001.12,-98.1,0.9,53.6,-0.45,0.78,0.28,0.12,-0.72,-0.21,-112.9,344.9,225.0,-1.49,-9.65,-0.05,0.0,0.7595393340703297,0.9430270409696638,0.23557600878627627,0.28,0,2,0.0
4.310229748999973,227,1001.13,-98.1,0.9,53.7,-0.56,0.89,0.52,0.13,-0.73,-0.2,-109.3,371.9,278.0,-1.59,-10.5,-0.12,0.0,0.7679843748410511,1.1730728877610292,0.2225883486552438,0.28,0,2,0.0
4.3229637620001995,228,1001.14,-98.2,0.8,53.8,-0.58,1.07,0.79,0.15,-0.76,-0.21,-105.4,397.9,232.0,-1.7,-11.02,-0.07,0.0,0.8026207074328446,1.4509996554100213,0.1841929757421812,0.28,0,2,0.0
4.332570806000149,229,1001.15,-98.2,0.8,53.9,-0.54,1.34,1.02,0.18,-0.79,-0.22,-101.2,418.6,242.0,-1.82,-11.73,0.0,0.0,0.8395832299420946,1.7685021911210628,0.14428584416827261,0.28,0,2,0.0
4.342270810000173,230,1001.16,-98.3,0.7,54.1,-0.66,1.65,1.31,0.19,-0.81,-0.24,-96.9,446.2,240.0,-1.94,-12.36,-0.19,0.0,0.8659099260315707,2.207759044823506,0.1155999651172206,0.28,0,2,0.0
4.3526445510001395,231,1001.17,-98.4,0.4,54.5,-0.54,2.38,1.64,0.16,-0.83,-0.34,-92.3,465.2,233.0,-2.07,-13.01,-0.01,0.0,0.9110982383914481,2.9403401163810963,0.06900341970219637,0.28,0,2,0.0
4.362286476000008,232,1001.18,-98.4,0.4,54.5,-0.54,2.38,1.64,0.16,-0.83,-0.34,-87.4,496.4,269.0,-2.2,-13.77,-0.14,0.0,0.9110982383914481,2.9403401163810963,0.06762335130815245,0.28,0,2,0.0
4.372639447999973,233,1001.19,-98.5,0.2,55.1,-0.49,2.81,1.63,0.08,-0.82,-0.26,-82.3,515.0,205.0,-2.34,-14.23,-0.15,0.0,0.8639444426582069,3.285285375732221,0.11248160410056574,0.28,0,2,0.0
4.382278972000222,234,1001.2,-98.5,0.2,55.1,-0.49,2.81,1.63,0.08,-0.82,-0.26,-77.0,535.6,207.0,-2.49,-14.81,-0.07,0.0,0.8639444426582069,3.285285375732221,0.11023197201855439,0.28,0,2,0.0
4.392506619999949,235,1001.21,-98.6,0.1,55.4,-0.85,2.8,1.47,0.05,-0.84,-0.25,-71.5,562.0,265.0,-2.64,-15.62,-0.24,0.0,0.8778382538941897,3.2746602877245143,0.09441139756692019,0.28,0,2,0.0
4.402174425999874,236,1001.22,-99.0,0.0,56.0,-2.53,2.26,0.91,-0.01,-0.9,-0.22,-65.7,581.1,191.0,-2.8,-16.02,-0.02,0.0,0.9265527507918802,3.5123496409099135,0.04478296265584514,0.28,0,2,0.0
4.412609970000176,237,1001.23,-99.3,0.0,56.2,-3.08,1.8,0.65,-0.03,-0.93,-0.24,-59.7,601.6,146.0,-2.97,-16.32,0.03,0.0,0.9609370426828181,3.6261411996776958,0.01019069734960909,0.28,0,2,0.0
4.422216838000168,238,1001.24,-99.3,0.0,56.2,-3.08,1.8,0.65,-0.03,-0.93,-0.24,-53.9,573.0,-283.0,-3.12,-14.79,0.1,0.0,0.9609370426828181,3.6261411996776958,0.009986883402616886,0.28,0,2,0.0
4.4327538470001855,239,1001.25,-99.9,-0.2,56.5,-1.71,1.17,1.15,0.23,-0.88,-0.43,-48.8,470.6,-1007.0,-3.24,-10.82,0.58,0.0,1.006081507632458,2.369704622943543,0.03445442991608261,0.28,0,2,0.0
4.442249613000058,240,1001.26,-99.9,-0.2,56.5,-1.71,1.17,1.15,0.23,-0.88,-0.43,-45.2,302.8,-1487.0,-3.32,-6.06,0.75,0.0,1.006081507632458,2.369704622943543,0.03376534131776099,0.28,0,2,0.0
4.452882979000151,241,1001.27,-100.1,-0.3,56.6,-1.58,1.5,1.33,0.2,-1.07,-0.5,-43.4,121.8,-1719.0,-3.34,-1.03,0.74,0.0,1.1978731151503486,2.552508570014996,0.2210458098589384,0.28,0,2,0.0
4.462048076999963,242,1001.28,-100.5,-0.4,57.1,-1.91,3.0,0.9,0.16,-1.23,-0.51,-43.4,-42.3,-1480.0,-3.33,2.54,0.38,0.0,1.341118935814419,3.668528315278485,0.3570057979125487,0.28,0,3,0.0
4.472554166999998,243,1001.29,-100.5,-0.4,57.1,-1.91,3.0,0.9,0.16,-1.23,-0.51,-44.6,-145.4,-1129.0,-3.28,5.06,0.36,0.0,1.341118935814419,3.668528315278485,0.3498656819542978,0.28,0,3,0.0
4.482289740999931,244,1001.3,-100.6,-0.4,57.5,-1.54,3.26,0.46,0.13,-1.33,-0.42,-46.6,-235.0,-966.0,-3.22,7.44,0.28,0.0,1.4007854939283173,3.6346664221080864,0.4013415952668321,0.28,0,3,0.0
4.492734176999875,245,1001.31,-101.0,-0.3,58.1,-1.52,2.93,-0.62,-0.03,-1.37,-0.27,-49.6,-320.7,-893.0,-3.13,9.76,0.29,0.0,1.3966746220934925,3.3585264626023124,0.389286108963367,0.28,0,3,0.0
4.50227589699989,246,1001.32,-101.0,-0.3,58.1,-1.52,2.93,-0.62,-0.03,-1.37,-0.27,-53.4,-398.0,-751.0,-3.02,11.55,0.4,0.0,1.3966746220934925,3.3585264626023124,0.3815003867840996,0.28,0,3,0.0
4.5102274320001925,247,1001.33,-101.1,-0.1,58.3,-1.43,2.27,-1.28,-0.05,-1.29,-0.22,-57.7,-449.3,-568.0,-2.89,12.79,0.0,0.0,1.3095800853708794,2.9725746416196177,0.28851773306025685,0.28,0,3,0.0
4.522746581999854,248,1001.34,-101.3,0.0,58.5,-2.03,1.78,-1.64,-0.1,-1.22,-0.16,-62.5,-486.1,-350.0,-2.76,13.37,0.04,0.0,1.2345039489608771,3.1589396955307647,0.20917276471724944,0.28,0,3,0.0
4.532770047000213,249,1001.35,-101.5,0.1,58.6,-3.37,0.99,-1.98,-0.15,-1.25,-0.13,-67.4,-493.0,-137.0,-2.62,13.42,-0.38,0.0,1.2656618821786487,4.032046626714528,0.23552408397632063,0.28,0,3,0.0
4.542264311000054,250,1001.36,-101.9,0.4,58.6,-4.65,0.4,-2.42,-0.15,-1.35,-0.1,-72.3,-482.0,116.0,-2.49,12.68,-0.17,0.0,1.3619838471876236,5.25727115526677,0.32520912800558954,0.28,0,3,0.0
4.5527294779999465,251,1001.37,-103.1,1.0,58.5,-6.36,-0.58,-4.37,-0.21,-1.85,0.07,-76.8,-442.4,308.0,-2.38,11.55,-0.12,0.0,1.8631961786135136,7.738404228263086,0.80989303024285,0.28,0,3,0.0
4.56223350800019,252,1001.38,-103.1,1.0,58.5,-6.36,-0.58,-4.37,-0.21,-1.85,0.07,-81.0,-399.5,397.0,-2.27,10.32,-0.1,0.0,1.8631961786135136,7.738404228263086,0.793695169637993,0.28,0,3,0.0
4.572817327999928,253,1001.39,-103.7,1.4,58.2,-5.2,-1.48,-5.27,-0.23,-1.79,0.03,-84.7,-354.6,424.0,-2.17,9.11,-0.09,0.0,1.80496537362909,7.550052979946564,0.720755077360498,0.28,0,3,0.0
4.58229528999982,254,1001.4,-104.1,2.3,57.5,0.95,-3.17,-3.76,0.19,-1.09,-0.02,-87.9,-310.9,445.0,-2.09,7.87,-0.02,0.0,1.1066164647247936,5.008892093068087,0.02195804508707755,0.28,0,3,0.0
4.592358775999855,255,1001.41,-104.1,2.3,57.5,0.95,-3.17,-3.76,0.19,-1.09,-0.02,-90.7,-262.1,481.0,-2.02,6.5,-0.02,0.0,1.1066164647247936,5.008892093068087,0.021518884185335985,0.28,0,3,0.0
4.602661063000141,256,1001.42,-103.7,2.5,56.8,2.86,-2.28,-0.7,0.58,-0.76,-0.27,-92.9,-212.1,489.0,-1.97,5.17,-0.13,0.0,0.9934284070832683,3.7239763694201926,0.08983578998706554,0.28,0,3,0.0
4.612447398999848,257,1001.43,-103.4,2.5,56.7,1.78,0.36,0.26,0.62,-0.75,-0.39,-94.7,-164.8,466.0,-1.92,3.95,-0.19,0.0,1.0483320084782302,1.8345571672749803,0.03423354482026153,0.28,0,3,0.0
4.622860237000168,258,1001.44,-103.4,2.5,56.7,1.78,0.36,0.26,0.62,-0.75,-0.39,-96.1,-122.3,438.0,-1.89,2.8,-0.18,0.0,1.0483320084782302,1.8345571672749803,0.033548873923856304,0.28,0,3,0.0
4.6327518809998764,259,1001.45,-103.4,2.5,57.3,-0.57,4.85,0.37,0.48,-0.98,-0.15,-97.0,-80.5,421.0,-1.87,1.67,0.0,0.0,1.1014989786649827,4.897376848885534,0.0192257343376383,0.28,0,3,0.0
4.641931384000145,260,1001.46,-103.4,2.5,57.3,-0.57,4.85,0.37,0.48,-0.98,-0.15,-97.5,-39.4,406.0,-1.86,0.6,-0.04,0.0,1.1014989786649827,4.897376848885534,0.018841219650885588,0.28,0,3,0.0
4.6526719839998805,261,1001.47,-103.3,2.8,58.5,0.98,6.32,-0.68,0.15,-1.04,0.0,-97.7,-1.6,365.0,-1.86,-0.31,-0.13,0.0,1.0507616285342742,6.4315783443879475,0.03125820787022637,0.28,0,3,0.0
4.662759474000268,262,1001.48,-103.3,2.8,58.5,0.98,6.32,-0.68,0.15,-1.04,0.0,-97.5,20.9,230.0,-1.87,-0.71,-0.28,0.0,1.0507616285342742,6.4315783443879475,0.03063304371282194,0.28,0,3,0.0
4.672733942999912,263,1001.49,-103.1,3.1,59.1,1.58,6.43,-0.92,-0.01,-0.99,0.0,-97.2,32.7,159.0,-1.88,-1.04,-0.06,0.0,0.9900505037623081,6.684885937695571,0.08951728511509238,0.28,0,3,0.0
4.686155837000115,264,1001.5,-102.7,3.5,60.2,2.0,5.19,-0.83,-0.27,-0.93,0.07,-96.8,41.8,100.0,-1.89,-1.22,0.02,0.0,0.9709273917240157,5.623610939600996,0.10646758921031718,0.28,0,3,0.0
4.694216801000039,265,1001.51,-102.7,3.5,60.2,2.0,5.19,-0.83,-0.27,-0.93,0.07,-96.4,47.9,67.0,-1.9,-1.35,0.03,0.0,0.9709273917240157,5.623610939600996,0.10433823742611092,0.28,0,3,0.0
4.702049822999925,266,1001.52,-102.2,3.8,60.9,2.41,2.71,0.17,-0.24,-0.82,0.04,-95.9,48.7,6.0,-1.92,-1.25,-0.05,0.0,0.8553361912137238,3.630578466305335,0.21553084917767462,0.28,0,3,0.0
4.710181230000217,267,1001.53,-101.9,3.8,61.2,2.36,1.86,0.58,-0.14,-0.81,-0.02,-95.4,35.9,-128.0,-1.93,-0.67,0.13,0.0,0.8222530024268686,3.0603267799370704,0.24364175720523917,0.28,0,3,0.0
4.722468167999978,268,1001.54,-101.7,3.7,61.3,2.02,1.36,0.79,-0.06,-0.82,-0.08,-95.3,5.3,-259.0,-1.93,0.22,-0.02,0.0,0.8260750571225353,2.560097654387426,0.23502330845938113,0.28,0,3,0.0
4.732648455999879,269,1001.55,-101.5,3.7,61.5,1.6,1.14,0.91,-0.04,-0.83,-0.1,-95.4,-15.8,-173.0,-1.92,0.52,-0.04,0.0,0.8369587803470372,2.1651096969899704,0.21965679353018153,0.28,0,3,0.0
4.742525932000262,270,1001.56,-101.5,3.7,61.5,1.6,1.14,0.91,-0.04,-0.83,-0.1,-95.6,-22.0,-97.0,-1.91,0.68,-0.02,0.0,0.8369587803470372,2.1651096969899704,0.215263657659578,0.28,0,3,0.0
4.752584673999991,271,1001.57,-101.4,3.6,61.6,1.32,1.02,0.98,-0.02,-0.85,-0.12,-95.9,-30.1,-88.0,-1.91,0.91,0.15,0.0,0.8586617494683223,1.9347351239898447,0.18968947476752696,0.28,0,3,0.0
4.762631433000024,272,1001.58,-101.2,3.5,61.7,1.54,0.89,0.96,-0.02,-0.89,-0.12,-96.3,-40.7,-114.0,-1.89,1.27,0.03,0.0,0.8982761268117949,2.0212125073826352,0.1470735954755733,0.28,0,3,0.0
4.772686207999868,273,1001.59,-101.0,3.4,61.8,2.04,0.78,0.83,-0.01,-0.9,-0.11,-96.8,-55.2,-135.0,-1.88,1.68,0.1,0.0,0.9067524469225324,2.3364288989823763,0.13582532985753903,0.28,0,3,0.0
4.782457770999827,274,1001.6,-100.5,3.3,61.9,2.3,0.38,0.65,-0.03,-0.86,-0.1,-97.4,-68.2,-123.0,-1.86,1.99,0.01,0.0,0.8663140308225418,2.4201033035802415,0.17273847103837914,0.28,0,3,0.0
4.792657499000143,275,1001.61,-100.5,3.3,61.9,2.3,0.38,0.65,-0.03,-0.86,-0.1,-98.2,-80.1,-114.0,-1.84,2.28,0.17,0.0,0.8663140308225418,2.4201033035802415,0.16928370161761153,0.28,0,3,0.0
4.802637867000158,276,1001.62,-100.2,3.2,62.0,1.45,-0.01,0.79,-0.07,-0.8,-0.1,-99.0,-88.3,-82.0,-1.81,2.47,0.04,0.0,0.8092589202474076,1.6512722367919834,0.22181203594889065,0.28,0,3,0.0
4.8124138680000215,277,1001.63,-100.0,3.1,62.0,0.93,-0.28,0.88,-0.07,-0.81,-0.11,-100.0,-93.5,-63.0,-1.79,2.61,0.05,0.0,0.8204267182387469,1.3106105447462264,0.20643135319840045,0.28,0,3,0.0
4.822606987000199,278,1001.64,-100.0,3.1,62.0,0.93,-0.28,0.88,-0.07,-0.81,-0.11,-100.9,-97.5,-37.0,-1.76,2.66,0.07,0.0,0.8204267182387469,1.3106105447462264,0.20230272613443245,0.28,0,3,0.0
4.830279830000109,279,1001.65,-100.0,3.0,62.0,0.4,-0.49,0.91,-0.05,-0.85,-0.14,-101.9,-99.4,-26.0,-1.73,2.73,-0.02,0.0,0.8629020801921848,1.1082418508610836,0.15663081689737457,0.28,0,3,0.0
4.842579801999818,280,1001.66,-100.0,2.8,61.9,0.15,-0.76,0.94,-0.03,-0.86,-0.17,-102.9,-100.9,-15.0,-1.71,2.74,-0.11,0.0,0.8771544903835355,1.2180722474467596,0.1395308385719034,0.28,0,3,0.0
4.852667726000163,281,1001.67,-100.0,2.7,61.9,0.02,-0.9,0.9,-0.02,-0.88,-0.22,-103.9,-100.4,2.0,-1.68,2.72,0.08,0.0,0.9073036977771004,1.272949331277565,0.10719399855477174,0.28,0,3,0.0
4.8627119120001225,282,1001.68,-99.9,2.5,61.7,0.35,-1.05,0.79,0.0,-0.92,-0.31,-104.9,-100.0,0.0,-1.65,2.73,0.35,0.0,0.9708243919473799,1.359816164045714,0.04279983829680234,0.28,0,3,0.0
4.872526632000245,283,1001.69,-99.9,2.5,61.7,0.35,-1.05,0.79,0.0,-0.92,-0.31,-105.9,-101.1,-1.0,-1.62,2.73,-0.2,0.0,0.9708243919473799,1.359816164045714,0.04194384153086628,0.28,0,3,0.0
4.8826022220000596,284,1001.7,-99.9,2.4,61.6,0.63,-0.94,0.6,-0.01,-0.93,-0.34,-106.9,-100.1,2.0,-1.6,2.73,-0.07,0.0,0.9902524930541706,1.2808200498118383,0.022065425615593992,0.28,0,3,0.0
4.8926855600002455,285,1001.71,-99.8,2.3,61.5,1.07,-0.73,0.3,-0.04,-0.93,-0.31,-107.9,-100.1,-2.0,-1.57,2.73,0.0,0.0,0.9811218069128829,1.3295864018558554,0.03057218952174412,0.28,0,3,0.0
4.902611175999937,286,1001.72,-99.7,2.3,61.5,1.75,-0.69,-0.17,-0.09,-0.92,-0.24,-108.9,-99.8,10.0,-1.54,2.67,0.06,0.0,0.9550392662084632,1.8887826767524103,0.055521635621640364,0.28,0,3,0.0
4.912410408000142,287,1001.73,-99.5,2.3,61.4,2.23,-0.92,-0.6,-0.14,-0.86,-0.2,-109.9,-100.2,-7.0,-1.52,2.74,0.07,0.0,0.8939798655450804,2.485819784296521,0.11424941555932278,0.28,0,3,0.0
4.922552607999933,288,1001.74,-99.2,2.4,61.3,2.21,-1.29,-0.96,-0.16,-0.79,-0.19,-111.0,-103.0,-27.0,-1.49,2.85,0.0,0.0,0.8281304245105358,2.733093485411723,0.17649687946199,0.28,0,3,0.0
4.930247765999866,289,1001.75,-99.1,2.5,61.1,1.83,-1.87,-1.3,-0.17,-0.74,-0.17,-112.0,-106.2,-32.0,-1.46,2.94,0.03,0.0,0.7780745465570764,2.9216091456592888,0.22202170226714024,0.28,0,3,0.0
4.942558370999905,290,1001.76,-98.9,2.6,60.8,1.07,-2.52,-1.43,-0.16,-0.68,-0.16,-113.1,-114.5,-77.0,-1.43,3.24,0.08,0.0,0.7166589146867567,3.0887214183218274,0.2777685874547108,0.28,0,3,0.0
4.950287169000148,291,1001.77,-98.9,2.7,60.5,-0.42,-3.19,-1.3,-0.12,-0.63,-0.18,-114.3,-124.6,-90.0,-1.39,3.5,-0.04,0.0,0.6661080993352355,3.4702305398921265,0.3217530147501073,0.28,0,4,0.0
4.962701515999925,292,1001.78,-99.1,2.7,60.2,-2.03,-3.45,-1.09,-0.07,-0.68,-0.26,-115.7,-135.9,-110.0,-1.36,3.84,0.04,0.0,0.731368580129062,4.148674487110311,0.25136268327715516,0.28,0,4,0.0
4.972710273999837,293,1001.79,-99.3,2.8,59.8,-2.91,-3.34,-0.94,-0.02,-0.75,-0.33,-117.1,-148.7,-127.0,-1.31,4.22,0.03,0.0,0.8196340646898468,4.528498647454805,0.15983525474204296,0.28,0,4,0.0
4.982210604000102,294,1001.8,-99.7,2.8,59.5,-3.13,-3.12,-0.85,0.01,-0.82,-0.36,-118.7,-163.8,-146.0,-1.27,4.65,0.09,0.0,0.8956003573022957,4.500422202416124,0.08219158288700212,0.28,0,4,0.0
4.9926139419999345,295,1001.81,-100.3,2.8,58.9,-3.4,-2.59,-0.13,0.11,-0.92,-0.38,-120.4,-178.4,-142.0,-1.22,5.02,0.02,0.0,1.0014489502715553,4.2760963506450596,0.023183869880612384,0.28,0,4,0.0
5.002528224999878,296,1001.82,-100.3,2.8,58.9,-3.4,-2.59,-0.13,0.11,-0.92,-0.38,-122.3,-192.3,-137.0,-1.17,5.38,0.08,0.0,1.0014489502715553,4.2760963506450596,0.022720192483000168,0.28,0,4,0.0
5.01419863000001,297,1001.83,-100.7,2.8,58.7,-3.4,-1.99,0.04,0.16,-1.05,-0.43,-124.3,-204.3,-116.0,-1.11,5.66,0.04,0.0,1.1458621208504975,3.939758875870451,0.1637906958007035,0.28,0,4,0.0
5.022161595999933,298,1001.84,-101.0,2.8,58.5,-2.54,-1.34,-0.06,0.17,-1.11,-0.45,-126.4,-210.6,-67.0,-1.05,5.76,0.13,0.0,1.2097520407091695,2.872420582017891,0.22312700334618796,0.28,0,4,0.0
5.032602701000087,299,1001.85,-101.2,2.8,58.4,-1.07,-0.64,-0.24,0.15,-1.09,-0.46,-128.5,-212.0,-21.0,-1.0,5.75,-0.1,0.0,1.192560271013587,1.2696850003051938,0.20181652897759328,0.28,0,4,0.0
5.042631455999981,300,1001.86,-101.2,2.8,58.4,-0.72,-0.51,-0.13,0.14,-1.05,-0.4,-130.7,-212.7,-26.0,-0.94,5.83,0.14,0.0,1.1322985472038725,0.8918520056601319,0.13872370906452125,0.28,0,4,0.0
5.05291158,301,1001.87,-101.3,2.8,58.3,-1.28,-0.55,0.04,0.15,-1.07,-0.39,-132.8,-216.4,-22.0,-0.88,5.89,0.2,0.0,1.1486949116279745,1.3937359864766354,0.15201767201885086,0.28,0,4,0.0
5.062277042999995,302,1001.88,-101.5,2.7,58.3,-2.47,-0.65,0.62,0.17,-1.1,-0.44,-135.0,-220.9,-57.0,-0.82,6.12,0.08,0.0,1.1968709203585823,2.628269392585167,0.19618980713446943,0.28,0,4,0.0
5.0727239860002555,303,1001.89,-102.1,2.5,58.2,-1.86,0.01,1.63,0.21,-1.36,-0.42,-137.3,-232.5,-115.0,-0.76,6.52,0.12,0.0,1.438784208976454,2.4731760956308793,0.4293410338372943,0.28,0,4,0.0
5.0822824480001145,304,1001.9,-102.1,2.5,58.2,-1.86,0.01,1.63,0.21,-1.36,-0.42,-139.8,-252.1,-188.0,-0.69,7.15,0.22,0.0,1.438784208976454,2.4731760956308793,0.4207542131605484,0.28,0,4,0.0
5.092925760000071,305,1001.91,-102.1,2.3,58.3,0.05,0.4,2.0,0.12,-1.37,-0.31,-142.5,-280.1,-261.0,-0.61,7.99,0.11,0.0,1.4097517511959332,2.0402205763103165,0.3838873202724271,0.28,0,4,0.0
5.102327074000186,306,1001.92,-102.0,1.8,58.5,0.23,0.54,3.47,0.21,-1.37,-0.13,-145.5,-309.8,-268.0,-0.52,8.72,0.15,0.0,1.3920847675339316,3.519289701061849,0.35889592987821706,0.28,0,4,0.0
5.110305672999857,307,1001.93,-102.0,1.8,58.5,0.23,0.54,3.47,0.21,-1.37,-0.13,-148.7,-333.8,-255.0,-0.43,9.4,0.12,0.0,1.3920847675339316,3.519289701061849,0.3517180112806526,0.28,0,4,0.0
5.1226762430001145,308,1001.94,-102.0,1.5,58.7,-0.16,0.63,4.17,0.19,-1.41,-0.06,-152.3,-362.1,-280.0,-0.33,10.2,0.27,0.0,1.4240084269413575,4.2203554352684565,0.37596883727431685,0.28,0,4,0.0
5.132638364999821,309,1001.95,-102.0,0.5,59.0,1.36,0.65,5.15,0.13,-1.56,0.04,-156.1,-390.4,-283.0,-0.22,10.97,0.38,0.0,1.5659182609574487,5.366060007118818,0.5075210978645999,0.28,0,4,0.0
5.142225082000095,310,1001.96,-102.0,0.5,59.0,1.36,0.65,5.15,0.13,-1.56,0.04,-160.2,-418.2,-262.0,-0.11,11.64,0.08,0.0,1.5659182609574487,5.366060007118818,0.49737067590730777,0.28,0,4,0.0
5.152918397000121,311,1001.97,-101.4,-0.2,59.2,3.04,-0.37,3.56,-0.25,-1.31,0.34,-164.5,-430.9,-97.0,0.0,11.62,-0.11,0.0,1.3762993860348844,4.695966354223591,0.3015967649650486,0.28,0,4,0.0
5.162292194000202,312,1001.98,-101.4,-0.2,59.2,3.04,-0.37,3.56,-0.25,-1.31,0.34,-168.8,-425.3,-11.0,0.11,11.55,0.0,0.0,1.3762993860348844,4.695966354223591,0.2955648296657476,0.28,0,4,0.0
5.172639624000112,313,1001.99,-101.1,-0.5,59.2,2.13,-1.77,2.49,-0.38,-1.23,0.39,-173.0,-417.0,105.0,0.23,11.05,-0.08,0.0,1.3451393979807447,3.7242314643426773,0.25911674477937563,0.28,0,4,0.0
5.182098838000002,314,1002.0,-101.0,-0.8,59.0,1.08,-3.09,1.65,-0.41,-1.11,0.32,-176.2,-395.8,273.0,0.33,10.23,-0.01,0.0,1.225805857385255,3.6656513745854227,0.1369875401002083,0.28,0,4,0.0
5.192529471999933,315,1002.01,-100.9,-1.0,58.6,0.47,-4.08,1.05,-0.35,-1.07,0.25,-180.6,-358.9,321.0,0.43,9.3,-0.06,0.0,1.1532129031536198,4.23908008888721,0.06310669415120151,0.28,0,4,0.0
5.20217942599993,316,1002.02,-100.8,-1.3,57.8,1.04,-4.64,0.19,-0.2,-1.02,0.02,-183.9,-315.3,427.0,0.51,7.96,-0.15,0.0,1.039615313469362,4.7589179442390055,0.049481077622395286,0.28,0,4,0.0
5.212569842999983,317,1002.03,-100.8,-1.3,57.8,1.04,-4.64,0.19,-0.2,-1.02,0.02,-186.8,-266.2,462.0,0.58,6.66,-0.3,0.0,1.039615313469362,4.7589179442390055,0.048491456069947425,0.28,0,4,0.0
5.222239237999929,318,1002.04,-100.6,-1.3,57.3,1.23,-4.33,-0.2,-0.12,-1.01,-0.01,-189.1,-217.8,480.0,0.64,5.32,-0.16,0.0,1.017152889196113,4.505751879542414,0.0695348027363325,0.28,0,4,0.0
5.232852744999946,319,1002.05,-100.5,-1.4,56.9,1.08,-4.0,-0.61,-0.01,-1.0,-0.04,-190.9,-168.9,487.0,0.68,3.99,-0.08,0.0,1.0008496390567367,4.187899234699899,0.08412129181819461,0.28,0,4,0.0
5.242282151999916,320,1002.06,-100.4,-1.4,56.5,0.88,-3.5,-1.04,0.08,-0.99,-0.07,-192.3,-121.2,475.0,0.71,2.72,-0.21,0.0,0.9956907150315303,3.755795521590599,0.08749461152653304,0.28,0,4,0.0
5.252679479000108,321,1002.07,-100.2,-1.2,55.9,0.94,-2.35,-1.81,0.18,-0.94,-0.04,-193.2,-73.2,482.0,0.73,1.39,-0.11,0.0,0.9579144011862437,3.111623370525424,0.12276550686438314,0.28,0,4,0.0
5.262227683000219,322,1002.08,-100.2,-1.2,55.9,0.94,-2.35,-1.81,0.18,-0.94,-0.04,-193.6,-25.3,483.0,0.74,0.07,-0.19,0.0,0.9579144011862437,3.111623370525424,0.12031019672709542,0.28,0,4,0.0
5.2728309889998854,323,1002.09,-100.1,-1.0,55.7,0.87,-2.05,-2.03,0.19,-0.88,0.0,-193.5,18.2,400.0,0.73,-0.85,-0.29,0.0,0.9002777349240622,3.013353613501077,0.17438792572949147,0.28,0,4,0.0
5.282234079999853,324,1002.1,-100.0,-0.9,55.4,0.82,-1.87,-2.02,0.17,-0.79,0.02,-193.1,45.9,315.0,0.72,-1.57,-0.19,0.0,0.8083316151184489,2.8722290994974617,0.26100736462440277,0.28,0,4,0.0
5.292787794000105,325,1002.11,-99.9,-0.7,55.2,0.61,-1.75,-1.86,0.15,-0.76,0.0,-192.5,71.4,262.0,0.7,-2.2,0.08,0.0,0.7746612162745725,2.6256808640807816,0.2887842081989136,0.28,0,4,0.0
5.302237750000131,326,1002.12,-99.8,-0.4,54.9,0.64,-1.39,-1.55,0.12,-0.73,-0.07,-191.6,93.8,241.0,0.67,-2.85,-0.27,0.0,0.7431016081263718,2.1781184540791165,0.31393694002017203,0.28,0,4,0.0
5.31280178399993,327,1002.13,-99.8,-0.4,54.9,0.64,-1.39,-1.55,0.12,-0.73,-0.07,-190.5,118.3,245.0,0.64,-3.51,-0.09,0.0,0.7431016081263718,2.1781184540791165,0.3076582012197685,0.28,0,4,0.0
5.322148926999944,328,1002.14,-99.7,-0.3,54.7,0.58,-1.07,-1.43,0.1,-0.72,-0.1,-189.1,142.7,244.0,0.6,-4.16,-0.04,0.0,0.7337574531137656,1.877817882543459,0.3106623091077272,0.28,0,4,0.0
5.332749388000138,329,1002.15,-99.7,-0.2,54.6,0.24,-0.81,-1.33,0.11,-0.75,-0.13,-187.6,166.4,240.0,0.55,-4.82,-0.21,0.0,0.7690903718029501,1.5756268593801008,0.2698228026101718,0.28,0,4,0.0
5.342278237999835,330,1002.16,-99.7,-0.1,54.5,-0.14,-0.49,-1.25,0.14,-0.8,-0.15,-185.7,190.0,234.0,0.5,-5.45,-0.03,0.0,0.8258934555982388,1.3498888843160388,0.20875932443858536,0.28,0,4,0.0
5.35271059500019,331,1002.17,-99.7,0.1,54.4,-0.33,-0.09,-1.15,0.16,-0.87,-0.18,-183.7,214.7,251.0,0.44,-6.15,-0.08,0.0,0.9027181176868003,1.1997916485790354,0.12929596910302343,0.28,0,4,0.0
5.3622589810001955,332,1002.18,-99.7,0.1,54.4,-0.33,-0.09,-1.15,0.16,-0.87,-0.18,-181.3,241.9,260.0,0.37,-6.88,-0.1,0.0,0.9027181176868003,1.1997916485790354,0.1267100497209629,0.28,0,4,0.0
5.372569644000123,333,1002.19,-99.8,0.2,54.4,-0.19,-0.09,-1.05,0.16,-0.9,-0.19,-178.7,266.6,241.0,0.3,-7.51,0.0,0.0,0.9336487562247379,1.0708407911543154,0.0938638229593648,0.28,0,4,0.0
5.382279737999852,334,1002.2,-99.8,0.3,54.4,0.01,-0.08,-1.02,0.15,-0.91,-0.22,-175.9,289.4,240.0,0.22,-8.17,-0.21,0.0,0.9481561052906847,1.0231813133555558,0.0777693444155495,0.28,0,4,0.0
5.392806607000239,335,1002.21,-99.8,0.4,54.3,0.15,-0.08,-0.98,0.14,-0.89,-0.24,-172.8,315.9,265.0,0.13,-8.94,0.04,0.0,0.9323625904121207,0.9946356116689167,0.09169160210823124,0.28,0,4,0.0
5.402238200999818,336,1002.22,-99.8,0.5,54.3,0.04,-0.06,-0.89,0.11,-0.85,-0.24,-169.5,340.6,228.0,0.04,-9.48,0.0,0.0,0.8900561780022651,0.8929165694509202,0.13131805422772502,0.28,0,4,0.0
5.4126771490000465,337,1002.23,-99.8,0.6,54.3,-0.14,-0.02,-0.76,0.09,-0.82,-0.26,-165.9,360.7,233.0,-0.05,-10.14,-0.21,0.0,0.8649277426467484,0.7730459236035075,0.1533175597915769,0.28,0,4,0.0
5.422252947999823,338,1002.24,-99.8,0.6,54.3,-0.37,0.04,-0.57,0.07,-0.79,-0.26,-162.1,390.8,279.0,-0.16,-10.97,-0.17,0.0,0.8346256645946134,0.6807348970047002,0.17994724508683768,0.28,0,4,0.0
5.432633438000266,339,1002.25,-99.9,0.7,54.3,-0.58,0.15,-0.34,0.06,-0.78,-0.28,-158.1,414.5,227.0,-0.27,-11.5,-0.04,0.0,0.8309031231136396,0.688839603971781,0.17999639083645536,0.28,0,4,0.0
5.442271609000272,340,1002.26,-99.9,0.7,54.3,-0.64,0.28,-0.12,0.07,-0.78,-0.28,-153.8,435.3,229.0,-0.39,-12.14,-0.07,0.0,0.83168503653727,0.7088018058667741,0.1756301878645684,0.28,0,4,0.0
5.452783309000097,341,1002.27,-100.0,0.7,54.4,-0.27,0.62,0.31,0.1,-0.79,-0.29,-149.2,459.4,237.0,-0.52,-12.79,-0.08,0.0,0.8474668135095321,0.7439085965358916,0.15665144267446018,0.28,0,4,0.0
5.462286500000118,342,1002.28,-100.0,0.7,54.4,-0.27,0.62,0.31,0.1,-0.79,-0.29,-144.4,491.5,308.0,-0.65,-13.75,0.09,0.0,0.8474668135095321,0.7439085965358916,0.15351841382097098,0.28,0,4,0.0
5.472637304000273,343,1002.29,-100.0,0.6,54.6,0.14,1.23,0.83,0.2,-0.8,-0.3,-139.3,518.2,265.0,-0.79,-14.41,-0.16,0.0,0.8774964387392122,1.4904361777681057,0.12101901281946503,0.28,0,4,0.0
5.4821894800002156,344,1002.3,-100.0,0.6,54.6,0.14,1.23,0.83,0.2,-0.8,-0.3,-134.0,547.2,262.0,-0.94,-15.1,-0.08,0.0,0.8774964387392122,1.4904361777681057,0.11859863256307568,0.28,0,4,0.0
5.492746603999876,345,1002.31,-100.0,0.5,54.8,0.34,1.67,1.0,0.24,-0.81,-0.31,-128.4,565.8,254.0,-1.1,-15.8,-0.09,0.0,0.8998888820293315,1.9759807691371898,0.09428206548749729,0.28,0,4,0.0
5.502282264999849,346,1002.32,-100.0,0.5,55.0,0.27,2.09,1.2,0.26,-0.79,-0.31,-122.5,595.5,230.0,-1.26,-16.35,-0.01,0.0,0.8875809822207774,2.425077318355025,0.10445816599013036,0.28,0,4,0.0
5.512566982999942,347,1002.33,-99.9,0.4,55.2,0.07,2.44,1.32,0.28,-0.79,-0.29,-116.4,612.0,211.0,-1.43,-16.92,-0.11,0.0,0.886904729945669,2.7750495491071865,0.10303172989993392,0.28,0,4,0.0
5.521630748999996,348,1002.34,-100.0,0.2,55.8,-0.66,2.98,1.41,0.21,-0.75,-0.26,-110.1,638.1,294.0,-1.6,-17.85,0.06,0.0,0.8210968274204937,3.3621570457074132,0.16546283977660703,0.28,0,4,0.0
5.532448058000227,349,1002.35,-100.0,0.2,55.8,-0.66,2.98,1.41,0.21,-0.75,-0.26,-103.5,669.5,253.0,-1.79,-18.45,-0.06,0.0,0.8210968274204937,3.3621570457074132,0.16215358298107485,0.28,0,4,0.0
5.541927795999982,350,1002.36,-100.1,0.1,56.1,-1.16,3.22,1.48,0.17,-0.74,-0.27,-96.6,695.9,245.0,-1.98,-19.11,-0.39,0.0,0.8058535847162311,3.728860415730254,0.17384888917163066,0.28,0,4,0.0
5.552674438999929,351,1002.37,-100.2,0.0,56.5,-1.82,3.36,1.5,0.12,-0.76,-0.26,-89.5,719.2,307.0,-2.17,-20.05,0.17,0.0,0.8121576201698781,4.105118755894888,0.16419395664362402,0.28,0,4,0.0
5.562282493000112,352,1002.38,-100.5,0.0,56.9,-2.62,3.46,1.46,0.08,-0.82,-0.27,-82.2,741.0,173.0,-2.37,-20.25,0.12,0.0,0.8670063436907482,4.579039200531046,0.10715832846029882,0.28,0,4,0.0
5.572610066999914,353,1002.39,-100.8,0.0,57.2,-3.34,3.41,1.25,0.03,-0.92,-0.28,-74.6,757.1,225.0,-2.58,-20.99,-0.21,0.0,0.9621330469326995,4.934186863101154,0.011790992713980653,0.28,0,4,0.0
5.582248291000269,354,1002.4,-101.2,-0.1,57.6,-3.78,3.21,0.92,-0.01,-1.0,-0.28,-66.9,776.8,90.0,-2.79,-20.99,0.16,0.0,1.0385085459446157,5.04369903939559,0.0632928161719768,0.28,0,4,0.0
5.592878614000256,355,1002.41,-101.6,-0.1,57.9,-3.58,2.79,0.7,-0.02,-1.04,-0.26,-59.2,771.7,-45.0,-3.0,-20.66,0.46,0.0,1.072194012294417,4.592439438903903,0.09503871687134247,0.28,0,4,0.0
5.602277180999863,356,1002.42,-101.9,-0.1,58.1,-2.59,2.32,0.63,-0.03,-1.09,-0.31,-51.7,738.2,-357.0,-3.2,-19.15,0.26,0.0,1.1336225121265016,3.5337515475765975,0.15333787236935859,0.28,0,4,0.0
5.612642993999998,357,1002.43,-102.1,-0.2,58.5,1.54,1.53,0.98,0.14,-0.95,-0.53,-45.1,604.8,-1314.0,-3.36,-13.93,1.1,0.0,1.096813566655701,2.381785044877056,0.11419834836058695,0.28,0,4,0.0
5.637876222000159,359,1002.45,-101.9,-0.3,58.7,2.9,2.1,1.25,0.14,-1.07,-0.58,-38.6,108.0,-2466.0,-3.47,0.19,0.52,0.0,1.2251122397560152,3.7924266637602897,0.23764708103168308,0.28,0,4,0.0
5.646293243999935,360,1002.46,-101.6,-0.3,59.0,2.38,2.61,0.64,0.13,-1.35,-0.58,-39.0,-86.7,-1765.0,-3.44,3.7,0.3,0.0,1.4750593208410299,3.5897214376605877,0.4778422788743637,0.28,0,5,0.0
5.654266376000123,361,1002.47,-101.5,-0.3,59.3,0.03,3.96,-0.78,-0.18,-1.5,-0.55,-40.6,-189.1,-1235.0,-3.39,6.27,0.27,0.0,1.607762420259909,4.036198706704119,0.5983344707273779,0.28,0,5,0.0
5.662294032999853,362,1002.48,-101.6,0.0,59.6,-1.04,3.69,-2.04,-0.28,-1.32,-0.23,-43.2,-282.9,-1037.0,-3.3,8.81,0.43,0.0,1.3688316185711082,4.342729556396529,0.35221559565780547,0.28,0,5,0.0
5.672825728000134,363,1002.49,-101.7,0.2,59.9,-1.26,2.4,-2.4,-0.14,-1.19,-0.02,-46.6,-371.6,-917.0,-3.2,11.12,0.42,0.0,1.1983738982471206,3.6204419619709416,0.1781227178271414,0.28,0,5,0.0
5.686329128000125,364,1002.5,-102.0,0.7,60.0,-2.38,-0.27,-2.23,-0.02,-1.03,-0.1,-50.9,-449.2,-775.0,-3.08,12.97,0.34,0.0,1.0350362312499017,3.2726441908646287,0.01448934981332406,0.28,0,5,0.0
5.694317127999966,365,1002.51,-102.0,0.7,60.0,-2.38,-0.27,-2.23,-0.02,-1.03,-0.1,-55.7,-494.0,-470.0,-2.94,13.74,0.14,0.0,1.0350362312499017,3.2726441908646287,0.014199562817057476,0.28,0,5,0.0
5.70222588300021,366,1002.52,-102.3,0.8,59.9,-3.93,-0.81,-2.11,0.0,-1.08,-0.16,-60.9,-521.8,-328.0,-2.8,14.42,0.07,0.0,1.0917875251164946,4.533552690771334,0.06953183954997733,0.28,0,5,0.0
5.71268208399988,367,1002.53,-103.3,1.2,59.5,-5.82,-1.73,-2.62,0.03,-1.48,-0.05,-66.2,-528.4,-108.0,-2.65,14.35,0.11,0.0,1.4811482032531382,6.612843563853602,0.44971466733288845,0.28,0,5,0.0
5.722077177999836,368,1002.54,-103.3,1.2,59.5,-5.82,-1.73,-2.62,0.03,-1.48,-0.05,-71.4,-524.2,51.0,-2.51,13.94,0.12,0.0,1.4811482032531382,6.612843563853602,0.44072037398623065,0.28,0,5,0.0
5.730326774999867,369,1002.55,-103.9,1.5,59.3,-5.34,-2.0,-3.46,0.0,-1.74,0.01,-76.5,-491.3,266.0,-2.38,12.88,-0.04,0.0,1.7400287353949073,6.669872562500726,0.6856088880054398,0.28,0,5,0.0
5.742544845999873,370,1002.56,-104.4,1.8,59.0,-4.4,-1.99,-4.42,-0.12,-1.8,0.02,-81.1,-451.4,366.0,-2.26,11.73,-0.54,0.0,1.8041064270158789,6.546487607870346,0.7346928480338832,0.28,0,5,0.0
5.752733786000135,371,1002.57,-104.7,2.2,58.7,-1.8,-2.08,-4.73,-0.11,-1.55,0.03,-85.3,-408.9,390.0,-2.15,10.65,-0.18,0.0,1.5541878908291624,5.471681642785882,0.4750788256102234,0.28,0,5,0.0
5.762225757000124,372,1002.58,-104.7,2.6,58.3,0.89,-1.87,-4.1,0.07,-1.24,-0.03,-89.1,-366.4,437.0,-2.05,9.36,-0.16,0.0,1.2423365083583433,4.5933647797665715,0.15996289427661625,0.28,0,5,0.0
5.772612877000029,373,1002.59,-104.5,2.9,58.1,2.54,-1.22,-2.97,0.25,-1.01,-0.04,-92.4,-314.2,501.0,-1.97,7.88,-0.28,0.0,1.0412492496996097,4.094007816309099,0.04030187709447497,0.28,0,5,0.0
5.78265424600022,374,1002.6,-104.1,3.2,58.0,1.17,0.77,-0.66,0.52,-0.81,-0.07,-95.2,-265.8,472.0,-1.9,6.67,-0.44,0.0,0.9650906693155831,1.5483539646992865,0.11413124832893151,0.28,0,5,0.0
5.792619197000022,375,1002.61,-104.1,3.2,58.0,1.17,0.77,-0.66,0.52,-0.81,-0.07,-97.6,-221.3,454.0,-1.84,5.46,-0.22,0.0,0.9650906693155831,1.5483539646992865,0.1118486233623529,0.28,0,5,0.0
5.802577229000235,376,1002.62,-104.0,3.3,58.4,0.45,3.86,0.35,0.62,-0.9,-0.18,-99.5,-174.9,461.0,-1.79,4.19,-0.29,0.0,1.107610039680031,3.9018713459057053,0.030057332062053188,0.28,0,5,0.0
5.810238318999836,377,1002.63,-104.0,3.3,58.4,0.45,3.86,0.35,0.62,-0.9,-0.18,-100.9,-128.4,465.0,-1.76,2.92,-0.11,0.0,1.107610039680031,3.9018713459057053,0.029456185420812186,0.28,0,5,0.0
5.822549307999907,378,1002.64,-103.9,3.4,58.9,0.55,5.21,0.26,0.49,-0.95,-0.16,-101.9,-82.7,456.0,-1.74,1.7,-0.16,0.0,1.0808330120791092,5.245397982994236,0.002625574663492669,0.28,0,5,0.0
5.830284197999845,379,1002.65,-103.8,3.5,59.4,0.96,5.87,0.01,0.34,-0.96,-0.06,-102.4,-37.9,452.0,-1.73,0.48,-0.16,0.0,1.020196059588548,5.947991257559144,0.05685115027052712,0.28,0,5,0.0
5.84266201399987,380,1002.66,-103.5,3.8,60.6,0.97,5.68,-0.31,-0.01,-0.98,0.0,-102.5,5.3,409.0,-1.73,-0.55,-0.24,0.0,0.9800510190801293,5.770563230742733,0.095056266963367,0.28,0,5,0.0
5.852649693999865,381,1002.67,-103.4,4.0,61.1,0.72,5.11,-0.36,-0.18,-0.98,0.0,-102.2,33.5,298.0,-1.74,-1.19,-0.15,0.0,0.996393496566492,5.173016528100408,0.07713951368746419,0.28,0,5,0.0
5.862632835000113,382,1002.68,-103.4,4.0,61.1,0.72,5.11,-0.36,-0.18,-0.98,0.0,-101.7,55.2,240.0,-1.76,-1.75,0.02,0.0,0.996393496566492,5.173016528100408,0.07559672341371493,0.28,0,5,0.0
5.872578221999902,383,1002.69,-103.2,4.2,61.9,1.17,3.06,0.37,-0.3,-0.92,0.04,-101.0,74.8,205.0,-1.78,-2.25,0.17,0.0,0.9685040010242602,3.2968773104257307,0.10141649457682778,0.28,0,5,0.0
5.882482794000225,384,1002.7,-103.2,4.2,61.9,1.17,3.06,0.37,-0.3,-0.92,0.04,-100.2,89.1,136.0,-1.81,-2.51,-0.01,0.0,0.9685040010242602,3.2968773104257307,0.09938816468529132,0.28,0,5,0.0
5.8927157359999,385,1002.71,-103.0,4.2,62.1,1.52,1.92,0.76,-0.25,-0.9,-0.02,-99.2,93.4,40.0,-1.83,-2.47,0.0,0.0,0.9342911751697112,2.5640592816859753,0.13092897072904353,0.28,0,5,0.0
5.90214243399987,386,1002.72,-102.8,4.1,62.3,1.32,0.99,1.04,-0.19,-0.87,-0.05,-98.4,77.2,-158.0,-1.85,-1.7,0.04,0.0,0.8919080670113932,1.9504102132628407,0.1698458373096141,0.28,0,5,0.0
5.9125705129999915,387,1002.73,-102.7,4.0,62.4,0.99,0.34,1.31,-0.11,-0.83,-0.12,-97.9,38.1,-366.0,-1.86,-0.37,0.2,0.0,0.84581321815162,1.6768422704595682,0.2116218724459995,0.28,0,5,0.0
5.922725598999932,388,1002.74,-102.6,3.9,62.4,0.84,0.28,1.41,-0.05,-0.88,-0.18,-97.8,-10.4,-387.0,-1.85,0.65,0.07,0.0,0.8996110270555825,1.6649624620393095,0.15466758227119637,0.28,0,5,0.0
5.932491400999879,389,1002.75,-102.5,3.7,62.5,1.09,0.3,1.34,-0.01,-0.92,-0.21,-98.1,-32.8,-225.0,-1.84,1.01,0.12,0.0,0.9437160589923221,1.7531970796233949,0.10835129932776755,0.28,0,5,0.0
5.942635377999977,390,1002.76,-102.2,3.4,62.6,2.16,0.41,0.94,-0.02,-0.96,-0.15,-98.5,-43.4,-144.0,-1.83,1.28,0.2,0.0,0.9718538984847465,2.391087618637176,0.07860919063863636,0.28,0,5,0.0
5.952735079999911,391,1002.77,-102.2,3.4,62.6,2.16,0.41,0.94,-0.02,-0.96,-0.15,-99.0,-52.9,-110.0,-1.82,1.54,-0.02,0.0,0.9718538984847465,2.391087618637176,0.07703700682586367,0.28,0,5,0.0
5.962118876000204,392,1002.78,-101.9,3.3,62.7,2.39,0.15,0.84,-0.02,-0.91,-0.08,-99.6,-60.9,-79.0,-1.8,1.71,-0.07,0.0,0.9137286249209883,2.537754913304277,0.1324590347818294,0.28,0,5,0.0
5.972621935999996,393,1002.79,-101.7,3.3,62.7,2.25,-0.16,0.86,-0.03,-0.87,-0.07,-100.3,-66.5,-65.0,-1.78,1.88,0.0,0.0,0.8733269719870101,2.414062965210311,0.16940347396149147,0.28,0,5,0.0
5.982230025000263,394,1002.8,-101.5,3.2,62.7,1.83,-0.51,0.95,-0.04,-0.83,-0.07,-101.0,-72.0,-52.0,-1.76,1.99,0.18,0.0,0.8339064695755753,2.124029190006578,0.20464749684546768,0.28,0,5,0.0
5.992604991000007,395,1002.81,-101.3,2.9,62.5,0.66,-1.04,1.14,-0.06,-0.84,-0.12,-101.7,-75.5,-41.0,-1.74,2.09,0.03,0.0,0.8506468127254695,1.6783325057925798,0.184149010621662,0.28,0,5,0.0
6.002678136000213,396,1002.82,-101.3,2.9,62.5,0.66,-1.04,1.14,-0.06,-0.84,-0.12,-102.5,-78.6,-32.0,-1.72,2.17,0.06,0.0,0.8506468127254695,1.6783325057925798,0.18046603040922882,0.28,0,5,0.0
6.01276939599984,397,1002.83,-101.2,2.8,62.5,0.42,-1.19,1.11,-0.06,-0.88,-0.15,-103.3,-81.9,-33.0,-1.7,2.26,0.04,0.0,0.8947066558375432,1.6806546343612658,0.13367806355121203,0.28,0,5,0.0
6.022081531999902,398,1002.84,-101.2,2.6,62.4,0.6,-1.28,0.97,-0.06,-0.93,-0.17,-104.1,-83.0,-14.0,-1.68,2.27,-0.03,0.0,0.9473119866232034,1.7144386836512995,0.07945127811024078,0.28,0,5,0.0
6.030221818999962,399,1002.85,-101.1,2.4,62.2,1.08,-1.33,0.72,-0.05,-0.94,-0.21,-105.0,-83.8,-4.0,-1.65,2.25,-0.01,0.0,0.9644687656943588,1.858413301717355,0.06104860905830367,0.28,0,5,0.0
6.042639936999876,400,1002.86,-101.0,2.3,62.1,1.33,-1.28,0.43,-0.04,-0.92,-0.25,-105.8,-83.8,-4.0,-1.63,2.28,0.05,0.0,0.9542012366372201,1.8953100010288555,0.06988981535313354,0.28,0,5,0.0
6.0526668640000025,401,1002.87,-100.9,2.3,62.0,1.32,-1.16,0.16,-0.04,-0.88,-0.27,-106.6,-82.0,17.0,-1.61,2.19,0.0,0.0,0.9213576938409967,1.764539600009022,0.10067869098636983,0.28,0,5,0.0
6.062489556999935,402,1002.88,-100.7,2.3,61.9,1.22,-1.04,-0.05,-0.04,-0.86,-0.28,-107.4,-79.5,22.0,-1.59,2.13,-0.06,0.0,0.905317623820502,1.6039014932345441,0.11438438578672738,0.28,0,5,0.0
6.0726289230001385,403,1002.89,-100.6,2.3,61.8,1.47,-0.96,-0.31,-0.08,-0.86,-0.28,-108.2,-77.3,22.0,-1.57,2.07,0.03,0.0,0.9079647570252933,1.7828628662911792,0.10950250753029733,0.28,0,5,0.0
6.082673037999939,404,1002.9,-100.4,2.3,61.7,2.0,-1.05,-0.68,-0.12,-0.83,-0.27,-109.0,-75.2,28.0,-1.55,1.99,0.09,0.0,0.8810221336606703,2.3590040271267023,0.1337162282770219,0.28,0,5,0.0
6.092695878000086,405,1002.91,-100.2,2.4,61.6,2.19,-1.24,-0.97,-0.15,-0.8,-0.24,-109.7,-74.0,7.0,-1.53,2.02,0.04,0.0,0.8485870609430715,2.697146640433182,0.1628282749747283,0.28,0,5,0.0
6.10296379600004,406,1002.92,-99.9,2.5,61.2,0.69,-2.44,-1.15,-0.14,-0.7,-0.14,-110.5,-73.5,9.0,-1.5,1.99,-0.03,0.0,0.7274613391789284,2.7842772850418473,0.2782749168040939,0.28,0,5,0.0
6.112719291999838,407,1002.93,-99.9,2.6,60.9,-0.49,-3.19,-1.03,-0.11,-0.67,-0.14,-111.3,-76.1,-28.0,-1.48,2.13,-0.15,0.0,0.6932532004974806,3.387786888220686,0.30623339437583086,0.28,0,6,0.0
6.122066030000042,408,1002.94,-100.1,2.6,60.5,-1.42,-3.65,-0.9,-0.07,-0.7,-0.24,-112.1,-82.9,-69.0,-1.46,2.39,-0.04,0.0,0.7433034373659253,4.018569397186019,0.2510594943572385,0.28,0,6,0.0
6.130159736000223,409,1002.95,-100.2,2.6,60.1,-2.1,-3.5,-0.62,-0.06,-0.71,-0.28,-113.0,-95.6,-113.0,-1.43,2.77,-0.02,0.0,0.7655716818169283,4.128486405451761,0.22421542490811086,0.28,0,6,0.0
6.142653747000168,410,1002.96,-100.5,2.6,59.8,-2.8,-3.32,-0.24,-0.03,-0.74,-0.27,-114.1,-111.0,-142.0,-1.4,3.2,0.11,0.0,0.7882892870006544,4.349712634186309,0.19746786332989708,0.28,0,6,0.0
6.152616026000032,411,1002.97,-100.8,2.5,59.5,-3.33,-3.05,0.19,0.03,-0.83,-0.29,-115.3,-127.7,-166.0,-1.37,3.69,0.25,0.0,0.8797158632194829,4.519679192155125,0.10392046136884714,0.28,0,6,0.0
6.162590912000269,412,1002.98,-101.2,2.4,59.2,-3.94,-2.64,0.61,0.12,-0.93,-0.34,-116.7,-146.5,-180.0,-1.33,4.21,0.19,0.0,0.9974467404327912,4.781767455659048,0.013534207527571951,0.28,0,6,0.0
6.170272971000031,413,1002.99,-101.6,2.3,59.0,-3.87,-1.71,0.7,0.19,-1.07,-0.42,-118.3,-163.7,-168.0,-1.28,4.65,-0.04,0.0,1.165075104875218,4.288472921682029,0.17753932053059862,0.28,0,6,0.0
6.182610364000084,414,1003.0,-101.9,2.3,58.9,-2.33,-0.67,0.41,0.21,-1.13,-0.47,-119.7,-173.8,-167.0,-1.23,4.91,0.02,0.0,1.2417326604386307,2.4588411904797756,0.24911293857213124,0.28,0,6,0.0
6.1926089829999,415,1003.01,-102.1,2.2,58.9,-0.14,0.14,-0.03,0.17,-1.06,-0.46,-121.8,-185.2,-107.0,-1.18,5.1,0.11,0.0,1.167946916601949,0.20024984394500786,0.1718206508407405,0.28,0,6,0.0
6.202289508999911,416,1003.02,-102.0,2.3,58.9,0.84,0.65,-0.55,0.07,-0.99,-0.33,-123.7,-189.7,-59.0,-1.13,5.19,-0.06,0.0,1.0458967444255671,1.196076920603353,0.04877506909107154,0.28,0,6,0.0
6.212858567000239,417,1003.03,-102.0,2.4,59.0,-0.72,0.21,-0.52,0.06,-0.9,-0.27,-125.6,-190.3,-14.0,-1.08,5.14,-0.18,0.0,0.941541289588513,0.912633551870629,0.05446877803106287,0.28,0,6,0.0
6.222289529000136,418,1003.04,-102.3,2.4,58.9,-2.83,-0.34,-0.2,0.02,-0.96,-0.27,-127.5,-188.9,5.0,-1.03,5.11,0.02,0.0,0.9974467404327911,2.8573589204018455,0.001407939356950938,0.28,0,6,0.0
6.232917982999879,419,1003.05,-102.7,2.4,58.9,-3.97,-0.78,0.25,0.05,-1.06,-0.42,-129.4,-188.3,-7.0,-0.98,5.15,0.01,0.0,1.1412712210513327,4.053615669991422,0.14232777157598264,0.28,0,6,0.0
6.242285543999969,420,1003.06,-103.1,2.3,58.8,-3.38,-0.67,0.69,0.04,-1.21,-0.43,-131.3,-194.4,-62.0,-0.92,5.42,0.05,0.0,1.2847567863218314,3.514171310565266,0.28009707010955176,0.28,0,6,0.0
6.252445868999985,421,1003.07,-103.4,2.2,58.8,-1.48,-0.58,0.61,-0.01,-1.31,-0.39,-133.3,-204.4,-81.0,-0.87,5.65,-0.07,0.0,1.3668577102244404,1.7026156348395254,0.3549540341319175,0.28,0,6,0.0
6.2628215690001525,422,1003.08,-103.4,2.1,58.7,0.09,-0.46,0.77,-0.06,-1.19,-0.26,-135.4,-214.4,-100.0,-0.81,5.97,0.2,0.0,1.2195490970026586,0.901443287178955,0.2034925124919329,0.28,0,6,0.0
6.272644972999842,423,1003.09,-103.4,1.9,58.7,-0.48,-0.9,1.41,0.05,-1.19,-0.15,-137.7,-226.7,-121.0,-0.75,6.34,0.06,0.0,1.2004582458378132,1.740258601472781,0.18071362810054592,0.28,0,6,0.0
6.28211870999985,424,1003.1,-103.5,1.7,58.6,-1.73,-1.37,1.99,0.2,-1.29,-0.16,-140.0,-242.7,-157.0,-0.68,6.82,0.09,0.0,1.3151805959639156,2.971514765233382,0.28952725866211537,0.28,0,6,0.0
6.292798517999927,425,1003.11,-103.8,1.5,58.6,-2.79,-1.16,2.92,0.24,-1.33,-0.21,-142.6,-263.6,-195.0,-0.61,7.42,0.18,0.0,1.3676987972503303,4.201916229531474,0.33520455074955957,0.28,0,6,0.0
6.302262128000166,426,1003.12,-104.1,1.1,58.6,-2.93,-0.61,4.37,0.35,-1.44,-0.17,-145.4,-283.3,-183.0,-0.53,7.9,0.11,0.0,1.4916433890176297,5.296593244718722,0.44996615966652187,0.28,0,6,0.0
6.312886357000025,427,1003.13,-104.3,0.6,58.6,-0.89,-0.34,5.47,0.46,-1.66,-0.01,-148.3,-299.8,-179.0,-0.45,8.38,0.09,0.0,1.7225852663946712,5.552350853467384,0.6672898763026922,0.28,0,6,0.0
6.322280390999822,428,1003.14,-104.1,0.0,58.7,3.78,-0.4,5.32,0.28,-1.68,-0.03,-151.5,-319.7,-194.0,-0.36,8.93,-0.07,0.0,1.7034377006512447,6.538409592553834,0.6351794643480804,0.28,0,6,0.0
6.332931159000054,429,1003.15,-103.5,-0.3,58.8,6.72,-0.33,4.57,0.0,-1.31,0.07,-154.8,-337.7,-172.0,-0.27,9.36,-0.16,0.0,1.3118688958886098,8.133400272948577,0.23873844639373654,0.28,0,6,0.0
6.342261463999876,430,1003.16,-102.9,-0.8,58.9,5.62,-0.9,3.65,-0.21,-1.18,0.31,-158.3,-349.4,-122.0,-0.17,9.61,-0.04,0.0,1.2379822292747178,6.76142736409998,0.16155474418424776,0.28,0,6,0.0
6.35277539100025,431,1003.17,-102.5,-1.1,58.8,3.38,-2.28,2.32,-0.36,-1.07,0.37,-161.8,-354.1,-35.0,-0.07,9.54,-0.04,0.0,1.1880235687897778,4.6909700489344415,0.10936416202532162,0.28,0,6,0.0
6.362310839000202,432,1003.18,-102.3,-1.3,58.5,1.04,-3.21,1.2,-0.43,-1.01,0.31,-165.3,-340.3,117.0,0.01,8.97,-0.1,0.0,1.1406577050105786,3.5812986471390515,0.06075833228119998,0.28,0,6,0.0
6.370311030000266,433,1003.19,-102.2,-1.5,58.2,-0.56,-4.06,0.48,-0.39,-0.93,0.26,-168.5,-319.8,168.0,0.09,8.46,0.19,0.0,1.0414413089560066,4.126451259859977,0.037688902497904575,0.28,0,6,0.0
6.382785281999986,434,1003.2,-102.3,-1.6,57.8,-0.89,-4.59,0.14,-0.28,-0.99,0.15,-171.6,-296.0,251.0,0.17,7.63,-0.13,0.0,1.0397114984456024,4.677584846905505,0.03863033874814259,0.28,0,6,0.0
6.392906941000092,435,1003.21,-102.3,-1.7,57.3,0.12,-4.86,-0.07,-0.19,-1.02,0.05,-174.3,-259.5,348.0,0.24,6.53,-0.05,0.0,1.0387492478938312,4.861985191256757,0.03880073751391566,0.28,0,6,0.0
6.4022621270000855,436,1003.22,-102.2,-1.8,56.8,1.17,-4.83,-0.28,-0.12,-1.02,0.0,-176.6,-216.7,406.0,0.3,5.34,-0.26,0.0,1.0270345661174214,4.977569688110855,0.049505110904519034,0.28,0,6,0.0
6.412714567999956,437,1003.23,-102.1,-1.8,56.3,1.38,-4.77,-0.39,-0.02,-1.02,-0.03,-178.3,-176.1,438.0,0.34,4.1,-0.27,0.0,1.0206370559606386,4.980903532492874,0.05478456864007586,0.28,0,6,0.0
6.422219394999956,438,1003.24,-102.0,-1.9,55.9,1.27,-4.48,-0.54,0.08,-1.03,-0.08,-179.8,-124.0,467.0,0.38,2.78,-0.44,0.0,1.0361949623502325,4.687739327223731,0.03844212900547239,0.28,0,6,0.0
6.432908957000109,439,1003.25,-101.8,-1.9,55.4,1.24,-4.14,-0.85,0.18,-1.03,-0.09,-180.7,-79.9,480.0,0.39,1.44,-0.24,0.0,1.0494760597555335,4.404509053231699,0.02465781096816788,0.28,0,6,0.0
6.442132207000213,440,1003.26,-101.7,-1.9,55.0,1.46,-3.7,-1.2,0.25,-0.98,-0.13,-181.1,-27.1,468.0,0.4,0.19,-0.23,0.0,1.0197058399362042,4.1547081726638755,0.053339470171747116,0.28,0,6,0.0
6.452761956999893,441,1003.27,-101.5,-1.8,54.7,1.59,-3.17,-1.37,0.27,-0.89,-0.14,-181.1,12.7,383.0,0.39,-0.7,-0.09,0.0,0.9405317644821997,3.801828507442176,0.12986327471323655,0.28,0,6,0.0
6.4622576530000515,442,1003.28,-101.3,-1.7,54.4,1.2,-2.66,-1.44,0.27,-0.85,-0.12,-180.8,41.6,317.0,0.38,-1.46,0.0,0.0,0.8998888820293314,3.254105099716357,0.16709603402278272,0.28,0,6,0.0
6.472530220999943,443,1003.29,-101.2,-1.6,54.1,0.83,-2.24,-1.39,0.26,-0.8,-0.09,-180.2,68.8,294.0,0.36,-2.22,-0.05,0.0,0.8459905436823748,2.763801729502317,0.21657448492234443,0.28,0,6,0.0
6.482795919000182,444,1003.3,-101.2,-1.5,53.9,0.49,-1.84,-1.39,0.23,-0.82,-0.1,-179.3,96.5,273.0,0.34,-2.92,-0.19,0.0,0.857496355677387,2.3574986744428936,0.20096729946878555,0.28,0,6,0.0
6.492894761000116,445,1003.31,-101.1,-1.4,53.7,0.19,-1.41,-1.39,0.19,-0.82,-0.12,-178.2,121.6,257.0,0.3,-3.6,-0.12,0.0,0.850235261559999,1.9890449969771924,0.20406382571445014,0.28,0,6,0.0
6.502263411000058,446,1003.32,-101.1,-1.3,53.5,-0.1,-1.0,-1.38,0.16,-0.84,-0.13,-176.8,147.3,260.0,0.26,-4.32,-0.16,0.0,0.8649277426467484,1.7071613866298638,0.1855839177351467,0.28,0,6,0.0
6.51273743999991,447,1003.33,-101.1,-1.2,53.4,-0.24,-0.64,-1.33,0.16,-0.86,-0.16,-175.1,172.1,246.0,0.21,-4.97,-0.12,0.0,0.8892693630166283,1.4953594885511643,0.15801745141796142,0.28,0,6,0.0
6.522276357999999,448,1003.34,-101.2,-1.1,53.4,-0.34,-0.4,-1.27,0.14,-0.86,-0.15,-173.2,198.0,261.0,0.16,-5.71,-0.12,0.0,0.8841379982785492,1.374227055475186,0.1598858398329196,0.28,0,6,0.0
6.532825582999976,449,1003.35,-101.2,-1.0,53.3,-0.37,-0.22,-1.13,0.12,-0.87,-0.16,-171.1,224.5,258.0,0.1,-6.4,-0.2,0.0,0.8926925562588723,1.209214621148785,0.14830465621554456,0.28,0,6,0.0
6.542081058999884,450,1003.36,-101.2,-0.9,53.3,-0.3,-0.11,-0.96,0.11,-0.88,-0.17,-168.7,246.3,222.0,0.03,-6.94,-0.14,0.0,0.9029950165975447,1.0117806086301517,0.13524215195933476,0.28,0,6,0.0
6.552681872999983,451,1003.37,-101.3,-0.8,53.2,-0.17,-0.03,-0.85,0.09,-0.89,-0.16,-166.0,268.1,236.0,-0.04,-7.62,0.09,0.0,0.9087353850269065,0.8673522929006414,0.12691174785937342,0.28,0,6,0.0
6.56227520199991,452,1003.38,-101.3,-0.7,53.2,-0.04,0.0,-0.72,0.09,-0.89,-0.16,-163.2,295.9,262.0,-0.12,-8.36,-0.3,0.0,0.9087353850269065,0.7211102550927979,0.12437351290218601,0.28,0,6,0.0
6.5728253150000455,453,1003.39,-101.3,-0.6,53.2,0.05,0.0,-0.64,0.09,-0.89,-0.15,-160.0,320.5,236.0,-0.21,-8.96,-0.12,0.0,0.907028114227999,0.6419501538281613,0.12355916802707156,0.28,0,6,0.0
6.5822929010000735,454,1003.4,-101.3,-0.6,53.2,0.07,0.01,-0.58,0.1,-0.86,-0.18,-156.7,340.8,216.0,-0.3,-9.52,-0.23,0.0,0.8843076387773657,0.5842944463196617,0.14335405060815065,0.28,0,6,0.0
6.592774262000148,455,1003.41,-101.3,-0.5,53.2,0.06,0.01,-0.55,0.1,-0.84,-0.18,-153.1,363.9,239.0,-0.4,-10.23,-0.23,0.0,0.864869932417586,0.5533534132902769,0.1595359218285718,0.28,0,6,0.0
6.602150816000176,456,1003.42,-101.3,-0.5,53.2,-0.1,0.03,-0.43,0.1,-0.81,-0.21,-149.3,389.1,249.0,-0.51,-10.91,-0.15,0.0,0.8427336471270149,0.4424929377967517,0.17803876297676002,0.28,0,6,0.0
6.6125278499998785,457,1003.43,-101.3,-0.4,53.2,-0.33,0.05,-0.23,0.1,-0.8,-0.24,-145.2,419.6,302.0,-0.62,-11.81,-0.11,0.0,0.8411896337925236,0.40533936399022485,0.17599112078502632,0.28,0,6,0.0
6.622729973999867,458,1003.44,-101.3,-0.4,53.2,-0.51,0.06,0.0,0.1,-0.8,-0.26,-140.8,446.4,247.0,-0.74,-12.38,-0.11,0.0,0.8471127433818949,0.5135172830587107,0.16666665097174194,0.28,0,6,0.0
6.63275879999992,459,1003.45,-101.4,-0.4,53.2,-0.52,0.11,0.27,0.11,-0.81,-0.28,-136.2,472.2,279.0,-0.87,-13.2,-0.16,0.0,0.864060183089118,0.5961543424315553,0.1467248270392284,0.28,0,6,0.0
6.6421748010002375,460,1003.46,-101.4,-0.5,53.2,-0.32,0.17,0.58,0.1,-0.83,-0.28,-131.3,496.2,212.0,-1.01,-13.68,0.05,0.0,0.8816461875378354,0.6838859554048468,0.12655604613870075,0.28,0,6,0.0
6.652564803000132,461,1003.47,-101.5,-0.5,53.3,-0.05,0.19,0.85,0.09,-0.83,-0.27,-126.2,522.6,294.0,-1.15,-14.63,-0.14,0.0,0.8774394566008529,0.8724104538575864,0.12814752153416953,0.28,0,6,0.0
6.662749234999865,462,1003.48,-101.4,-0.6,53.3,0.3,0.24,1.09,0.08,-0.84,-0.27,-120.7,546.5,203.0,-1.3,-15.01,0.01,0.0,0.8859458222713169,1.1557248807566618,0.11724833274643143,0.28,0,6,0.0
6.6726800279998315,463,1003.49,-101.4,-0.7,53.3,0.52,0.37,1.23,0.08,-0.84,-0.28,-115.2,564.8,208.0,-1.46,-15.6,0.04,0.0,0.8890444308357147,1.385712812959453,0.11186672969839295,0.28,0,6,0.0
6.682100227999854,464,1003.5,-101.3,-0.9,53.4,0.52,0.51,1.36,0.09,-0.84,-0.27,-109.3,592.5,297.0,-1.62,-16.57,-0.02,0.0,0.8869047299456689,1.542757271899893,0.11172630197667,0.28,0,6,0.0
6.692579483999907,465,1003.51,-101.3,-1.0,53.5,0.41,0.63,1.48,0.11,-0.84,-0.26,-103.2,619.6,231.0,-1.79,-17.08,-0.17,0.0,0.8861715409558129,1.6599397579430404,0.11021030114719554,0.28,0,6,0.0
6.702329971999916,466,1003.52,-101.3,-1.1,53.6,0.27,0.75,1.61,0.13,-0.84,-0.26,-96.8,644.8,233.0,-1.96,-17.7,0.04,0.0,0.8888756943465155,1.7965244223221681,0.10535602480136308,0.28,0,6,0.0
6.712641332000203,467,1003.53,-101.2,-1.3,53.7,0.17,0.89,1.75,0.14,-0.84,-0.27,-90.3,665.4,283.0,-2.15,-18.57,0.31,0.0,0.8933644273195569,1.9706597879897991,0.09884994599175523,0.28,0,6,0.0
6.722259604000101,468,1003.54,-101.2,-1.4,53.8,0.25,0.98,1.9,0.14,-0.83,-0.27,-83.4,687.1,143.0,-2.33,-18.68,-0.28,0.0,0.8839683252243826,2.152417245795991,0.10608112712519091,0.28,0,6,0.0
6.732761806999861,469,1003.55,-101.2,-1.6,54.0,0.41,1.09,2.09,0.16,-0.83,-0.26,-76.5,690.8,81.0,-2.52,-18.85,0.02,0.0,0.8843641783790205,2.3925509398965783,0.10357156849114202,0.28,0,6,0.0
6.742208387000119,470,1003.56,-101.2,-1.8,54.1,0.34,1.16,2.23,0.14,-0.86,-0.24,-69.5,702.4,70.0,-2.71,-19.03,-0.16,0.0,0.9037698822156002,2.536552778871356,0.08248254736147109,0.28,0,6,0.0
6.752809090000028,471,1003.57,-101.1,-2.0,54.3,0.17,1.19,2.27,0.13,-0.87,-0.23,-62.6,693.1,-47.0,-2.9,-18.72,0.14,0.0,0.9092304438369846,2.56863777127099,0.0754815460252849,0.28,0,6,0.0
6.762219540999922,472,1003.58,-101.1,-2.2,54.5,0.04,1.22,2.25,0.12,-0.88,-0.24,-56.5,662.9,-353.0,-3.08,-17.06,0.54,0.0,0.9199999999999999,2.5597851472340407,0.06341775006502415,0.28,0,6,0.0
6.772856083000079,473,1003.59,-101.1,-2.4,54.6,0.33,1.3,2.28,0.16,-0.85,-0.27,-49.8,571.5,-871.0,-3.23,-13.87,0.56,0.0,0.9060905032059434,2.6452410098136614,0.07578070192189901,0.28,0,6,0.0
6.782235777000096,474,1003.6,-101.1,-2.6,54.8,0.25,1.61,2.29,0.08,-0.95,-0.29,-45.1,425.6,-1298.0,-3.34,-9.68,0.56,0.0,0.9964938534682489,2.8104625953746476,0.014330195373598364,0.28,0,6,0.0
6.792742931000248,475,1003.61,-101.1,-2.8,55.0,-0.45,1.71,1.89,-0.01,-1.07,-0.25,-41.9,270.5,-1471.0,-3.4,-5.43,0.53,0.0,1.0988630487917956,2.588184692018713,0.11436540288320218,0.28,0,6,0.0
6.802117674999863,476,1003.62,-101.2,-2.9,55.2,-0.86,1.86,1.39,-0.13,-1.11,-0.25,-40.2,124.1,-1389.0,-3.43,-1.83,0.77,0.0,1.1452074047961793,2.4761461992378395,0.1574955637098342,0.28,0,6,0.0
6.812651259000177,477,1003.63,-101.3,-3.0,55.4,-0.64,1.33,1.03,-0.24,-1.06,-0.17,-39.8,10.4,-1120.0,-3.43,0.71,0.21,0.0,1.10004545360635,1.7998333256165693,0.11008694026960475,0.28,0,6,0.0
6.822264934000032,478,1003.64,-101.3,-3.1,55.5,0.31,0.43,1.25,-0.19,-0.89,-0.17,-40.2,-50.7,-689.0,-3.42,1.88,0.07,0.0,0.9257969539807311,1.3577555008174336,0.06287832816889383,0.28,0,6,0.0
6.832832215000053,479,1003.65,-101.3,-3.3,55.6,1.04,-0.29,1.72,-0.03,-0.85,-0.24,-41.0,-89.3,-475.0,-3.39,2.86,0.16,0.0,0.883742043811428,2.0307880243885625,0.10283457357143311,0.28,0,6,0.0
6.842338930000096,480,1003.66,-101.2,-3.4,55.6,1.05,-0.41,1.99,0.04,-0.87,-0.35,-42.1,-126.0,-399.0,-3.36,3.85,0.24,0.0,0.9386160024205852,2.287072364399518,0.04700140266303032,0.28,0,6,0.0
6.852710847000253,481,1003.67,-101.1,-3.6,55.6,0.22,-0.07,1.82,0.11,-0.97,-0.4,-43.4,-158.0,-376.0,-3.31,4.86,0.23,0.0,1.0549881515922348,1.8345844216061578,0.06798333157844694,0.28,0,6,0.0
6.862211115000264,482,1003.68,-101.2,-3.8,55.6,-1.1,0.58,1.23,0.14,-1.13,-0.44,-45.5,-200.5,-392.0,-3.25,5.95,0.1,0.0,1.2206965224821442,1.749085475327035,0.2290178684189892,0.28,0,6,0.0
6.87288677000015,483,1003.69,-101.4,-3.8,55.7,-2.32,1.2,0.37,0.07,-1.22,-0.38,-47.8,-243.4,-426.0,-3.19,7.17,0.26,0.0,1.2797265332874832,2.6380485211610494,0.2822869216398416,0.28,0,7,0.0
6.882241190000059,484,1003.7,-101.7,-3.8,55.9,-2.95,1.36,-0.45,0.01,-1.29,-0.33,-50.2,-283.4,-428.0,-3.11,8.32,0.07,0.0,1.3315780112332887,3.2794206805470996,0.3274556315939341,0.28,0,7,0.0
6.8928934320001645,485,1003.71,-102.0,-3.7,56.0,-2.58,1.37,-1.15,-0.05,-1.25,-0.29,-53.7,-321.1,-316.0,-3.02,8.97,0.01,0.0,1.284172885557081,3.1393948461447154,0.27444949579937195,0.28,0,7,0.0
6.902269905000139,486,1003.72,-102.2,-3.5,56.1,-2.27,1.12,-1.61,-0.09,-1.24,-0.22,-57.0,-337.4,-199.0,-2.93,9.33,0.04,0.0,1.2625767303415663,2.999899998333278,0.24779627377217994,0.28,0,7,0.0
6.912525773000198,487,1003.73,-102.4,-3.3,56.1,-2.05,0.64,-2.15,-0.12,-1.24,-0.12,-60.4,-348.4,-113.0,-2.83,9.49,-0.04,0.0,1.2515590277729614,3.0388484661134387,0.2320429997795035,0.28,0,7,0.0
6.922677983000085,488,1003.74,-102.6,-3.1,56.1,-2.25,-0.03,-2.58,-0.13,-1.22,-0.06,-63.9,-345.9,6.0,-2.74,9.29,0.06,0.0,1.2283729075488437,3.4234193432882276,0.20467974196427807,0.28,0,7,0.0
6.932843601000059,489,1003.75,-102.8,-2.8,56.0,-2.54,-0.58,-2.93,-0.16,-1.25,-0.03,-67.3,-336.7,60.0,-2.65,9.05,-0.18,0.0,1.2605554331325537,3.9208289939756362,0.23212502219702835,0.28,0,7,0.0
6.942133201000161,490,1003.76,-103.1,-2.5,55.8,-2.5,-1.19,-3.25,-0.15,-1.32,0.03,-70.6,-324.6,133.0,-2.56,8.56,0.03,0.0,1.328834075421006,4.269496457429143,0.29439559119577097,0.28,0,7,0.0
6.9526373359999525,491,1003.77,-103.3,-2.2,55.6,-2.32,-1.6,-3.81,-0.11,-1.49,0.06,-73.7,-299.4,230.0,-2.48,7.78,-0.06,0.0,1.495259174858994,4.739039987170398,0.45160427682108395,0.28,0,7,0.0
6.9626674910000474,492,1003.78,-103.6,-1.8,55.3,-2.64,-2.0,-4.75,-0.12,-1.58,0.07,-76.5,-268.0,294.0,-2.41,6.87,-0.06,0.0,1.5860958356921566,5.790690805076713,0.5315921189011616,0.28,0,7,0.0
6.972796262999964,493,1003.79,-103.8,-1.4,55.0,-2.45,-2.22,-5.37,-0.15,-1.48,0.03,-78.9,-231.7,354.0,-2.34,5.81,-0.08,0.0,1.4878844041120936,6.306171580285459,0.4247130735746767,0.28,0,7,0.0
6.982212091999827,494,1003.8,-104.0,-0.9,54.6,-1.24,-2.54,-5.19,-0.08,-1.24,-0.03,-80.9,-190.5,396.0,-2.29,4.66,-0.38,0.0,1.2429400629153442,5.909763108619499,0.1761733577303688,0.28,0,7,0.0
6.992610285999945,495,1003.81,-104.0,-0.5,54.3,0.17,-2.59,-4.26,0.04,-1.06,-0.04,-82.6,-149.6,402.0,-2.26,3.57,-0.05,0.0,1.061508360777248,4.988446652015034,0.0051531775195727825,0.28,0,7,0.0
7.00254433200007,496,1003.82,-104.0,-0.2,53.9,0.83,-2.54,-3.04,0.2,-1.01,-0.03,-83.7,-112.6,411.0,-2.23,2.44,0.0,0.0,1.030048542545447,4.04748069791568,0.03588073583634621,0.28,0,7,0.0
7.012743175000196,497,1003.83,-103.8,-0.1,53.7,1.59,-1.99,-2.04,0.31,-0.99,-0.04,-84.6,-69.1,387.0,-2.21,1.43,-0.14,0.0,1.0381714694596458,3.263403131701629,0.027202652743704592,0.28,0,7,0.0
7.0221470970000155,498,1003.84,-103.6,0.0,53.5,2.25,-1.02,-1.26,0.39,-0.93,-0.11,-85.0,-31.7,379.0,-2.2,0.4,-0.23,0.0,1.0144456614328834,2.7731750756127895,0.04990989155505754,0.28,0,7,0.0
7.030249181000272,499,1003.85,-103.4,0.0,53.4,2.66,0.19,-0.79,0.45,-0.95,-0.11,-85.1,-0.4,293.0,-2.2,-0.22,-0.02,0.0,1.056929515152264,2.7813306168091563,0.0072775170789634025,0.28,0,7,0.0
7.042597141999977,500,1003.86,-103.1,0.1,53.5,2.91,1.62,-0.87,0.43,-0.98,-0.12,-85.0,11.0,137.0,-2.21,-0.35,0.05,0.0,1.0768936809174803,3.442295745574456,0.012432915712527803,0.28,0,7,0.0
7.050247380000201,501,1003.87,-102.8,0.3,53.7,2.43,2.62,-1.19,0.3,-0.96,-0.04,-84.9,12.8,45.0,-2.21,-0.32,0.09,0.0,1.0065783625729297,3.7663510192227174,0.05672475457938231,0.28,0,7,0.0
7.062965594000161,502,1003.88,-102.6,0.5,53.9,2.01,3.12,-1.52,0.14,-0.99,0.01,-84.8,9.4,-10.0,-2.21,-0.2,0.07,0.0,0.9998999949994999,4.010598459083133,0.06213505970975575,0.28,0,7,0.0
7.072959904000072,503,1003.89,-102.4,0.7,54.2,2.0,2.98,-1.99,-0.02,-1.04,0.11,-84.7,5.8,-28.0,-2.21,-0.11,0.18,0.0,1.0459923517884824,4.1037178265567915,0.015721848862357835,0.28,0,7,0.0
7.086075811000228,504,1003.9,-102.2,1.0,54.4,1.79,2.2,-2.25,-0.2,-1.04,0.18,-84.7,1.8,-36.0,-2.21,0.0,0.1,0.0,1.074243920159663,3.6203038546508775,0.012279125118646261,0.28,0,7,0.0
7.094141627000226,505,1003.91,-102.1,1.3,54.5,1.59,0.91,-2.18,-0.33,-1.04,0.19,-84.7,0.1,-11.0,-2.21,-0.01,0.01,0.0,1.1075197515168749,2.847560359325154,0.04464385734634102,0.28,0,7,0.0
7.102139001000069,506,1003.92,-101.9,1.5,54.5,1.83,-0.47,-1.9,-0.38,-1.01,0.12,-84.7,0.0,-5.0,-2.21,0.0,0.13,0.0,1.0857716150277645,2.6795148814664196,0.022437806440086083,0.28,0,7,0.0
7.1107428619998245,507,1003.93,-101.7,1.6,54.3,2.1,-1.9,-1.46,-0.35,-0.97,0.08,-84.7,-0.1,-6.0,-2.21,0.02,-0.07,0.0,1.034311365112073,3.1861575604480077,0.028441994606093424,0.28,0,7,0.0
7.122679431000051,508,1003.94,-101.5,1.7,54.1,2.16,-3.08,-1.08,-0.28,-0.96,0.07,-84.7,-1.5,-15.0,-2.21,0.07,0.01,0.0,1.0024470060806208,3.9138727623672183,0.059100226564794855,0.28,0,7,0.0
7.132831809999971,509,1003.95,-101.3,1.7,53.7,1.92,-3.9,-0.78,-0.21,-0.95,0.02,-84.7,-3.1,-8.0,-2.21,0.08,0.02,0.0,0.973139250056229,4.416423892698707,0.0866398229374028,0.28,0,7,0.0
7.14226898600009,510,1003.96,-101.1,1.7,53.3,1.55,-4.41,-0.58,-0.15,-0.97,0.0,-84.7,-3.3,-12.0,-2.21,0.11,-0.06,0.0,0.9815294188153506,4.710307845565935,0.0766846610947155,0.28,0,7,0.0
7.152740030000132,511,1003.97,-101.0,1.6,52.8,1.47,-4.71,-0.46,-0.1,-1.0,-0.02,-84.8,-5.8,-23.0,-2.21,0.2,-0.02,0.0,1.005186549850325,4.955461633389971,0.051966979458546225,0.28,0,7,0.0
7.162213946000065,512,1003.98,-100.8,1.6,52.3,1.84,-4.94,-0.48,-0.07,-1.03,-0.02,-84.9,-10.7,-40.0,-2.21,0.33,-0.03,0.0,1.032569610244268,5.2933543240557785,0.02409224068331106,0.28,0,7,0.0
7.172959428000013,513,1003.99,-100.6,1.5,51.8,2.23,-5.17,-0.54,-0.05,-1.01,-0.03,-85.0,-14.7,-41.0,-2.2,0.46,0.1,0.0,1.0116817681464858,5.656270856315139,0.04408048112547136,0.28,0,7,0.0
7.182221499000207,514,1004.0,-100.4,1.5,51.3,2.42,-5.41,-0.58,-0.05,-1.0,-0.03,-85.1,-18.2,-66.0,-2.2,0.61,0.05,0.0,1.0016985574512922,5.954905540812549,0.05298241798425174,0.28,0,7,0.0
7.192872920999889,515,1004.01,-100.2,1.5,50.7,2.49,-5.67,-0.63,-0.06,-0.97,-0.02,-85.4,-24.3,-44.0,-2.19,0.7,0.05,0.0,0.97205966895042,6.224620470358012,0.0809688803554216,0.28,0,7,0.0
7.202310813000167,516,1004.02,-100.0,1.4,50.1,2.36,-5.99,-0.56,-0.09,-0.95,-0.01,-85.7,-27.6,-30.0,-2.18,0.75,0.16,0.0,0.9543060305792895,6.4624530946073415,0.09674806835202088,0.28,0,7,0.0
7.212760922000143,517,1004.03,-99.8,1.4,49.5,2.25,-6.36,-0.48,-0.1,-0.96,0.0,-86.0,-25.4,10.0,-2.18,0.66,-0.07,0.0,0.9651942809610923,6.763320190557298,0.08414262161081387,0.28,0,7,0.0
7.2221172849999675,518,1004.04,-99.6,1.3,48.9,2.22,-6.76,-0.35,-0.1,-0.98,-0.01,-86.2,-22.6,34.0,-2.17,0.52,-0.13,0.0,0.9851395840184273,7.123798144248614,0.06291337218240922,0.28,0,7,0.0
7.232664255000145,519,1004.05,-99.3,1.2,48.2,2.5,-7.15,-0.32,-0.11,-0.99,-0.03,-86.4,-13.8,69.0,-2.17,0.28,0.02,0.0,0.9965440281292142,7.5812202184081166,0.050478749510189935,0.28,0,7,0.0
7.242263515000104,520,1004.06,-99.1,1.1,47.4,2.8,-7.48,-0.34,-0.1,-0.98,-0.05,-86.5,-6.7,69.0,-2.17,0.09,-0.07,0.0,0.9863569333664157,7.994122841187769,0.0594525273875286,0.28,0,7,0.0
7.252716674000112,521,1004.07,-98.8,1.0,46.7,2.97,-7.71,-0.42,-0.08,-0.97,-0.07,-86.5,0.8,66.0,-2.17,-0.07,0.05,0.0,0.9758073580374356,8.272931765704344,0.06860206066217867,0.28,0,7,0.0
7.262269628000013,522,1004.08,-98.5,1.0,45.9,3.0,-7.83,-0.55,-0.07,-0.96,-0.08,-86.5,1.6,5.0,-2.17,0.0,-0.01,0.0,0.9658674857349738,8.403058966828686,0.07697109430534765,0.28,0,7,0.0
7.272859404999963,523,1004.09,-98.2,0.9,45.1,2.93,-7.97,-0.71,-0.06,-0.93,-0.07,-86.5,-0.5,1.0,-2.17,0.0,0.04,0.0,0.9345587193964862,8.52114428935457,0.10611426343095864,0.28,0,7,0.0
7.282288941999923,524,1004.1,-97.9,0.9,44.3,2.82,-8.13,-0.89,-0.06,-0.91,-0.08,-86.5,0.1,1.0,-2.17,0.0,-0.01,0.0,0.9154780172128657,8.65109241656798,0.12269106630228743,0.28,0,7,0.0
7.292946088000008,525,1004.11,-97.7,0.8,43.5,2.55,-8.34,-1.04,-0.06,-0.89,-0.08,-86.5,-0.1,-1.0,-2.17,0.0,-0.05,0.0,0.8956003573022959,8.78292092643444,0.1397173516886001,0.28,0,7,0.0
7.302284724999936,526,1004.12,-97.4,0.8,42.6,2.06,-8.55,-1.23,-0.08,-0.87,-0.09,-86.5,0.5,5.0,-2.17,-0.01,0.02,0.0,0.8782938005018593,8.880259005231773,0.1538834303192559,0.28,0,7,0.0
7.312841291000041,527,1004.13,-97.3,0.7,41.7,1.45,-8.76,-1.39,-0.1,-0.88,-0.1,-86.5,-0.4,-6.0,-2.17,0.02,0.07,0.0,0.8912911982062877,8.98733553396111,0.138068311962531,0.28,0,7,0.0
7.322211651000089,528,1004.14,-97.2,0.8,40.8,0.99,-9.02,-1.54,-0.12,-0.89,-0.1,-86.5,0.1,5.0,-2.17,-0.02,0.15,0.0,0.9036038955205982,9.203917644133936,0.12324050235525619,0.28,0,7,0.0
7.332936903000245,529,1004.15,-97.1,0.8,39.9,0.63,-9.35,-1.7,-0.14,-0.9,-0.1,-86.5,-0.4,-12.0,-2.17,0.05,0.09,0.0,0.9162968951164246,9.524148255880943,0.10833655270424114,0.28,0,7,0.0
7.3422821479998674,530,1004.16,-97.1,0.9,38.9,0.25,-9.74,-1.85,-0.15,-0.9,-0.1,-86.5,-1.6,-8.0,-2.17,0.05,-0.01,0.0,0.917877987534291,9.917287935721136,0.10462035108064727,0.28,0,7,0.0
7.353000038000118,531,1004.17,-97.1,1.0,37.9,-0.06,-10.06,-2.01,-0.17,-0.89,-0.11,-86.5,-2.2,-8.0,-2.17,0.07,0.12,0.0,0.9127431182978045,10.259010673549376,0.10756011591079107,0.28,0,7,0.0
7.362283262999881,532,1004.18,-97.1,1.0,36.9,-0.45,-10.45,-2.24,-0.18,-0.91,-0.11,-86.5,-5.3,-33.0,-2.16,0.21,0.0,0.0,0.9341306118525396,10.696850003622561,0.08444916990893492,0.28,0,7,0.0
7.372928775000219,533,1004.19,-97.2,1.1,35.8,-0.78,-10.88,-2.53,-0.19,-0.95,-0.09,-86.6,-12.2,-61.0,-2.16,0.42,0.01,0.0,0.9729850975220535,11.197486325064212,0.044682790554632534,0.28,0,7,0.0
7.382283036999979,534,1004.2,-97.3,1.3,34.6,-0.78,-11.38,-2.85,-0.24,-0.97,-0.05,-86.8,-18.7,-74.0,-2.15,0.64,0.13,0.0,1.000499875062461,11.757350892101503,0.016824652753940628,0.28,0,7,0.0
7.392947460999949,535,1004.21,-97.4,1.4,33.4,-1.09,-12.17,-3.08,-0.28,-0.99,0.0,-87.1,-29.9,-100.0,-2.15,0.95,0.01,0.0,1.0288342918079665,12.600928537215026,0.011279568711733523,0.28,0,7,0.0
7.402275486000235,536,1004.22,-97.6,1.6,32.1,-1.19,-13.03,-3.39,-0.27,-1.05,-0.05,-87.4,-41.3,-110.0,-2.13,1.27,0.06,0.0,1.08531101533155,13.51625317904337,0.06640116639061056,0.28,0,7,0.0
7.412800223999966,537,1004.23,-97.7,1.8,30.8,-0.15,-13.61,-3.98,-0.24,-1.09,-0.06,-87.9,-52.0,-102.0,-2.12,1.52,0.2,0.0,1.117720895393837,14.180796874647065,0.0968348255238396,0.28,0,7,0.0
7.422203119000187,538,1004.24,-97.7,2.0,29.3,0.98,-14.5,-4.53,-0.15,-1.03,0.01,-88.5,-60.4,-87.0,-2.1,1.73,-0.04,0.0,1.0409130607308181,15.22272314666466,0.019626451043604387,0.28,0,7,0.0
7.432756942000196,539,1004.25,-97.7,2.2,27.7,0.5,-15.6,-4.42,0.06,-1.0,-0.03,-89.2,-66.9,-66.0,-2.08,1.89,0.0,0.0,1.0022474744293446,16.221787817623554,0.018658352552711754,0.28,0,7,0.0
7.442225510999833,540,1004.26,-97.7,2.5,26.1,-0.34,-16.23,-4.23,0.33,-1.14,-0.16,-89.9,-71.3,-48.0,-2.06,1.98,-0.03,0.0,1.1975391434103522,16.775619213608778,0.17310065009972986,0.28,0,7,0.0
7.452864349000265,541,1004.27,-97.9,2.6,24.4,-0.52,-15.9,-4.0,0.5,-1.24,-0.27,-90.6,-74.5,-31.0,-2.04,2.04,0.12,0.0,1.3640014662748716,16.403670320998284,0.3327717135049644,0.28,0,8,0.0
7.462233279999964,542,1004.28,-97.9,2.8,22.9,0.44,-15.01,-3.53,0.58,-1.28,-0.27,-91.4,-76.4,-22.0,-2.02,2.08,-0.04,0.0,1.430978686074674,15.425777127911578,0.39175395463867146,0.28,0,8,0.0
7.472794265000175,543,1004.29,-97.8,2.9,21.4,2.91,-13.84,-2.83,0.58,-1.3,-0.32,-92.1,-77.9,-16.0,-2.0,2.13,-0.17,0.0,1.4590407807871582,14.422988594601328,0.41141972836413254,0.28,0,8,0.0
7.482223431999955,544,1004.3,-97.5,3.0,20.1,6.0,-12.6,-2.23,0.43,-1.29,-0.26,-92.9,-77.4,16.0,-1.98,2.02,-0.02,0.0,1.3844132331063583,14.132689057642216,0.3300563370696661,0.28,0,8,0.0
7.4927238240002225,545,1004.31,-96.8,3.0,18.8,7.79,-11.63,-1.93,0.25,-1.08,-0.17,-93.6,-70.2,60.0,-1.96,1.8,0.06,0.0,1.1215168300119263,14.130318467748701,0.06581673529572929,0.28,0,8,0.0
7.502336124000067,546,1004.32,-96.1,3.1,17.7,7.18,-11.07,-1.82,0.09,-0.95,-0.04,-94.3,-59.4,106.0,-1.95,1.43,0.05,0.0,0.9550916186418976,13.319523264741873,0.09859630655281326,0.28,0,8,0.0
7.512745125000038,547,1004.33,-95.5,3.2,16.6,5.3,-10.96,-1.86,0.0,-0.86,-0.03,-94.8,-43.8,139.0,-1.94,1.0,-0.02,0.0,0.8605230967266363,12.315486186099191,0.18930153189871313,0.28,0,8,0.0
7.522271402000115,548,1004.34,-95.1,3.2,15.5,3.1,-10.52,-1.82,0.01,-0.83,-0.09,-95.1,-26.9,172.0,-1.93,0.48,0.01,0.0,0.8349251463454672,11.117229870790654,0.21060149263428452,0.28,0,8,0.0
7.532839113000136,549,1004.35,-95.0,3.3,14.4,1.75,-10.03,-1.92,0.07,-0.91,-0.13,-95.2,-9.1,164.0,-1.93,0.06,-0.12,0.0,0.9219002115196634,10.360974857608717,0.12115389891088657,0.28,0,8,0.0
7.542041156999858,550,1004.36,-94.9,3.5,13.5,1.67,-9.47,-2.11,0.13,-0.99,-0.14,-95.2,1.8,95.0,-1.93,-0.06,0.01,0.0,1.008265837961398,9.844892076605005,0.03409250701976885,0.28,0,8,0.0
7.55253381700004,551,1004.37,-94.8,3.7,12.5,2.23,-9.22,-2.26,0.16,-0.98,-0.11,-95.2,0.5,14.0,-1.93,0.01,-0.07,0.0,0.9990495483208027,9.751353752172054,0.042442620727156766,0.28,0,8,0.0
7.56248688300002,552,1004.38,-94.6,3.9,11.6,2.86,-9.39,-2.38,0.14,-0.93,-0.06,-95.2,0.3,8.0,-1.93,0.0,0.01,0.0,0.9423905772024677,10.100301975683697,0.0971195600085819,0.28,0,8,0.0
7.57245685099997,553,1004.39,-94.4,4.1,10.6,3.19,-9.92,-2.33,0.11,-0.85,-0.03,-95.2,0.5,6.0,-1.93,-0.02,-0.11,0.0,0.8576129663198895,10.677612092598233,0.17825922747333678,0.28,0,8,0.0
7.582570408000265,554,1004.4,-94.1,4.3,9.5,3.03,-10.67,-2.23,0.07,-0.81,0.0,-95.2,2.3,19.0,-1.93,-0.09,0.03,0.0,0.8130190649671138,11.313827822624843,0.21839606624959007,0.28,0,8,0.0
7.5927842860000965,555,1004.41,-93.9,4.4,8.4,2.54,-11.55,-2.09,0.05,-0.81,0.0,-95.1,7.4,58.0,-1.93,-0.32,0.0,0.0,0.8115417426109394,12.009254764555543,0.2154759208336493,0.28,0,8,0.0
7.60217656299983,556,1004.42,-93.7,4.5,7.2,2.08,-12.36,-2.03,0.03,-0.87,0.01,-95.0,19.0,96.0,-1.94,-0.64,-0.13,0.0,0.8705745229444749,12.69712172108309,0.1533142776901114,0.28,0,8,0.0
7.612921382999957,557,1004.43,-93.5,4.6,5.9,1.97,-13.22,-2.03,0.04,-0.94,0.0,-94.7,29.7,101.0,-1.95,-0.93,-0.14,0.0,0.940850678907126,13.519252937940026,0.08137735929291101,0.28,0,8,0.0
7.62226571500014,558,1004.44,-93.4,4.7,4.5,2.31,-13.87,-2.02,0.05,-0.97,-0.01,-94.4,40.9,105.0,-1.96,-1.22,-0.13,0.0,0.9713392816107047,14.20540038154504,0.04987098145754576,0.28,0,8,0.0
7.632915012000012,559,1004.45,-93.3,4.8,3.1,2.86,-14.36,-2.01,0.08,-1.01,-0.04,-93.9,49.6,81.0,-1.97,-1.42,0.01,0.0,1.0139526616169021,14.779353842438443,0.007112449422321365,0.28,0,8,0.0
7.642237775000012,560,1004.46,-93.1,5.0,1.6,3.35,-14.63,-2.07,0.11,-1.03,-0.08,-93.3,56.5,76.0,-1.99,-1.62,0.06,0.0,1.0389417693018217,15.150719454864182,0.017519125097346322,0.28,0,8,0.0
7.652903129000151,561,1004.47,-92.9,5.1,0.1,3.5,-14.71,-2.14,0.16,-0.99,-0.09,-92.7,63.3,62.0,-2.0,-1.77,0.06,0.0,1.0068763578513502,15.27133589441343,0.014255360626062696,0.28,0,8,0.0
7.662084690000029,562,1004.48,-92.7,5.3,-1.2,3.09,-14.69,-2.21,0.2,-0.95,-0.11,-92.1,66.0,30.0,-2.02,-1.8,0.08,0.0,0.9770363350459388,15.17327584933458,0.04321347576284462,0.28,0,8,0.0
7.672664887999872,563,1004.49,-92.6,5.4,-2.7,2.39,-14.52,-2.27,0.21,-0.9,-0.13,-91.4,65.9,6.0,-2.04,-1.77,0.01,0.0,0.9332738076256079,14.889439210393384,0.08523648311951215,0.28,0,8,0.0
7.682286329999897,564,1004.5,-92.5,5.6,-4.2,1.69,-14.3,-2.27,0.24,-0.87,-0.14,-90.8,63.5,-29.0,-2.06,-1.64,0.03,0.0,0.9132907532653552,14.57734543735587,0.10311514673016953,0.28,0,8,0.0
7.692854099000215,565,1004.51,-92.5,5.8,-5.6,1.1,-14.02,-2.24,0.26,-0.86,-0.18,-90.2,57.2,-59.0,-2.07,-1.44,0.15,0.0,0.9162968951164245,14.24036516385728,0.09810682478151822,0.28,0,8,0.0
7.702040393000061,566,1004.52,-92.6,5.9,-7.0,0.61,-13.77,-2.19,0.25,-0.87,-0.19,-89.7,47.1,-98.0,-2.08,-1.09,-0.17,0.0,0.9249324299644812,13.956399965607176,0.08768186413479229,0.28,0,8,0.0
7.712934896000206,567,1004.53,-92.7,6.1,-8.4,0.35,-13.66,-2.05,0.23,-0.87,-0.2,-89.3,31.5,-126.0,-2.09,-0.69,0.02,0.0,0.9218459741193211,13.817402071301247,0.08895295358035338,0.28,0,8,0.0
7.7221624700000575,568,1004.54,-92.8,6.2,-9.8,0.29,-13.63,-1.87,0.22,-0.89,-0.21,-89.1,18.6,-126.0,-2.1,-0.35,0.07,0.0,0.9405317644821998,13.760737625578072,0.06886181995312524,0.28,0,8,0.0
7.732705719000023,569,1004.55,-92.9,6.3,-11.2,0.49,-13.67,-1.68,0.2,-0.89,-0.22,-89.0,8.9,-83.0,-2.1,-0.2,0.01,0.0,0.9383496150156402,13.78156014390243,0.06962309003129119,0.28,0,8,0.0
7.7422801590000745,570,1004.56,-93.0,6.4,-12.5,0.81,-13.71,-1.38,0.23,-0.88,-0.23,-88.9,7.2,-37.0,-2.1,-0.17,0.05,0.0,0.9381897462667133,13.803064877048142,0.06838729960461376,0.28,0,8,0.0
7.7528121529999225,571,1004.57,-93.1,6.4,-13.9,1.14,-13.7,-1.23,0.26,-0.89,-0.24,-88.8,4.4,-32.0,-2.1,-0.09,0.01,0.0,0.9577577981932593,13.802264306989631,0.04784286272450633,0.28,0,8,0.0
7.762206053000227,572,1004.58,-93.1,6.5,-15.3,1.24,-13.61,-1.16,0.27,-0.88,-0.25,-88.8,0.8,-35.0,-2.1,0.02,-0.05,0.0,0.9538343671728337,13.715513114717945,0.05073096787003328,0.28,0,8,0.0
7.772896734999904,573,1004.59,-93.1,6.5,-16.7,1.27,-13.43,-1.05,0.29,-0.87,-0.25,-88.8,-0.3,-10.0,-2.1,0.0,0.01,0.0,0.9505261700763424,13.530716906357918,0.05295838166719402,0.28,0,8,0.0
7.782267892000164,574,1004.6,-93.1,6.5,-18.0,1.33,-13.2,-0.95,0.3,-0.87,-0.25,-88.8,0.2,-3.0,-2.1,0.0,-0.04,0.0,0.9536246641105713,13.300804486947396,0.04886268988030584,0.28,0,8,0.0
7.792812593000235,575,1004.61,-93.2,6.6,-19.3,1.47,-12.94,-0.82,0.31,-0.86,-0.25,-88.8,0.2,0.0,-2.1,-0.01,-0.02,0.0,0.9477341399358787,13.04901912022509,0.05365814977389838,0.28,0,8,0.0
7.802296605000265,576,1004.62,-93.2,6.6,-20.6,1.47,-12.69,-0.67,0.31,-0.85,-0.24,-88.8,0.4,-2.0,-2.1,0.0,-0.06,0.0,0.9360555539069249,12.792415721825177,0.06403000108679513,0.28,0,8,0.0
7.812955609000255,577,1004.63,-93.2,6.6,-21.9,1.24,-12.47,-0.52,0.32,-0.85,-0.24,-88.8,0.1,0.0,-2.1,0.0,-0.03,0.0,0.9394147114027968,12.542284480906979,0.05945742671910481,0.28,0,8,0.0
7.822311560999879,578,1004.64,-93.2,6.5,-23.1,0.95,-12.26,-0.36,0.31,-0.86,-0.23,-88.8,0.4,-1.0,-2.1,0.0,-0.01,0.0,0.9426558226627574,12.30202015930717,0.055091989149961273,0.28,0,8,0.0
7.832871899000111,579,1004.65,-93.3,6.5,-24.4,0.84,-12.15,-0.25,0.3,-0.88,-0.22,-88.8,0.4,1.0,-2.1,-0.01,0.16,0.0,0.9554056729996949,12.181568043564836,0.041495296036763274,0.28,0,8,0.0
7.842263751000246,580,1004.66,-93.3,6.4,-25.6,0.91,-12.15,-0.13,0.29,-0.9,-0.21,-88.8,1.2,1.0,-2.1,-0.02,-0.12,0.0,0.968607247546703,12.184724042833306,0.02772784705996012,0.28,0,8,0.0
7.852961504000177,581,1004.67,-93.3,6.4,-26.8,1.07,-12.18,-0.05,0.29,-0.93,-0.21,-88.8,0.7,-2.0,-2.1,-0.01,0.06,0.0,0.9965440281292142,12.227011082026547,0.00020475485210003086,0.28,0,8,0.0
7.8622837610000715,582,1004.68,-93.4,6.3,-28.0,1.26,-12.19,-0.03,0.28,-0.94,-0.22,-88.8,1.0,6.0,-2.1,-0.05,-0.11,0.0,1.005186549850325,12.254982660126451,0.008670331041746637,0.28,0,8,0.0
7.872894678000193,583,1004.69,-93.4,6.2,-29.3,1.37,-12.22,0.0,0.27,-0.94,-0.21,-88.8,2.5,12.0,-2.1,-0.08,0.19,0.0,1.000299955013495,12.296556428529087,0.00370806148081837,0.28,0,8,0.0
7.8822388130001855,584,1004.7,-93.4,6.2,-30.5,1.42,-12.29,0.08,0.27,-0.93,-0.21,-88.7,4.8,23.0,-2.11,-0.16,-0.1,0.0,0.9909086738948247,12.372020853522677,0.005569555245094837,0.28,0,8,0.0
7.892926786999851,585,1004.71,-93.3,6.1,-31.7,1.5,-12.38,0.12,0.27,-0.93,-0.21,-88.7,7.5,28.0,-2.11,-0.27,0.03,0.0,0.9909086738948247,12.471118634669466,0.005458164140192956,0.28,0,8,0.0
7.9022363990002304,586,1004.72,-93.3,6.0,-33.0,1.49,-12.44,0.18,0.28,-0.93,-0.22,-88.5,13.6,62.0,-2.11,-0.49,0.02,0.0,0.9958413528268447,12.53020750027708,0.0005149755040094739,0.28,0,8,0.0
7.912759864000236,587,1004.73,-93.3,5.9,-34.2,1.45,-12.45,0.26,0.29,-0.92,-0.23,-88.3,25.9,111.0,-2.12,-0.87,0.0,0.0,0.9916652661054536,12.53684968403147,0.004597240980892647,0.28,0,8,0.0
7.922204297999997,588,1004.74,-93.3,5.8,-35.5,1.5,-12.41,0.34,0.3,-0.93,-0.24,-88.0,38.4,115.0,-2.13,-1.19,-0.03,0.0,1.0062305898749055,12.504947021079298,0.00976872113278815,0.28,0,8,0.0
7.932855970000219,589,1004.75,-93.2,5.7,-36.7,1.66,-12.32,0.4,0.3,-0.92,-0.24,-87.5,48.9,104.0,-2.14,-1.44,0.05,0.0,0.9969954864491614,12.437765072552223,0.0005229453529030925,0.28,0,8,0.0
7.942222894000224,590,1004.76,-93.2,5.6,-37.9,1.76,-12.18,0.44,0.31,-0.92,-0.26,-87.0,56.0,72.0,-2.16,-1.57,0.01,0.0,1.0050373127401788,12.314365594702798,0.008393476211042139,0.28,0,8,0.0
7.952823483999964,591,1004.77,-93.1,5.4,-39.2,1.7,-12.02,0.46,0.33,-0.91,-0.28,-86.4,61.2,53.0,-2.18,-1.7,0.08,0.0,1.007670581092849,12.148333219005806,0.01080620967243806,0.28,0,8,0.0
7.962237825000102,592,1004.78,-93.1,5.3,-40.4,1.57,-11.8,0.45,0.35,-0.91,-0.3,-85.7,62.7,24.0,-2.19,-1.71,-0.1,0.0,1.0200980345045274,11.912489244486226,0.022768989822434138,0.28,0,8,0.0
7.972976651999943,593,1004.79,-93.0,5.2,-41.5,1.42,-11.52,0.43,0.35,-0.9,-0.31,-85.1,63.5,13.0,-2.21,-1.73,-0.06,0.0,1.0141991914806479,11.615149590082773,0.01653274386258352,0.28,0,8,0.0
7.982248726999842,594,1004.8,-93.0,5.1,-42.7,1.24,-11.24,0.42,0.34,-0.9,-0.31,-84.5,61.6,-21.0,-2.23,-1.61,0.09,0.0,1.0107917688624102,11.315988688576885,0.012862814819458945,0.28,0,8,0.0
7.992971552000199,595,1004.81,-93.0,5.0,-43.8,1.07,-10.95,0.39,0.34,-0.91,-0.31,-83.9,55.4,-51.0,-2.24,-1.42,0.11,0.0,1.0197058399362045,11.009064447081778,0.02134134817538813,0.28,0,8,0.0
8.002268555000228,596,1004.82,-93.0,4.9,-44.8,0.96,-10.69,0.36,0.33,-0.91,-0.31,-83.4,48.9,-67.0,-2.26,-1.22,0.1,0.0,1.0164152694642088,10.739054893238976,0.017689762149324606,0.28,0,8,0.0
8.012800630000129,597,1004.83,-93.0,4.8,-45.9,0.82,-10.47,0.33,0.33,-0.91,-0.3,-83.0,38.9,-100.0,-2.27,-0.89,0.15,0.0,1.0134100848126588,10.507245119440206,0.014390885947819121,0.28,0,8,0.0
8.022272321999935,598,1004.84,-93.0,4.8,-46.9,0.79,-10.33,0.27,0.32,-0.92,-0.29,-82.7,27.6,-102.0,-2.27,-0.61,0.1,0.0,1.0163168797181321,10.363681778209905,0.01695172723622662,0.28,0,8,0.0
8.032889565000005,599,1004.85,-93.0,4.7,-48.0,0.89,-10.25,0.2,0.31,-0.92,-0.29,-82.5,15.5,-125.0,-2.28,-0.24,0.12,0.0,1.0132127121192271,10.29051019143366,0.01357060844457525,0.28,0,8,0.0
8.042133196000123,600,1004.86,-93.0,4.6,-49.0,1.0,-10.24,0.16,0.3,-0.9,-0.29,-82.4,1.4,-125.0,-2.28,0.09,0.05,0.0,0.9920181449953422,10.289956268128645,0.007471479505723466,0.28,0,8,0.0
8.052743500999895,601,1004.87,-93.0,4.5,-50.0,1.04,-10.2,0.14,0.3,-0.89,-0.3,-82.5,-5.4,-66.0,-2.27,0.16,0.0,0.0,0.9859513172565875,10.253838305727275,0.01326754109958872,0.28,0,8,0.0
8.062295864000134,602,1004.88,-93.0,4.5,-51.0,1.09,-10.2,0.14,0.31,-0.88,-0.29,-82.5,-3.5,4.0,-2.27,0.03,0.05,0.0,0.9770363350459388,10.259030168588062,0.021738872844032642,0.28,0,8,0.0
8.072807370000191,603,1004.89,-92.9,4.4,-52.1,1.15,-10.22,0.13,0.32,-0.88,-0.3,-82.5,0.7,20.0,-2.27,-0.03,-0.05,0.0,0.9832598842625484,10.285319635286013,0.015205017154874545,0.28,0,8,0.0
8.082202598000094,604,1004.9,-92.9,4.3,-53.1,1.15,-10.25,0.1,0.33,-0.88,-0.3,-82.5,0.0,-9.0,-2.27,0.03,0.05,0.0,0.9865596788841514,10.314795199130229,0.01166711808260612,0.28,0,8,0.0
8.09276756700001,605,1004.91,-92.8,4.3,-54.1,1.13,-10.36,0.06,0.35,-0.88,-0.3,-82.5,-2.2,-11.0,-2.27,0.07,0.1,0.0,0.9934284070832683,10.421616957075326,0.004702422085819502,0.28,0,8,0.0
8.102278240000032,606,1004.92,-92.8,4.2,-55.2,1.08,-10.46,-0.04,0.37,-0.9,-0.3,-82.5,-2.8,-11.0,-2.27,0.09,0.15,0.0,1.018282868362225,10.515683525097169,0.019748998409274354,0.28,0,8,0.0
8.11291458300002,607,1004.93,-92.8,4.2,-56.2,1.1,-10.6,-0.31,0.37,-0.9,-0.3,-82.6,-6.2,-35.0,-2.27,0.24,0.06,0.0,1.018282868362225,10.661430485633717,0.01935401844108886,0.28,0,8,0.0
8.12220420199992,608,1004.94,-92.7,4.2,-57.3,1.16,-10.7,-0.64,0.36,-0.88,-0.31,-82.7,-12.1,-50.0,-2.27,0.39,0.06,0.0,1.0000499987500624,10.781706729456149,0.001098725852347826,0.28,0,8,0.0
8.132950659000016,609,1004.95,-92.7,4.2,-58.4,1.21,-10.75,-0.91,0.33,-0.81,-0.32,-82.9,-17.0,-57.0,-2.26,0.55,-0.25,0.0,0.9313431161500042,10.85609045651334,0.06625599361275614,0.28,0,8,0.0
8.142077838000205,610,1004.96,-92.7,4.3,-59.5,0.67,-10.71,-1.16,0.29,-0.82,-0.33,-83.1,-23.3,-56.0,-2.26,0.68,0.02,0.0,0.9302687783646185,10.793451718518966,0.065983724770179,0.28,0,8,0.0
8.152751811000144,611,1004.97,-92.8,4.4,-60.5,-0.77,-10.46,-1.82,0.24,-0.97,-0.27,-83.3,-22.7,14.0,-2.25,0.52,-0.01,0.0,1.0350845376103344,10.645041099028225,0.03805539378602607,0.28,0,8,0.0
8.16226616899985,612,1004.98,-93.1,4.6,-61.6,-3.05,-10.45,-3.05,0.21,-1.14,-0.12,-83.5,-14.3,65.0,-2.25,0.27,-0.08,0.0,1.165375475973302,11.305197919541257,0.16497940550601387,0.28,0,8,0.0
8.172838834000231,613,1004.99,-93.6,4.9,-62.7,-5.08,-10.92,-4.57,0.11,-1.23,-0.01,-83.6,-4.7,102.0,-2.25,-0.06,-0.09,0.0,1.2349493916756265,12.881680790952709,0.22986225478417155,0.28,0,8,0.0
8.182269442000234,614,1005.0,-93.6,4.9,-62.7,-5.08,-10.92,-4.57,0.11,-1.23,-0.01,-83.5,5.6,161.0,-2.25,-0.4,-0.01,0.0,1.2349493916756265,12.881680790952709,0.22526500968848806,0.28,0,8,0.0
8.192832442000054,615,1005.01,-94.3,5.3,-63.8,-7.06,-11.58,-5.84,0.02,-1.37,-0.03,-83.3,20.8,119.0,-2.25,-0.65,0.1,0.0,1.3704743704279916,14.766367190341706,0.35357418867203605,0.28,0,9,0.0
8.202105741000196,616,1005.02,-95.1,5.9,-65.1,-7.01,-12.02,-7.05,-0.1,-1.41,-0.07,-83.1,29.9,90.0,-2.26,-0.86,0.0,0.0,1.4152738250953416,15.598814057485267,0.3904061704725983,0.28,0,9,0.0
8.212638794000213,617,1005.03,-95.8,6.5,-66.4,-4.61,-12.69,-7.21,-0.11,-1.24,-0.14,-82.7,31.9,33.0,-2.27,-0.85,-0.04,0.0,1.252717047062105,15.305956356921968,0.22329240459057442,0.28,0,9,0.0
8.222238414999993,618,1005.04,-96.2,7.0,-67.8,-0.98,-13.61,-6.38,0.01,-1.13,-0.18,-82.4,26.4,-60.0,-2.28,-0.53,0.12,0.0,1.1442901729893513,15.06309729106202,0.11256821990746446,0.28,0,9,0.0
8.232755002999966,619,1005.05,-96.4,7.4,-69.3,1.15,-14.31,-5.31,0.15,-0.95,-0.25,-82.3,9.3,-150.0,-2.28,0.0,0.05,0.0,0.9937303457175894,15.306688080705113,0.03723177521701149,0.28,0,9,0.0
8.24228724600016,620,1005.06,-96.4,7.7,-70.8,2.3,-14.44,-4.03,0.33,-0.84,-0.31,-82.3,-5.5,-104.0,-2.28,0.19,0.04,0.0,0.9542536350467835,15.16721793869924,0.07517431617006098,0.28,0,9,0.0
8.252838489000169,621,1005.07,-96.4,7.9,-72.2,2.52,-13.77,-2.79,0.47,-0.79,-0.34,-82.4,-8.4,-58.0,-2.28,0.29,0.07,0.0,0.9801020355044673,14.274011349301919,0.04833939739812976,0.28,0,9,0.0
8.262227615000029,622,1005.08,-96.3,8.0,-73.6,2.03,-12.43,-1.59,0.51,-0.79,-0.31,-82.5,-12.8,-41.0,-2.27,0.37,-0.03,0.0,0.9901010049484851,12.694640601450676,0.03757361939502979,0.28,0,9,0.0
8.272748273000161,623,1005.09,-96.3,7.9,-74.7,1.25,-10.89,-0.55,0.46,-0.86,-0.26,-82.6,-13.2,-9.0,-2.27,0.34,0.01,0.0,1.0093562304756434,10.9752949846462,0.017952025990514153,0.28,0,9,0.0
8.282289792000029,624,1005.1,-96.4,7.9,-75.7,0.75,-9.39,0.06,0.35,-0.98,-0.18,-82.7,-7.4,59.0,-2.27,0.05,0.06,0.0,1.0560776486603625,9.42009554091677,0.028194004350320823,0.28,0,9,0.0
8.292887618999885,625,1005.11,-96.4,7.8,-76.6,0.35,-8.3,0.17,0.16,-1.16,-0.11,-82.8,0.3,43.0,-2.27,-0.01,-0.09,0.0,1.1761377470347596,8.309115476390975,0.14528902067022353,0.28,0,9,0.0
8.302330128999984,626,1005.12,-96.5,7.7,-77.4,0.41,-7.85,-0.24,-0.01,-1.23,-0.03,-82.8,-0.3,9.0,-2.27,0.0,0.06,0.0,1.2304064369142418,7.8643626569481135,0.19556655633871167,0.28,0,9,0.0
8.31264539499989,627,1005.13,-96.6,7.6,-78.2,0.1,-7.64,-0.33,-0.17,-1.2,0.06,-82.8,0.1,7.0,-2.27,0.0,-0.01,0.0,1.2134661099511597,7.647777454921135,0.17505370478811688,0.28,0,9,0.0
8.3223461030002,628,1005.14,-96.7,7.5,-79.0,0.06,-8.42,-0.1,-0.29,-1.23,0.16,-82.8,-0.2,-5.0,-2.27,0.03,0.05,0.0,1.2738131731144877,8.420807562223471,0.23069275259241606,0.28,0,9,0.0
8.332686177000141,629,1005.15,-96.8,7.4,-79.9,0.63,-9.6,0.27,-0.34,-1.24,0.09,-82.8,-1.1,-11.0,-2.27,0.07,-0.01,0.0,1.2889142717807107,9.6244376459095,0.24087797423346635,0.28,0,9,0.0
8.342300221000187,630,1005.16,-96.8,7.2,-80.9,1.79,-10.5,0.78,-0.28,-1.19,0.01,-82.8,-5.3,-41.0,-2.26,0.22,0.07,0.0,1.2225383429569805,10.680004681646913,0.1710120045015413,0.28,0,9,0.0
8.35299480399999,631,1005.17,-96.6,7.0,-82.0,2.96,-11.04,1.08,-0.18,-1.12,-0.07,-82.9,-17.0,-127.0,-2.26,0.71,-0.04,0.0,1.1365298060323803,11.480836206479038,0.08330339822540234,0.28,0,9,0.0
8.362235239000256,632,1005.18,-96.5,6.8,-83.1,3.26,-11.28,1.16,-0.11,-1.01,-0.1,-83.2,-38.5,-181.0,-2.25,1.3,0.12,0.0,1.0208819716304134,11.798796548801068,0.031697547453033215,0.28,0,9,0.0
8.372862912000073,633,1005.19,-96.3,6.5,-84.2,3.1,-11.31,1.21,-0.02,-0.9,-0.17,-83.8,-59.0,-199.0,-2.23,1.86,0.24,0.0,0.9161331780914825,11.78941050265025,0.13371741417212468,0.28,0,9,0.0
8.382292622000023,634,1005.2,-96.1,6.3,-85.3,2.01,-10.91,1.29,0.02,-0.85,-0.24,-84.5,-81.5,-224.0,-2.21,2.51,-0.06,0.0,0.8834591105421914,11.168361562915127,0.16306365208698748,0.28,0,9,0.0
8.392798459000005,635,1005.21,-96.1,6.0,-86.4,0.5,-10.29,1.45,0.07,-0.85,-0.28,-85.5,-101.7,-190.0,-2.18,2.96,-0.1,0.0,0.8976636341080104,10.403682040508542,0.145881945950745,0.28,0,9,0.0
8.402226967999923,636,1005.22,-96.2,5.8,-87.3,-0.5,-9.68,1.71,0.1,-0.91,-0.27,-86.6,-116.4,-153.0,-2.15,3.31,0.21,0.0,0.9544631999192007,9.842586042295999,0.08730073253676351,0.28,0,9,0.0
8.412926032000087,637,1005.23,-96.4,5.5,-88.3,-0.51,-9.25,1.81,0.1,-1.02,-0.26,-87.8,-127.1,-105.0,-2.11,3.53,0.1,0.0,1.0573551910309043,9.439210772093183,0.015279433403441178,0.28,0,9,0.0
