host_time_s,seq,device_time_s,roll,pitch,yaw,gyro_x,gyro_y,gyro_z,accel_x,accel_y,accel_z,belt_length,belt_velocity,belt_acceleration,motor_pos,motor_vel,motor_iq_meas,motor_iq_set,acc_mag,gyro_mag,acc_residual,threshold,heel_strike,hs_count,torque_cmd_nm
2.0652786270002252,1,280.09,98.0,4.0,-26.8,-1.99,-1.08,1.22,0.15,0.92,-0.18,-91.8,-62.7,179.0,-2.01,1.28,0.07,0.0,0.9493682109698007,2.5719447894540814,0.0,0.35,0,0,0.0
2.0749366310010373,2,280.1,97.8,4.1,-26.6,-2.08,-1.01,1.11,0.15,0.92,-0.18,-92.4,-42.6,129.0,-2.0,1.09,0.23,0.0,0.9493682109698007,2.5648781647477916,0.0,0.35,0,0,0.0
2.0828825460012013,3,280.11,97.6,4.2,-26.5,-2.17,-0.93,1.04,0.15,0.93,-0.18,-92.8,-37.3,85.0,-1.99,0.92,-0.02,0.0,0.9590620417887469,2.57980619427119,0.009499954202567218,0.35,0,0,0.0
2.090706665001562,4,280.12,97.4,4.3,-26.4,-2.26,-0.87,1.0,0.14,0.92,-0.18,-93.1,-28.7,89.0,-1.98,0.66,0.07,0.0,0.9478396488858228,2.6200190838999626,0.0016879899263496645,0.35,0,0,0.0
2.1025856630003545,5,280.13,97.2,4.4,-26.3,-2.31,-0.82,0.89,0.14,0.9,-0.19,-93.4,-21.0,82.0,-1.98,0.46,0.0,0.0,0.9304300081145277,2.6077960042917465,0.0187156780836919,0.35,0,0,0.0
2.1109136630002467,6,280.14,97.0,4.5,-26.2,-2.34,-0.75,0.78,0.14,0.89,-0.21,-93.5,-13.6,68.0,-1.97,0.3,0.02,0.0,0.9250945897582582,2.5780806814372585,0.02357007451116222,0.35,0,0,0.0
2.122238059000665,7,280.15,96.8,4.5,-26.2,-2.42,-0.67,0.68,0.14,0.87,-0.22,-93.6,-5.4,81.0,-1.97,0.03,0.0,0.0,0.9082400563727632,2.601480347801997,0.039616115738724145,0.35,0,0,0.0
2.1309407010012364,8,280.16,96.5,4.6,-26.1,-2.47,-0.52,0.56,0.14,0.86,-0.23,-93.6,0.9,49.0,-1.97,-0.03,0.05,0.0,0.9011659114724657,2.5855173563524962,0.04575645542624118,0.35,0,0,0.0
2.142299084000115,9,280.17,96.3,4.6,-26.1,-2.42,-0.4,0.39,0.14,0.84,-0.23,-93.6,-0.4,4.0,-1.97,0.02,0.05,0.0,0.8820997676000146,2.483646512690564,0.06352614731271844,0.35,0,0,0.0
2.1507669480015466,10,280.18,96.0,4.7,-26.0,-2.31,-0.28,0.21,0.14,0.84,-0.24,-93.6,-0.8,-2.0,-1.97,0.04,0.05,0.0,0.8847598544237865,2.3363646975590093,0.059648739279167695,0.35,0,0,0.0
2.1622950230012066,11,280.19,95.8,4.7,-26.0,-2.14,-0.14,0.05,0.14,0.85,-0.25,-93.6,-2.4,-12.0,-1.97,0.08,0.11,0.0,0.8969949832635631,2.1451573368869705,0.04646533823060328,0.35,0,0,0.0
2.170870070000092,12,280.2,95.6,4.7,-26.0,-2.03,0.0,-0.11,0.13,0.86,-0.25,-93.7,-5.4,-33.0,-1.97,0.22,0.2,0.0,0.9049861877399014,2.0329781110479272,0.03770465107917975,0.35,0,0,0.0
2.182161911001458,13,280.21,95.4,4.6,-26.0,-1.9,0.09,-0.29,0.14,0.85,-0.25,-93.8,-11.5,-54.0,-1.97,0.39,-0.02,0.0,0.8969949832635631,1.9241101839551704,0.0447819384444077,0.35,0,0,0.0
2.1907393260007666,14,280.22,95.2,4.6,-26.0,-1.76,0.28,-0.5,0.14,0.83,-0.26,-93.9,-21.5,-99.0,-1.96,0.74,-0.01,0.0,0.8809653795694811,1.8509457042279764,0.05959531129571993,0.35,0,0,0.0
2.202262517001145,15,280.23,95.1,4.6,-26.1,-1.41,0.43,-0.68,0.15,0.82,-0.24,-94.2,-31.7,-91.0,-1.95,0.97,0.03,0.0,0.8674675786448736,1.6233915116200404,0.07163124997592085,0.35,0,0,0.0
2.2109570390002773,16,280.24,94.9,4.5,-26.1,-0.89,0.52,-0.73,0.14,0.82,-0.21,-94.6,-40.3,-93.0,-1.94,1.22,0.02,0.0,0.8579627031520658,1.2630914456206248,0.07951340295935405,0.35,0,0,0.0
2.2221305960010795,17,280.25,94.9,4.4,-26.2,-0.44,0.49,-0.71,0.13,0.83,-0.18,-95.1,-52.7,-121.0,-1.92,1.6,0.1,0.0,0.8591856609604236,0.9684007434941384,0.07672463624797632,0.35,0,0,0.0
2.230907108001702,18,280.26,94.9,4.4,-26.2,0.03,0.42,-0.6,0.11,0.85,-0.15,-95.7,-66.1,-121.0,-1.91,1.93,-0.02,0.0,0.8701149349367587,0.733007503372237,0.06447945502620833,0.35,0,0,0.0
2.2422812760014494,19,280.27,94.9,4.3,-26.3,0.42,0.27,-0.45,0.09,0.86,-0.13,-96.5,-76.6,-111.0,-1.88,2.22,0.12,0.0,0.874414089547967,0.6721606950722424,0.05897669440670006,0.35,0,0,0.0
2.250814872000774,20,280.28,95.0,4.3,-26.3,0.69,0.07,-0.34,0.08,0.88,-0.12,-97.3,-87.4,-104.0,-1.86,2.5,0.11,0.0,0.8917398723843181,0.7723988606931006,0.040817893338941924,0.35,0,0,0.0
2.262302390001423,21,280.29,95.1,4.3,-26.3,0.8,-0.09,-0.26,0.07,0.89,-0.14,-98.2,-97.4,-98.0,-1.83,2.75,0.06,0.0,0.9036592278065886,0.8459905436823748,0.028320567158337973,0.35,0,0,0.0
2.270866738001132,22,280.3,95.3,4.3,-26.3,0.83,-0.2,-0.26,0.08,0.91,-0.18,-99.3,-105.3,-78.0,-1.8,2.93,-0.09,0.0,0.931074647920348,0.892468486838611,0.0008870441036870069,0.35,0,0,0.0
2.282224190001216,23,280.31,95.4,4.2,-26.2,0.84,-0.14,-0.27,0.09,0.93,-0.22,-100.4,-111.6,-68.0,-1.77,3.11,-0.07,0.0,0.9598958276813168,0.8933644273195569,0.027375452944136125,0.35,0,0,0.0
2.2907248300016363,24,280.32,95.5,4.2,-26.2,0.77,0.01,-0.33,0.11,0.92,-0.28,-101.5,-115.6,-42.0,-1.74,3.17,-0.03,0.0,0.9679359482941008,0.8377947242612596,0.03470726208578179,0.35,0,0,0.0
2.30226197400043,25,280.33,95.5,4.2,-26.3,0.77,0.39,-0.46,0.16,0.93,-0.33,-102.7,-117.4,-24.0,-1.71,3.21,-0.08,0.0,0.999699954986495,0.9780593029055038,0.06514184340261242,0.35,0,0,0.0
2.310874718001287,26,280.34,95.6,4.1,-26.3,1.03,0.91,-0.48,0.19,0.96,-0.34,-103.9,-118.5,-9.0,-1.68,3.21,0.1,0.0,1.0360019305001318,1.4558159224297555,0.09941494253792427,0.35,0,0,0.0
2.322223870000016,27,280.35,95.7,4.1,-26.5,1.43,1.45,-0.35,0.21,1.0,-0.29,-105.1,-119.0,-8.0,-1.65,3.24,-0.18,0.0,1.0621675950620977,2.066373635139589,0.12306899495789236,0.35,0,0,0.0
2.3308977610013244,28,280.36,95.9,4.1,-26.6,1.73,1.83,-0.03,0.18,1.0,-0.24,-106.3,-119.6,-5.0,-1.61,3.25,0.0,0.0,1.044030650891055,2.518471758825181,0.10283340977111277,0.35,0,0,0.0
2.3421641850000015,29,280.37,96.1,4.1,-26.8,2.15,1.88,0.22,0.18,0.99,-0.23,-107.5,-120.0,-4.0,-1.58,3.27,0.16,0.0,1.0321821544669332,2.864489483311119,0.08916521508005104,0.35,0,0,0.0
2.3508062480013905,30,280.38,96.3,4.2,-27.0,2.57,2.05,0.44,0.16,1.02,-0.24,-108.7,-120.3,3.0,-1.55,3.24,-0.2,0.0,1.06,3.316775542601579,0.11464339940085555,0.35,0,0,0.0
2.3623322600014944,31,280.39,96.5,4.3,-27.2,2.79,2.21,0.64,0.15,1.08,-0.18,-109.8,-117.8,17.0,-1.52,3.18,-0.15,0.0,1.1051244273836318,3.616324100519753,0.1565724702487976,0.35,0,0,0.0
2.370825492000222,32,280.4,96.8,4.4,-27.4,3.07,2.3,1.09,0.14,1.27,-0.09,-111.0,-116.2,11.0,-1.48,3.15,0.06,0.0,1.2808590867070428,3.9878565671297657,0.3256609869807645,0.35,0,0,0.0
2.3822943810009747,33,280.41,97.1,4.6,-27.6,3.28,2.06,1.89,0.1,1.44,-0.01,-112.2,-113.7,27.0,-1.45,3.05,-0.04,0.0,1.4435026844450272,4.309767975193096,0.4785384930243739,0.35,1,1,3.0
2.390805168000952,34,280.42,97.4,4.9,-27.8,3.14,1.61,2.74,0.03,1.52,0.0,-113.3,-110.4,30.0,-1.42,2.96,-0.02,0.0,1.5202960238058902,4.467583239291687,0.5442251957375323,0.35,0,1,3.0
2.402215932001127,35,280.43,97.6,5.2,-27.9,2.24,1.08,3.25,-0.03,1.49,0.0,-114.3,-91.2,409.0,-1.4,1.12,2.92,3.49,1.4903019828209316,4.092248770541693,0.5039465316575221,0.35,0,1,3.0
2.410883148000721,36,280.44,97.8,5.5,-27.9,0.63,0.44,3.23,-0.02,1.36,0.0,-114.3,51.8,1186.0,-1.42,-3.3,3.08,3.49,1.3601470508735445,3.3201505989939673,0.36631576771593233,0.35,0,1,3.0
2.4222995120017004,37,280.45,97.8,5.8,-27.9,-0.8,0.14,2.83,0.04,1.16,-0.06,-112.7,195.6,1255.0,-1.48,-6.75,3.05,3.49,1.162239218061411,2.9442316484950704,0.16503977620572285,0.35,0,1,3.0
2.4309346879999794,38,280.46,97.6,6.0,-27.9,-1.03,0.26,2.02,0.14,0.98,-0.1,-110.0,303.7,1080.0,-1.57,-9.39,3.36,3.49,0.9949874371066199,2.2823014700078517,0.0021677646540868567,0.35,0,1,3.0
2.4421476630013785,39,280.47,97.5,6.2,-27.9,-0.43,0.64,1.1,0.26,0.92,-0.12,-106.4,390.2,870.0,-1.68,-11.45,3.59,3.49,0.9635351576356723,1.3433167906342867,0.03294764324253374,0.35,0,1,3.0
2.4507826160006516,40,280.48,97.5,6.3,-28.0,0.17,1.26,0.28,0.37,0.94,-0.13,-102.1,444.2,602.0,-1.8,-12.62,3.48,3.49,1.0185283501208986,1.3018832512940628,0.02160463825783865,0.35,0,1,3.0
2.462261530001342,41,280.49,97.5,6.3,-28.2,0.58,1.91,-0.38,0.46,0.97,-0.12,-97.3,485.6,427.0,-1.93,-13.49,3.52,3.49,1.0802314566795395,2.0319694879598953,0.08164158992014992,0.35,0,1,3.0
2.470807315001366,42,280.5,97.6,6.3,-28.4,0.6,2.61,-0.85,0.48,1.0,-0.13,-92.4,498.1,204.0,-2.07,-13.71,3.76,3.49,1.1168258592994702,2.809733083408458,0.11587127268927899,0.35,0,1,3.0
2.4823068950008746,43,280.51,97.6,6.2,-28.7,0.49,3.43,-1.11,0.44,1.01,-0.13,-87.3,504.2,50.0,-2.2,-13.57,3.27,3.49,1.1093241185514717,3.638282561868993,0.10620214130245498,0.35,0,1,3.0
2.490784118001102,44,280.52,97.6,6.2,-29.1,0.43,4.23,-1.19,0.35,1.0,-0.09,-82.9,489.1,-99.0,-2.34,-13.02,3.5,3.49,1.063296760081587,4.415189690149225,0.05897128717591893,0.35,0,1,3.0
2.5023030880001897,45,280.53,97.6,6.1,-29.6,0.44,4.96,-1.16,0.26,0.98,-0.04,-77.6,468.5,-159.0,-2.46,-12.51,3.99,3.49,1.0146920715172658,5.112807447968288,0.010159266639365727,0.35,0,1,3.0
2.5108699750016967,46,280.54,97.6,6.1,-30.1,0.41,5.56,-1.09,0.17,0.96,0.0,-73.1,450.0,-150.0,-2.58,-12.13,3.78,3.49,0.9749358953285082,5.680651371101733,0.029004971358404075,0.35,0,1,3.0
2.5222493250003026,47,280.55,97.6,6.0,-30.7,0.29,6.02,-0.9,0.1,0.94,0.03,-68.6,441.4,-127.0,-2.7,-11.78,3.39,3.49,0.9457801012920498,6.093808333054134,0.056997550086965165,0.35,0,1,3.0
2.5308910160001687,48,280.56,97.5,6.0,-31.4,0.1,6.28,-0.66,0.02,0.9,0.08,-64.3,434.1,-37.0,-2.82,-11.88,3.89,3.49,0.9037698822156003,6.315378056775382,0.09702761378014635,0.35,0,1,3.0
2.542199242001516,49,280.57,97.4,6.1,-32.0,0.0,6.39,-0.43,-0.02,0.86,0.11,-59.9,442.3,34.0,-2.94,-12.06,3.74,3.49,0.8672369918309527,6.404451576833101,0.13088929408149808,0.35,0,1,3.0
2.5509119710004597,50,280.58,97.4,6.1,-32.6,0.11,6.4,-0.24,-0.04,0.82,0.11,-55.4,449.4,114.0,-3.07,-12.55,3.63,3.49,0.8283115355951527,6.40544299795104,0.16641845531095212,0.35,0,1,3.0
2.562275859001602,51,280.59,97.3,6.2,-33.3,0.39,6.23,-0.1,-0.05,0.8,0.12,-50.8,474.3,175.0,-3.2,-13.09,3.18,3.49,0.8104936767180853,6.242996075603444,0.18055158790425918,0.35,0,1,3.0
2.5708136110006308,52,280.6,97.3,6.3,-33.9,0.84,5.95,-0.01,-0.05,0.81,0.11,-45.9,489.6,167.0,-3.33,-13.53,3.91,3.49,0.8189627586160436,6.009009901805788,0.16864085588617483,0.35,0,1,0.0
2.582380826001099,53,280.61,97.4,6.3,-34.5,1.03,5.53,0.08,-0.05,0.84,0.08,-40.9,508.9,187.0,-3.47,-14.09,3.73,3.49,0.8452810183601663,5.62567329303791,0.13947614421921106,0.35,0,1,0.0
2.590893088001394,54,280.62,97.4,6.4,-35.0,1.05,5.18,0.11,-0.04,0.87,0.03,-35.8,496.4,-373.0,-3.6,-12.07,0.53,0.0,0.8714355971613738,5.286492220745245,0.11105513410964363,0.35,0,1,0.0
2.602249405001203,55,280.63,97.5,6.5,-35.5,0.86,4.82,0.04,-0.02,0.9,0.02,-31.7,364.4,-1040.0,-3.69,-8.26,0.51,0.0,0.9004443347592342,4.896284305470833,0.08040546858154751,0.35,0,1,0.0
2.6107616600002075,56,280.64,97.5,6.5,-35.9,1.16,4.29,-0.22,0.02,0.91,0.03,-28.9,243.4,-1055.0,-3.76,-5.43,0.24,0.0,0.9107140056021978,4.449505590512277,0.06873308178381221,0.35,0,1,0.0
2.622228146999987,57,280.65,97.6,6.6,-36.3,1.62,3.85,-0.52,0.05,0.96,-0.02,-27.1,156.8,-871.0,-3.8,-3.37,0.25,0.0,0.9615092303249095,4.209192321574295,0.017579099919878494,0.35,0,1,0.0
2.6308892220004054,58,280.66,97.7,6.5,-36.7,1.68,3.69,-0.73,0.03,1.02,-0.07,-26.0,93.3,-656.0,-3.82,-1.95,0.05,0.0,1.022839185796086,4.119635906242201,0.042875838440271874,0.35,0,1,0.0
2.6421644060010294,59,280.67,97.8,6.5,-37.1,1.59,3.56,-0.87,0.0,1.03,-0.07,-25.4,51.7,-455.0,-3.83,-1.03,-0.07,0.0,1.0323759005323594,3.994821648083929,0.05136430211301446,0.35,0,1,0.0
2.6508307800013426,60,280.68,97.9,6.4,-37.5,1.44,3.32,-0.93,-0.02,1.03,-0.08,-25.1,25.5,-295.0,-3.84,-0.48,-0.21,0.0,1.0332956982393762,3.7364287762514623,0.05123841782363059,0.35,0,1,0.0
2.6621771510017425,61,280.69,98.0,6.4,-37.8,1.31,3.13,-0.97,-0.02,1.03,-0.1,-24.9,11.9,-198.0,-3.84,-0.11,0.02,0.0,1.0350362312499017,3.529008359298685,0.05191937181747308,0.35,0,1,0.0
2.670840913000575,62,280.7,98.1,6.3,-38.1,1.24,2.94,-1.01,-0.02,1.04,-0.11,-24.9,0.4,-109.0,-3.84,0.04,0.0,0.0,1.0459923517884824,3.3468343251496626,0.06161798250893269,0.35,0,1,0.0
2.6825723570000264,63,280.71,98.2,6.3,-38.4,1.05,2.78,-1.08,0.0,1.06,-0.12,-24.9,0.3,-19.0,-3.84,-0.05,-0.02,0.0,1.066770828247567,3.1618507238641103,0.08074852978865699,0.35,0,1,0.0
2.690761185000156,64,280.72,98.2,6.1,-38.7,0.8,2.69,-1.1,0.01,1.07,-0.13,-24.9,6.0,42.0,-3.84,-0.26,0.07,0.0,1.0779146533933008,3.014315842774277,0.09005450783570301,0.35,0,1,0.0
2.7022795800003223,65,280.73,98.3,6.0,-39.0,0.62,2.64,-1.08,0.02,1.06,-0.13,-24.7,16.7,93.0,-3.85,-0.61,0.0,0.0,1.068129205667554,2.9189724219320743,0.07866367890775705,0.35,0,1,0.0
2.710862197000097,66,280.74,98.3,5.9,-39.3,0.52,2.53,-1.05,0.02,1.03,-0.12,-24.5,32.8,147.0,-3.86,-1.09,-0.06,0.0,1.0371595827065379,2.788153510838311,0.046740174827806125,0.35,0,1,0.0
2.7222517380014324,67,280.75,98.3,5.8,-39.5,0.4,2.35,-1.02,0.01,1.01,-0.12,-24.0,49.3,159.0,-3.87,-1.54,0.08,0.0,1.017152889196113,2.5928555686732726,0.026198811691033663,0.35,0,1,0.0
2.730897242001447,68,280.76,98.3,5.7,-39.8,0.33,2.15,-0.99,0.01,1.0,-0.1,-23.4,68.3,188.0,-3.89,-2.12,-0.13,0.0,1.0050373127401788,2.3898744736910347,0.013801570530397433,0.35,0,1,0.0
2.7421920800006774,69,280.77,98.3,5.6,-40.0,0.35,1.95,-0.97,-0.01,0.99,-0.1,-22.6,89.0,203.0,-3.92,-2.68,0.05,0.0,0.9950879358127099,2.2058785098005735,0.003775149730870009,0.35,0,1,0.0
2.7549200800003746,70,280.78,98.3,5.5,-40.2,0.4,1.69,-0.95,-0.03,0.99,-0.09,-21.5,108.8,184.0,-3.95,-3.15,-0.09,0.0,0.9945350672550466,1.9795454023588344,0.0031578355497425825,0.35,0,1,0.0
2.762826058000428,71,280.79,98.3,5.4,-40.3,0.39,1.45,-0.95,-0.05,0.99,-0.1,-20.3,126.4,185.0,-3.98,-3.66,0.01,0.0,0.9962931295557548,1.7768230075052496,0.004817579893441781,0.35,0,1,0.0
2.770934111000315,72,280.8,98.4,5.4,-40.5,0.26,1.16,-0.97,-0.07,0.98,-0.09,-18.9,145.2,181.0,-4.02,-4.15,-0.09,0.0,0.986610358753647,1.5343076614551594,0.004767887090492695,0.35,0,1,0.0
2.7822359000001597,73,280.81,98.4,5.3,-40.6,-0.02,0.91,-0.94,-0.07,1.0,-0.1,-17.3,162.7,176.0,-4.07,-4.63,-0.11,0.0,1.007422453591342,1.3084723917607126,0.015723323592258365,0.35,0,1,0.0
2.7906437140009075,74,280.82,98.3,5.2,-40.7,-0.32,0.72,-0.93,-0.05,0.97,-0.12,-15.6,177.5,145.0,-4.11,-4.97,0.02,0.0,0.9786725703727472,1.2188929403356146,0.012766028433809695,0.35,0,1,0.0
2.802232696001738,75,280.83,98.3,5.1,-40.8,-0.47,0.65,-0.89,-0.03,0.96,-0.14,-13.8,184.4,62.0,-4.16,-4.99,-0.14,0.0,0.9706183596038146,1.1981235328629516,0.02040383441868754,0.35,0,1,0.0
2.8107387570016726,76,280.84,98.2,5.0,-40.9,-0.63,0.65,-0.84,-0.02,0.92,-0.14,-12.0,180.0,-33.0,-4.21,-4.76,0.17,0.0,0.9308061022576076,1.2349089035228469,0.05901176992959667,0.35,0,1,0.0
2.822170654000729,77,280.85,98.2,4.8,-40.9,-0.63,0.55,-0.79,-0.01,0.92,-0.14,-10.3,163.1,-149.0,-4.26,-4.15,-0.06,0.0,0.9306449376641985,1.1504347004502256,0.057989475832545656,0.35,0,1,0.0
2.8307772210009716,78,280.86,98.1,4.7,-41.0,-0.64,0.49,-0.68,0.0,0.92,-0.15,-8.8,135.4,-263.0,-4.29,-3.25,0.21,0.0,0.932148056909416,1.0545615202537972,0.05535662945558162,0.35,0,1,0.0
2.842281275001369,79,280.87,98.0,4.6,-41.0,-0.71,0.35,-0.52,0.0,0.92,-0.17,-7.7,96.7,-362.0,-4.32,-2.11,0.2,0.0,0.9355746896961248,0.9471008394041259,0.050891396735495475,0.35,0,1,0.0
2.8508760740005528,80,280.88,98.0,4.5,-41.1,-0.81,0.23,-0.43,0.02,0.92,-0.18,-7.1,51.4,-434.0,-4.33,-0.8,0.02,0.0,0.9376566535784834,0.9454628496138809,0.047833244196074154,0.35,0,1,0.0
2.862066883000807,81,280.89,97.9,4.5,-41.1,-0.87,0.13,-0.36,0.04,0.93,-0.18,-6.9,2.5,-440.0,-4.33,0.38,0.2,0.0,0.9481033698917013,0.9504735661763561,0.036638797325199146,0.35,0,1,0.0
2.8707793610010413,82,280.9,97.9,4.4,-41.1,-0.95,0.1,-0.28,0.04,0.93,-0.19,-7.1,-21.1,-239.0,-4.32,0.69,0.03,0.0,0.9500526301210898,0.9954396013822235,0.03399574635389446,0.35,0,1,0.0
2.882301682000616,83,280.91,97.8,4.4,-41.1,-1.04,0.09,-0.16,0.03,0.94,-0.19,-7.3,-33.3,-169.0,-4.31,1.06,0.03,0.0,0.9594790253048786,1.0560776486603625,0.02407796414670349,0.35,0,1,0.0
2.890704982000898,84,280.92,97.7,4.3,-41.1,-1.07,0.03,-0.01,0.02,0.93,-0.18,-7.8,-47.3,-159.0,-4.3,1.49,0.16,0.0,0.9474703161577148,1.070467187726929,0.03536493982798994,0.35,0,1,0.0
2.9023453470017557,85,280.93,97.7,4.3,-41.1,-1.04,-0.07,0.14,0.01,0.92,-0.17,-8.4,-66.2,-191.0,-4.28,2.06,0.16,0.0,0.9356281312572854,1.0517128885774862,0.04626298223385095,0.35,0,1,0.0
2.910690374001206,86,280.94,97.6,4.3,-41.1,-0.93,-0.18,0.23,0.02,0.92,-0.17,-9.2,-88.5,-213.0,-4.26,2.68,0.02,0.0,0.9357884376289334,0.9747820269167873,0.0451806223449589,0.35,0,1,0.0
2.9222815100001753,87,280.95,97.5,4.3,-41.1,-0.87,-0.22,0.32,0.01,0.92,-0.18,-10.2,-112.1,-230.0,-4.22,3.34,-0.02,0.0,0.9374966666607407,0.952732911156112,0.042602945446888474,0.35,0,1,0.0
2.9309430780012917,88,280.96,97.5,4.3,-41.0,-0.87,-0.26,0.39,0.01,0.92,-0.18,-11.5,-138.1,-260.0,-4.19,4.1,-0.21,0.0,0.9374966666607407,0.9882307422864358,0.04175088653795067,0.35,0,1,0.0
2.9422137220008153,89,280.97,97.4,4.3,-41.0,-0.85,-0.24,0.44,0.01,0.92,-0.2,-13.1,-166.9,-281.0,-4.14,4.9,0.22,0.0,0.941541289588513,0.9867623827447011,0.03695213833797484,0.35,0,1,0.0
2.950771227000587,90,280.98,97.4,4.4,-41.0,-0.85,-0.24,0.52,0.0,0.93,-0.21,-15.0,-197.7,-300.0,-4.08,5.73,0.2,0.0,0.9534149149242422,1.0249390225764652,0.02457694274220068,0.35,0,1,0.0
2.962297258000035,91,280.99,97.3,4.4,-40.9,-0.82,-0.29,0.63,0.0,0.94,-0.22,-17.2,-225.2,-266.0,-4.02,6.41,0.3,0.0,0.9654014708917735,1.0739646176667088,0.012338579039176012,0.35,0,1,0.0
2.9707316780004476,92,281.0,97.2,4.5,-40.9,-0.72,-0.38,0.74,0.0,0.94,-0.21,-18.5,-238.2,-300.0,-3.95,7.04,0.11,0.0,0.96317184344228,1.1001818031580053,0.014276842358896147,0.35,0,1,0.0
2.982164027000181,93,281.01,97.1,4.6,-40.8,-0.58,-0.52,0.85,0.0,0.94,-0.2,-22.3,-273.3,-303.0,-3.88,7.75,0.22,0.0,0.9610411021387171,1.152952731034538,0.016079431989209914,0.35,0,1,0.0
2.990724361001412,94,281.02,97.1,4.6,-40.8,-0.45,-0.7,0.95,0.0,0.93,-0.19,-25.1,-296.0,-231.0,-3.8,8.24,-0.02,0.0,0.9492101980067429,1.2629330940315087,0.027352129398760416,0.35,0,1,0.0
3.0023609090003447,95,281.03,97.1,4.7,-40.7,-0.3,-0.9,1.0,-0.01,0.92,-0.19,-28.2,-308.8,-145.0,-3.71,8.51,0.05,0.0,0.9394679345246436,1.378404875209022,0.0363525050232425,0.35,0,1,0.0
3.0109011690001353,96,281.04,97.0,4.8,-40.6,-0.15,-1.14,1.04,-0.01,0.91,-0.19,-31.4,-318.8,-116.0,-3.62,8.78,-0.08,0.0,0.9296773633901172,1.5503870484495152,0.045220214634613565,0.35,0,1,0.0
3.022190565001438,97,281.05,97.1,4.9,-40.4,0.06,-1.44,1.07,-0.02,0.9,-0.2,-34.6,-325.4,-60.0,-3.54,8.85,0.15,0.0,0.9221713506718803,1.7950208912433303,0.051671702805793474,0.35,0,1,0.0
3.030923619000532,98,281.06,97.1,5.0,-40.2,0.33,-1.7,1.01,-0.01,0.89,-0.21,-37.8,-321.9,18.0,-3.45,8.67,-0.04,0.0,0.9144943958275523,2.0047443727318455,0.058161684497119004,0.35,0,1,0.0
3.042231197001456,99,281.07,97.2,5.1,-40.0,0.52,-1.85,0.87,0.0,0.9,-0.25,-40.7,-316.4,44.0,-3.36,8.46,0.05,0.0,0.9340770846134703,2.1094549058939376,0.037807415796976995,0.35,0,1,0.0
3.0508031850004045,100,281.08,97.2,5.1,-39.9,0.58,-1.83,0.66,0.01,0.92,-0.29,-44.1,-305.1,99.0,-3.28,8.14,-0.12,0.0,0.9646761114488116,2.0300000000000002,0.007064221182402908,0.35,0,1,0.0
3.0622789100016234,101,281.09,97.3,5.2,-39.7,0.63,-1.79,0.46,0.02,0.94,-0.29,-47.1,-290.8,136.0,-3.2,7.71,0.01,0.0,0.9839207285142436,1.952588026184735,0.011936787965368567,0.35,0,1,0.0
3.0707295990014245,102,281.1,97.4,5.2,-39.5,0.73,-1.78,0.27,0.0,0.94,-0.29,-49.9,-274.6,160.0,-3.13,7.22,0.02,0.0,0.983717439105356,1.9427300378590948,0.01149882858535134,0.35,0,1,0.0
3.082273914000325,103,281.11,97.5,5.2,-39.3,0.82,-1.76,0.07,0.0,0.96,-0.25,-52.5,-253.4,207.0,-3.06,6.59,-0.22,0.0,0.9920181449953422,1.942910188351484,0.019403543785830757,0.35,0,1,0.0
3.09067307100122,104,281.12,97.6,5.1,-39.1,1.02,-1.92,-0.35,0.05,0.99,-0.2,-54.8,-227.8,247.0,-3.0,5.86,0.05,0.0,1.011236866416568,2.202112622006422,0.03784981990291547,0.35,0,1,0.0
3.102236462000292,105,281.13,97.8,5.0,-38.9,1.33,-1.82,-1.16,0.15,1.05,-0.23,-56.9,-201.3,254.0,-2.95,5.17,-0.16,0.0,1.08531101533155,2.5351331325987596,0.10968548944153944,0.35,0,1,0.0
3.1106945060000726,106,281.14,97.9,4.8,-38.8,1.49,-1.23,-2.21,0.25,1.11,-0.28,-58.8,-176.5,255.0,-2.9,4.46,-0.46,0.0,1.1717508267545622,2.9354897376758107,0.19220279484726066,0.35,0,1,0.0
3.122210579000239,107,281.15,98.1,4.5,-38.8,1.37,-0.54,-3.45,0.29,1.19,-0.23,-60.3,-148.0,289.0,-2.86,3.63,-0.4,0.0,1.2462343278854102,3.751133162125813,0.2613525700585465,0.35,0,1,0.0
3.130675832000634,108,281.16,98.2,4.1,-38.8,1.43,-0.3,-4.66,0.4,1.28,-0.21,-61.6,-114.7,329.0,-2.83,2.67,-0.22,0.0,1.3573871960498227,4.883697369821353,0.36505532945849983,0.35,1,2,3.0
3.142090934001317,109,281.17,98.4,3.6,-38.8,1.05,0.03,-5.28,0.51,1.42,-0.29,-62.5,-79.6,343.0,-2.81,1.71,-0.16,0.0,1.536424420529692,5.383474714345745,0.5332107028596016,0.35,0,2,3.0
3.1507851160004066,110,281.18,98.4,3.1,-39.0,-0.69,1.0,-4.83,0.41,1.37,-0.31,-62.9,-18.0,868.0,-2.81,-1.54,2.73,3.49,1.463249807790864,4.9804618259755795,0.45083536831835813,0.35,0,2,3.0
3.1625219540001126,111,281.19,98.2,2.7,-39.2,-1.6,1.75,-3.98,0.1,1.26,-0.19,-61.9,166.5,1554.0,-2.86,-6.79,3.13,3.49,1.2781627439414749,4.632806924532901,0.2604333383795896,0.35,0,2,3.0
3.17074065000088,112,281.2,98.1,2.4,-39.4,-1.13,1.62,-2.67,-0.17,1.19,0.0,-59.0,331.3,1470.0,-2.96,-10.55,3.0,3.49,1.2020815280171306,3.3211744910498155,0.18066508000614045,0.35,0,2,3.0
3.1821630120011832,113,281.21,98.0,2.2,-39.6,0.18,1.08,-1.27,-0.44,1.19,0.05,-54.9,440.8,1112.0,-3.08,-12.97,3.38,3.49,1.2697243795406938,1.67681245224384,0.24334177289910963,0.35,0,2,3.0
3.1906591430015396,114,281.22,98.1,2.2,-39.6,1.45,0.01,-0.04,-0.62,1.19,0.14,-50.1,491.5,499.0,-3.22,-13.28,4.1,3.49,1.3491108182799514,1.4505860884483899,0.3162736474055998,0.35,0,2,3.0
3.202258695000637,115,281.23,98.3,2.2,-39.6,2.0,-1.4,0.69,-0.68,1.22,0.18,-45.4,454.3,-248.0,-3.34,-11.37,3.48,3.49,1.4082613393827157,2.536946984073573,0.36791568513819684,0.35,0,2,3.0
3.210635221001212,116,281.24,98.4,2.3,-39.3,0.65,-3.15,1.08,-0.59,1.32,0.18,-41.4,358.8,-829.0,-3.43,-8.2,4.04,3.49,1.4570175016107392,3.3928454135135597,0.40833841041889585,0.35,0,2,3.0
3.2221828830006416,117,281.25,98.4,2.3,-38.9,-1.59,-4.73,1.13,-0.3,1.28,0.11,-38.7,233.1,-1142.0,-3.49,-4.66,3.92,3.49,1.319280106724876,5.116434305255956,0.26518899522237205,0.35,0,2,3.0
3.230854105000617,118,281.26,98.2,2.3,-38.3,-3.56,-5.91,0.87,0.01,1.2,0.08,-37.3,104.8,-1212.0,-3.51,-1.31,4.17,3.49,1.2027052839328511,6.954034800027967,0.14564188898174013,0.35,0,2,3.0
3.2421591600013926,119,281.27,97.8,2.3,-37.7,-4.82,-6.38,0.51,0.28,1.06,0.0,-37.0,-2.8,-931.0,-3.51,0.68,3.5,3.49,1.0963576058932598,8.012296799295443,0.03850832672330573,0.35,0,2,3.0
3.250886393001565,120,281.28,97.3,2.3,-37.1,-5.6,-5.6,0.25,0.37,0.93,-0.08,-37.3,-27.4,-339.0,-3.5,0.66,3.45,3.49,1.0040916292848974,7.923540875139094,0.0526824968873556,0.35,0,2,3.0
3.262214006001159,121,281.29,96.7,2.2,-36.6,-6.03,-4.51,0.41,0.34,0.81,-0.02,-37.5,-15.9,-12.0,-3.5,0.2,3.36,3.49,0.8786922100485471,7.541160388163084,0.1745202778012317,0.35,0,2,3.0
3.2707061340006476,122,281.3,96.1,2.3,-36.2,-5.0,-3.72,0.7,0.24,0.68,0.07,-37.5,-1.7,51.0,-3.5,0.0,3.72,3.49,0.7244998274671983,6.2712359228464685,0.3221384071749289,0.35,0,2,3.0
3.2822262260015123,123,281.31,95.8,2.3,-35.8,-2.93,-3.55,1.05,0.17,0.58,0.12,-37.5,-0.3,17.0,-3.5,0.0,3.46,3.49,0.6161980201201558,4.721218063169715,0.4218314102315319,0.35,0,2,3.0
3.2906545760015433,124,281.32,95.6,2.4,-35.5,0.02,-3.67,1.22,0.13,0.56,0.12,-37.6,-1.0,-5.0,-3.5,0.06,3.56,3.49,0.587281874401041,3.8675185843121684,0.4417326048316338,0.35,0,2,3.0
3.302195805001247,125,281.33,95.8,2.5,-35.1,2.14,-4.01,1.03,0.14,0.71,0.04,-37.6,-3.8,-22.0,-3.49,0.14,3.47,3.49,0.7247758274114832,4.660536449809184,0.29815387878476785,0.35,0,2,3.0
3.3107904309999867,126,281.34,96.0,2.5,-34.7,2.03,-3.7,0.73,0.17,0.89,-0.06,-37.6,-7.0,-23.0,-3.49,0.21,3.41,3.49,0.9080748867797194,4.28296626183303,0.112557723028201,0.35,0,2,0.0
3.322258613001395,127,281.35,96.2,2.5,-34.3,0.38,-3.41,0.49,0.15,1.06,-0.01,-37.7,-7.1,-2.0,-3.49,0.18,3.47,3.49,1.07060730429042,3.465919791339667,0.048975200592849655,0.35,0,2,0.0
3.3309471780012245,128,281.36,96.1,2.5,-34.0,-1.87,-3.38,0.44,0.13,1.05,-0.04,-37.9,-33.6,-534.0,-3.48,2.55,0.47,0.0,1.058772874605314,3.887788574498361,0.036397955489588796,0.35,0,2,0.0
3.342102395999973,129,281.37,95.9,2.6,-33.6,-2.73,-3.43,0.39,0.15,0.98,-0.03,-39.2,-181.4,-1163.0,-3.42,6.62,0.45,0.0,0.9918669265581951,4.401124856215738,0.02989783270637958,0.35,0,2,0.0
3.3509069310002815,130,281.38,95.6,2.6,-33.3,-2.23,-3.43,0.27,0.25,0.89,-0.04,-41.9,-304.8,-1107.0,-3.34,9.49,0.16,0.0,0.9253107586103169,4.100085364964978,0.09452492064117268,0.35,0,2,0.0
3.362174911000693,131,281.39,95.5,2.6,-33.0,-1.04,-2.95,0.28,0.23,0.84,-0.11,-45.6,-391.4,-876.0,-3.23,11.49,0.46,0.0,0.8778382538941898,3.1404617494884413,0.13915747685015378,0.35,0,2,0.0
3.3706611690013233,132,281.4,95.4,2.6,-32.7,0.02,-2.33,0.46,0.17,0.87,-0.1,-50.0,-454.9,-675.0,-3.1,13.0,0.16,0.0,0.8920762299265685,2.375057894031217,0.12242111080141949,0.35,0,2,0.0
3.3821736390000297,133,281.41,95.5,2.7,-32.5,1.19,-2.19,0.81,0.1,0.9,-0.05,-54.8,-489.8,-360.0,-2.97,13.45,0.09,0.0,0.9069178573608527,2.6207441691244875,0.10542789369979255,0.35,0,2,0.0
3.3906799380001758,134,281.42,95.7,2.8,-32.2,2.33,-2.35,1.2,0.06,0.93,-0.09,-59.8,-506.0,-246.0,-2.83,13.96,0.27,0.0,0.9362691920596342,3.5201420425886227,0.07455502782099077,0.35,0,2,0.0
3.40232156500133,135,281.43,96.0,2.9,-32.0,3.19,-2.49,1.59,0.03,1.01,-0.11,-64.9,-511.1,-62.0,-2.69,13.83,0.08,0.0,1.0164152694642086,4.347907542715231,0.0054792285919118555,0.35,0,2,0.0
3.4108680250010366,136,281.44,96.3,3.0,-31.7,3.21,-2.57,1.81,0.02,1.03,-0.16,-70.0,-509.5,-15.0,-2.55,13.8,-0.09,0.0,1.042544963059148,4.4927831018200735,0.0309767437431141,0.35,0,2,0.0
3.422089629000766,137,281.45,96.7,3.2,-31.4,2.85,-2.76,1.9,0.01,1.06,-0.16,-75.0,-494.8,131.0,-2.42,13.19,-0.05,0.0,1.0720541031123383,4.398874856142193,0.05927616612037845,0.35,0,2,0.0
3.430781802000638,138,281.46,97.0,3.3,-31.1,2.01,-3.11,1.93,0.01,1.07,-0.16,-79.8,-475.9,168.0,-2.29,12.69,0.01,0.0,1.081942697188719,4.17577537710064,0.06778146499282389,0.35,0,2,0.0
3.4422561210012645,139,281.47,97.2,3.4,-30.7,1.12,-3.52,1.9,0.02,1.03,-0.18,-84.5,-456.2,173.0,-2.17,12.21,0.03,0.0,1.0458011283222064,4.1538897433610344,0.03100709820378511,0.35,0,2,0.0
3.450917081001535,140,281.48,97.3,3.5,-30.3,0.45,-3.89,1.76,0.05,0.98,-0.19,-88.9,-439.0,203.0,-2.05,11.59,0.01,0.0,0.9994998749374608,4.293273809111178,0.014988272077341325,0.35,0,2,0.0
3.462155953000547,141,281.49,97.4,3.7,-29.9,0.15,-4.11,1.48,0.07,0.95,-0.2,-93.1,-407.0,290.0,-1.94,10.67,0.33,0.0,0.973344748791506,4.370926675202869,0.0403205302588302,0.35,0,2,0.0
3.4707661690008536,142,281.5,97.5,3.7,-29.5,-0.14,-4.25,1.27,0.1,0.93,-0.21,-97.0,-379.8,259.0,-1.84,10.02,-0.03,0.0,0.9586448768965493,4.437904911103887,0.053919994110711245,0.35,0,2,0.0
3.482285005000449,143,281.51,97.5,3.8,-29.0,-0.42,-4.26,1.14,0.11,0.95,-0.2,-100.6,-351.0,302.0,-1.74,9.12,-0.17,0.0,0.9770363350459388,4.429853270707732,0.03481796524209524,0.35,0,2,0.0
3.4907971330012515,144,281.52,97.5,3.9,-28.6,-0.77,-4.21,1.05,0.13,0.94,-0.22,-103.8,-317.7,312.0,-1.66,8.26,0.0,0.0,0.9741149829460586,4.406756176599744,0.03698453099513588,0.35,0,2,0.0
3.502467180000167,145,281.53,97.4,3.9,-28.2,-1.15,-4.04,1.07,0.15,0.95,-0.22,-106.8,-286.8,316.0,-1.58,7.39,0.15,0.0,0.986610358753647,4.3346280117214215,0.023999372083796544,0.35,0,2,0.0
3.510882948001381,146,281.54,97.3,4.0,-27.8,-1.43,-3.81,1.08,0.18,0.93,-0.21,-109.4,-252.0,350.0,-1.51,6.38,-0.17,0.0,0.9702576977277738,4.210391905749392,0.039544992447476335,0.35,0,2,0.0
3.5222465240003658,147,281.55,97.2,4.1,-27.4,-1.7,-3.51,1.1,0.2,0.91,-0.21,-111.7,-213.3,367.0,-1.46,5.36,-0.21,0.0,0.9550916186418977,4.052172256950585,0.053616850102685354,0.35,0,2,0.0
3.53087043800042,148,281.56,97.1,4.1,-27.0,-1.83,-3.2,1.11,0.22,0.9,-0.21,-113.6,-176.8,359.0,-1.41,4.38,-0.16,0.0,0.9500000000000001,3.849805189876496,0.057534299369691344,0.35,0,2,0.0
3.5424204060000193,149,281.57,96.9,4.2,-26.7,-1.8,-2.85,1.09,0.26,0.87,-0.22,-115.1,-142.0,352.0,-1.37,3.43,0.11,0.0,0.9342911751697112,3.5426825993870805,0.07177826171598056,0.35,0,2,0.0
3.550917341000968,150,281.58,96.7,4.3,-26.5,-1.62,-2.47,0.99,0.27,0.85,-0.24,-116.3,-105.3,355.0,-1.34,2.44,-0.09,0.0,0.9235799911215054,3.1153490976133,0.0808396568489026,0.35,0,2,0.0
3.5621389410007396,151,281.59,96.6,4.3,-26.2,-1.52,-2.04,0.86,0.27,0.83,-0.25,-117.1,-69.5,362.0,-1.33,1.44,-0.16,0.0,0.907909687138539,2.6854422354614145,0.09457976161523152,0.35,0,2,0.0
3.570281160000377,152,281.6,96.5,4.4,-26.0,-1.53,-1.68,0.69,0.26,0.8,-0.27,-117.5,-33.4,352.0,-1.32,0.51,-0.22,0.0,0.8834591105421915,2.374742091259596,0.11664973144734747,0.35,0,2,0.0
3.5821049840014894,153,281.61,96.3,4.4,-25.9,-1.49,-1.29,0.48,0.25,0.79,-0.28,-117.6,-1.5,306.0,-1.32,-0.24,0.0,0.0,0.8746427842267951,2.0284476823423376,0.12295673660748896,0.35,0,2,0.0
3.590915861001122,154,281.62,96.2,4.5,-25.8,-1.42,-0.95,0.27,0.23,0.77,-0.29,-117.5,11.1,132.0,-1.32,-0.3,0.07,0.0,0.8543418519538885,1.7296820517077698,0.14039251550278764,0.35,0,2,0.0
3.6022055490011553,155,281.63,96.1,4.5,-25.7,-1.2,-0.62,0.08,0.22,0.76,-0.32,-117.4,11.4,48.0,-1.33,-0.32,0.0,0.0,0.8534635317340747,1.3530705820466278,0.13844541900814933,0.35,0,2,0.0
3.6109162680004374,156,281.64,96.0,4.5,-25.6,-0.99,-0.18,-0.12,0.17,0.72,-0.32,-117.3,8.0,-34.0,-1.33,-0.08,-0.08,0.0,0.8060397012554655,1.0133607452432722,0.18215186449702336,0.35,0,2,0.0
3.622174490001271,157,281.65,95.9,4.4,-25.7,-0.5,0.29,-0.52,0.15,0.68,-0.32,-117.3,-1.9,-55.0,-1.33,0.08,-0.06,0.0,0.766355009117837,0.7774959806970065,0.2173998255019588,0.35,0,2,0.0
3.6309153190013603,158,281.66,95.9,4.4,-25.7,0.03,0.76,-0.87,0.13,0.67,-0.33,-117.3,-3.2,-20.0,-1.33,0.09,-0.07,0.0,0.7580897044545587,1.1555950847939775,0.2211518275619324,0.35,0,2,0.0
3.6421775670005445,159,281.67,95.9,4.3,-25.8,0.63,1.2,-1.17,0.13,0.68,-0.32,-117.4,-3.3,-9.0,-1.33,0.1,0.08,0.0,0.7626925986267338,1.7904747973652129,0.21221795472196214,0.35,0,2,0.0
3.6549113860000944,160,281.68,96.0,4.2,-26.0,1.22,1.49,-1.36,0.17,0.76,-0.28,-117.4,-3.9,-12.0,-1.32,0.14,-0.07,0.0,0.8275868534480233,2.357562300343302,0.14437722590265922,0.35,0,2,0.0
3.6627260630011733,161,281.69,96.1,4.0,-26.2,1.64,1.66,-1.31,0.21,0.86,-0.21,-117.5,-7.7,-41.0,-1.32,0.29,0.1,0.0,0.9098351499035415,2.6760605374318422,0.06088635085819816,0.35,0,2,0.0
3.670758210000713,162,281.7,96.3,3.9,-26.3,1.75,1.6,-1.07,0.24,0.95,-0.12,-117.6,-15.9,-65.0,-1.32,0.51,0.04,0.0,0.9871676655968833,2.601422687684568,0.01611724153844074,0.35,0,2,0.0
3.6825926790006633,163,281.71,96.4,3.9,-26.5,1.41,1.36,-0.8,0.25,0.98,-0.13,-117.8,-21.2,-49.0,-1.31,0.61,-0.02,0.0,1.0197058399362042,2.1160576551691594,0.047682307560206416,0.35,0,2,0.0
3.690626735000478,164,281.72,96.5,3.8,-26.6,1.04,1.43,-0.72,0.23,0.97,-0.22,-118.0,-24.2,-27.0,-1.3,0.64,-0.02,0.0,1.0208819716304134,1.909162119884008,0.04788127046932722,0.35,0,2,0.0
3.7022153430007165,165,281.73,96.6,3.7,-26.8,0.87,1.72,-0.77,0.17,0.96,-0.29,-118.3,-24.3,-10.0,-1.3,0.67,-0.07,0.0,1.017152889196113,2.0756203891848815,0.043269144274326266,0.35,0,2,0.0
3.7107239670003764,166,281.74,96.7,3.7,-27.0,1.05,2.15,-0.95,0.1,0.98,-0.34,-118.5,-25.0,2.0,-1.29,0.65,-0.08,0.0,1.042113237609042,2.5743931323712,0.06686490283351021,0.35,0,2,0.0
3.722353056000429,167,281.75,96.8,3.6,-27.3,1.78,2.86,-0.97,0.08,1.17,-0.32,-118.8,-21.7,27.0,-1.29,0.53,0.02,0.0,1.215606844337428,3.505552738156994,0.2355513393706582,0.35,0,2,0.0
3.730980736001584,168,281.76,97.1,3.6,-27.6,2.77,3.4,-0.5,0.01,1.41,-0.17,-118.9,-18.0,35.0,-1.28,0.43,-0.12,0.0,1.4202464574854603,4.413943814776078,0.4313871334683167,0.35,1,3,3.0
3.742316309000671,169,281.77,97.3,3.6,-27.9,3.12,3.32,0.23,-0.07,1.51,-0.13,-119.1,-13.3,54.0,-1.28,0.25,-0.02,0.0,1.5172013709458612,4.561765009291908,0.5177752059901433,0.35,0,3,3.0
3.7508599880002294,170,281.78,97.6,3.7,-28.2,3.03,2.92,0.94,-0.05,1.61,-0.07,-119.1,9.4,428.0,-1.29,-2.05,2.86,3.49,1.6122964987867463,4.311716595510424,0.6006129271544078,0.35,0,3,3.0
3.762219399000969,171,281.79,97.9,3.8,-28.5,2.75,2.03,1.81,-0.01,1.73,0.0,-118.0,159.7,1169.0,-1.34,-6.15,2.84,3.49,1.730028901492689,3.8677512846614115,0.7039784232631436,0.35,0,3,3.0
3.7708379450014036,172,281.8,98.1,4.1,-28.6,1.48,1.6,2.33,-0.03,1.61,-0.09,-115.4,301.5,1285.0,-1.42,-9.76,3.16,3.49,1.6127926091100495,3.190501527973306,0.575007288262894,0.35,0,3,3.0
3.7822340250004345,173,281.81,98.2,4.3,-28.7,0.3,1.43,1.72,0.06,1.39,-0.02,-111.5,427.2,1252.0,-1.54,-13.13,3.14,3.49,1.3914381049834734,2.2568340656769603,0.34657972845359164,0.35,0,3,3.0
3.790789222000967,174,281.82,98.1,4.4,-28.8,-0.77,1.34,0.7,0.22,1.23,-0.04,-106.4,545.5,1146.0,-1.7,-16.03,2.82,3.49,1.2501599897613105,1.696614275549985,0.20119558096680024,0.35,0,3,3.0
3.8023088820009434,175,281.83,98.0,4.5,-29.0,-1.34,1.85,-0.29,0.32,1.09,-0.06,-100.3,636.7,984.0,-1.87,-18.44,3.57,3.49,1.13758516164725,2.3026506465375944,0.08684833779568502,0.35,0,3,3.0
3.8109753300013836,176,281.84,97.8,4.4,-29.2,-1.48,2.72,-0.88,0.38,1.05,-0.07,-93.4,710.7,732.0,-2.07,-20.06,3.62,3.49,1.1188386836358493,3.2191924453191674,0.06673982258859845,0.35,0,3,3.0
3.8222676150016923,177,281.85,97.6,4.4,-29.6,-1.4,3.7,-0.86,0.37,1.02,-0.07,-85.8,769.7,556.0,-2.28,-21.27,2.95,3.49,1.0872902096496593,4.048407094154441,0.034487521630360396,0.35,0,3,3.0
3.830864310000834,178,281.86,97.5,4.4,-30.0,-0.7,4.69,-0.56,0.34,0.96,-0.06,-77.9,794.0,331.0,-2.5,-21.82,3.43,3.49,1.020196059588548,4.77490314037887,0.031954495862135834,0.35,0,3,3.0
3.842312493001373,179,281.87,97.4,4.4,-30.5,-0.01,5.4,-0.25,0.32,0.94,-0.05,-69.8,823.2,292.0,-2.72,-22.56,3.53,3.49,0.9942333730065592,5.405793188792927,0.05675883879524213,0.35,0,3,3.0
3.85083289800059,180,281.88,97.4,4.5,-31.1,0.16,6.1,0.06,0.29,0.98,-0.04,-61.5,841.1,229.0,-2.95,-23.08,3.64,3.49,1.0227903010881556,6.102392973252377,0.027637872499372884,0.35,0,3,3.0
3.862429789000089,181,281.89,97.3,4.6,-31.7,-0.35,6.53,0.52,0.24,1.01,0.02,-53.0,850.7,170.0,-3.18,-23.38,3.65,3.49,1.038315944209661,6.560015243884728,0.011869984790310095,0.35,0,3,3.0
3.870814452000559,182,281.9,97.2,4.7,-32.4,-0.71,6.56,0.83,0.16,0.96,0.06,-44.4,848.5,-52.0,-3.41,-22.82,3.24,3.49,0.9750897394599125,6.650308263531849,0.07359426574925743,0.35,0,3,3.0
3.8823908120011765,183,281.91,97.1,4.9,-33.0,-0.8,6.47,0.81,0.09,0.94,0.07,-36.1,834.2,-55.0,-3.64,-22.63,3.36,3.49,0.9468896451012652,6.569398754832895,0.09975847290574658,0.35,0,3,3.0
3.890726904000985,184,281.92,97.0,5.1,-33.6,-0.62,6.21,0.55,0.04,0.91,0.1,-27.8,814.6,-189.0,-3.86,-21.91,3.83,3.49,0.916351460958076,6.265061851250952,0.1276907239079571,0.35,0,3,3.0
3.902737137001168,185,281.93,96.9,5.2,-34.2,-0.29,5.83,0.11,0.0,0.9,0.09,-19.9,791.5,-226.0,-4.07,-21.28,4.13,3.49,0.9044888059008801,5.838244599192466,0.13676231138584993,0.35,0,3,3.0
3.9108036990000983,186,281.94,96.8,5.2,-34.8,-0.03,5.36,-0.39,-0.03,0.9,0.09,-12.0,780.9,-165.0,-4.28,-20.92,3.58,3.49,0.9049861877399014,5.374253436524929,0.13353963095589216,0.35,0,3,3.0
3.922426061000806,187,281.95,96.8,5.2,-35.3,0.04,4.88,-0.84,-0.05,0.9,0.09,-4.4,756.3,-237.0,-4.49,-20.1,3.78,3.49,0.905869747811461,4.951928917098871,0.13000294946664592,0.35,0,3,0.0
3.930885368001327,188,281.96,96.7,5.2,-35.8,-0.14,4.44,-1.07,-0.04,0.89,0.06,2.7,692.8,-728.0,-4.67,-17.15,0.87,0.0,0.8929165694509202,4.5692559569365345,0.14009700527064295,0.35,0,3,0.0
3.942282806001458,189,281.97,96.7,5.1,-36.2,-0.49,4.16,-1.11,-0.01,0.86,0.05,8.2,469.8,-2061.0,-4.79,-9.33,0.83,0.0,0.8615103017375938,4.3333358974351395,0.1680732075242901,0.35,0,3,0.0
3.9508122980005282,190,281.98,96.6,5.0,-36.6,0.52,3.75,-1.45,0.06,0.77,0.03,11.2,236.1,-1966.0,-4.85,-4.32,0.59,0.0,0.772916554357584,4.054059693689771,0.25153361580621403,0.35,0,3,0.0
3.96265131400105,191,281.99,96.6,4.9,-37.0,1.16,3.57,-1.77,0.07,0.82,-0.03,12.5,79.7,-1604.0,-4.86,-0.57,0.24,0.0,0.8235289915965314,4.1501084323183655,0.19690275499592125,0.35,0,3,0.0
3.9775527000001603,192,282.01,96.7,4.8,-37.4,1.12,3.63,-1.83,0.08,0.84,-0.09,12.6,17.0,-1427.0,-4.85,1.12,-0.09,0.0,0.8485870609430713,4.216657443995184,0.16840779193639366,0.35,0,3,0.0
3.9868952490014635,193,282.02,96.8,4.5,-38.2,0.63,3.54,-1.79,0.01,0.82,-0.1,12.0,-27.7,-450.0,-4.84,0.41,-0.01,0.0,0.8261355820929153,4.016540800240923,0.1870420853708188,0.35,0,3,0.0
3.997427834001428,194,282.03,96.8,4.3,-38.5,0.83,3.29,-1.77,-0.01,0.84,-0.09,11.9,-0.2,-2.0,-4.84,-0.21,-0.3,0.0,0.8448668534153768,3.826996211129559,0.16494459776739012,0.35,0,3,0.0
4.006874655000502,195,282.04,96.9,4.1,-38.9,1.16,2.95,-1.73,-0.04,0.88,-0.08,11.9,5.2,-36.0,-4.84,-0.01,0.11,0.0,0.8845337754998392,3.611232476592998,0.12277212216926925,0.35,0,3,0.0
4.017386621000696,196,282.05,97.0,4.0,-39.2,1.35,2.6,-1.63,-0.08,0.95,-0.08,11.9,-2.4,-29.0,-4.84,0.03,-0.03,0.0,0.9567131231461183,3.352521439155908,0.04958091903253026,0.35,0,3,0.0
4.026712744000179,197,282.06,97.1,3.9,-39.4,1.04,2.3,-1.5,-0.13,0.99,-0.09,11.9,0.9,1.0,-4.84,0.0,0.05,0.0,1.002546757014355,2.9362561196189954,0.0036723394610078675,0.35,0,3,0.0
4.034958871001436,198,282.07,97.2,3.7,-39.6,0.68,1.9,-1.36,-0.17,1.0,-0.08,11.9,-0.3,-2.0,-4.84,0.0,0.05,0.0,1.0174969287422935,2.4335159748807897,0.011052275621592056,0.35,0,3,0.0
4.047302182001658,199,282.08,97.2,3.6,-39.8,0.21,1.35,-1.24,-0.18,1.02,-0.07,11.9,0.1,0.0,-4.84,0.0,-0.04,0.0,1.038123306741545,1.8450474248647377,0.031045080548426585,0.35,0,3,0.0
4.057400657000471,200,282.09,97.2,3.5,-39.9,-0.16,0.73,-1.08,-0.18,1.0,-0.09,11.9,0.1,0.0,-4.84,0.0,-0.13,0.0,1.0200490184299968,1.3133544837552427,0.012711376392140927,0.35,0,3,0.0
4.066776102001313,201,282.1,97.2,3.4,-40.0,-0.62,0.19,-0.85,-0.18,0.97,-0.12,11.9,0.0,-1.0,-4.84,0.0,-0.09,0.0,0.9938309715439542,1.0691117808723276,0.013236537084023725,0.35,0,3,0.0
4.0772293340014585,202,282.11,97.1,3.4,-40.0,-0.8,-0.22,-0.63,-0.16,0.93,-0.14,11.9,0.2,1.0,-4.84,0.0,-0.01,0.0,0.9539916142189092,1.0417773274553446,0.05201437652088725,0.35,0,3,0.0
4.087257816001511,203,282.12,97.0,3.3,-40.0,-0.58,-0.55,-0.42,-0.13,0.9,-0.15,11.9,-0.2,0.0,-4.84,0.0,-0.01,0.0,0.9216289925995167,0.9029396436085858,0.0826894581774742,0.35,0,3,0.0
4.094922779000626,204,282.13,97.0,3.3,-39.9,-0.38,-0.87,-0.24,-0.11,0.9,-0.16,11.9,0.0,0.0,-4.84,0.0,-0.06,0.0,0.9207062506576134,0.9792343948207701,0.08193995611699001,0.35,0,3,0.0
4.107208161000017,205,282.14,97.0,3.2,-39.8,-0.45,-1.16,-0.03,-0.09,0.92,-0.18,11.9,0.0,2.0,-4.84,0.0,0.07,0.0,0.9417536832951597,1.2445882853377657,0.05967467300985485,0.35,0,3,0.0
4.114881699000762,206,282.15,96.9,3.2,-39.7,-0.73,-1.41,0.18,-0.07,0.91,-0.21,11.9,-0.2,0.0,-4.84,0.0,0.02,0.0,0.9365361712181757,1.597936168937921,0.06359434138510212,0.35,0,3,0.0
4.1272256650008785,207,282.16,96.8,3.3,-39.5,-0.93,-1.52,0.39,-0.08,0.91,-0.22,11.9,-2.0,-25.0,-4.84,0.12,-0.04,0.0,0.9396275858019495,1.8241162243672961,0.05929286826530178,0.35,0,3,0.0
4.134896012001263,208,282.17,96.7,3.3,-39.3,-1.14,-1.6,0.63,-0.1,0.91,-0.21,11.8,-8.0,-58.0,-4.84,0.33,0.0,0.0,0.9392550239418472,2.063128692059708,0.05847212152289594,0.35,0,3,0.0
4.14728125000147,209,282.18,96.6,3.3,-39.2,-1.1,-1.71,0.82,-0.12,0.91,-0.19,11.7,-20.5,-114.0,-4.83,0.74,0.0,0.0,0.9373366524360391,2.1923731434224423,0.05918268316812991,0.35,0,3,0.0
4.157432797001093,210,282.19,96.5,3.4,-39.0,-0.97,-1.93,1.05,-0.14,0.93,-0.16,11.4,-39.8,-189.0,-4.82,1.39,-0.04,0.0,0.9539916142189092,2.4017285441947847,0.041677166957554634,0.35,0,3,0.0
4.16678139600117,211,282.2,96.4,3.5,-38.8,-0.94,-2.22,1.27,-0.16,0.93,-0.15,10.8,-68.6,-271.0,-4.8,2.26,0.07,0.0,0.9555103348473003,2.724866969229874,0.03935527740258027,0.35,0,3,0.0
4.177127040000414,212,282.21,96.4,3.6,-38.5,-0.93,-2.41,1.35,-0.14,0.9,-0.16,9.8,-103.9,-347.0,-4.77,3.32,0.24,0.0,0.9247702417357513,2.9147041016199227,0.06869346310384672,0.35,0,3,0.0
4.186813692000214,213,282.22,96.3,3.7,-38.2,-0.92,-2.45,1.35,-0.09,0.89,-0.18,8.5,-144.2,-380.0,-4.73,4.4,0.3,0.0,0.9124691775616314,2.9447240957346077,0.0793746367324073,0.35,0,3,0.0
4.197219232000862,214,282.23,96.2,3.8,-38.0,-0.85,-2.46,1.41,-0.01,0.88,-0.17,6.8,-187.6,-426.0,-4.68,5.65,0.12,0.0,0.8963258336118624,2.9601013496162594,0.09360762106853282,0.35,0,3,0.0
4.20723289900161,215,282.24,96.2,3.9,-37.7,-0.54,-2.52,1.52,0.07,0.84,-0.2,4.5,-242.2,-586.0,-4.61,7.53,0.32,0.0,0.8663140308225418,2.99205614920576,0.12114703538069638,0.35,0,3,0.0
4.214977044000989,216,282.25,96.2,4.1,-37.5,-0.04,-2.42,1.51,0.15,0.8,-0.25,1.6,-318.9,-664.0,-4.52,9.44,0.36,0.0,0.8514693182963201,2.852735529277118,0.1332719129487797,0.35,0,3,0.0
4.227274754000973,217,282.26,96.2,4.2,-37.2,0.46,-2.06,1.42,0.16,0.79,-0.3,-2.0,-386.4,-704.0,-4.41,11.43,0.27,0.0,0.8600581375697808,2.543933961407017,0.12218943180181263,0.35,0,3,0.0
4.237206796000464,218,282.27,96.3,4.3,-37.0,1.28,-1.65,1.14,0.17,0.78,-0.34,-6.3,-447.3,-555.0,-4.29,12.65,0.07,0.0,0.8676981041814026,2.3791805311913596,0.11225847588638704,0.35,0,3,0.0
4.24746581600084,219,282.28,96.5,4.4,-36.9,1.66,-1.13,1.04,0.07,0.83,-0.32,-11.0,-483.5,-413.0,-4.16,13.55,-0.05,0.0,0.8923003978481686,2.2614375958668416,0.08590305857522862,0.35,0,3,0.0
4.257363426000666,220,282.29,96.7,4.5,-36.8,1.93,-1.05,0.99,0.03,0.85,-0.3,-16.0,-510.0,-246.0,-4.02,13.93,0.14,0.0,0.9018869108707588,2.4098755154571783,0.07479021464158564,0.35,0,3,0.0
4.266816875000586,221,282.3,97.0,4.6,-36.6,2.72,-1.01,0.71,0.0,0.85,-0.32,-21.2,-513.0,-119.0,-3.88,14.07,0.04,0.0,0.9082400563727632,2.987072145094591,0.06706832775678961,0.35,0,3,0.0
4.277312934000292,222,282.31,97.3,4.6,-36.5,3.21,-0.97,0.46,0.0,0.94,-0.36,-26.4,-518.7,-29.0,-3.74,14.0,0.12,0.0,1.0065783625729294,3.38475996194708,0.03064457887450911,0.35,0,3,0.0
4.286876640000628,223,282.32,97.6,4.6,-36.4,3.32,-0.88,0.23,-0.04,1.0,-0.33,-31.5,-514.7,-13.0,-3.6,14.03,-0.01,0.0,1.0538026380684384,3.4423393208688764,0.07631147728261778,0.35,0,3,0.0
4.2975822309999785,224,282.33,97.9,4.6,-36.3,3.23,-1.22,-0.12,-0.06,1.05,-0.2,-36.6,-508.1,105.0,-3.46,13.52,-0.17,0.0,1.0705606008068858,3.454808243593268,0.0912080512206438,0.35,0,3,0.0
4.3069248760002665,225,282.34,98.3,4.5,-36.2,3.77,-1.89,-0.84,0.0,1.13,-0.13,-41.6,-487.2,167.0,-3.33,12.99,-0.42,0.0,1.137453295744489,4.300069766875882,0.15493873123508206,0.35,0,3,0.0
4.317557098000179,226,282.35,98.7,4.3,-36.0,3.96,-2.11,-2.0,0.17,1.3,-0.16,-46.3,-462.3,238.0,-3.2,12.22,0.01,0.0,1.3207952150125317,4.912606232948047,0.3315150374930623,0.35,0,3,0.0
4.32686074600133,227,282.36,99.1,4.0,-35.8,3.52,-2.05,-3.71,0.31,1.42,-0.05,-50.7,-434.4,277.0,-3.09,11.41,-0.09,0.0,1.4543039572248986,5.509718686103675,0.45572330411132056,0.35,0,4,0.0
4.337448851001682,228,282.37,99.4,3.5,-35.7,3.68,-1.84,-5.56,0.67,1.72,-0.23,-54.8,-392.5,412.0,-2.98,10.04,-0.1,0.0,1.8601612833300234,6.91676224833556,0.8443490176121164,0.35,0,4,0.0
4.346941569001501,229,282.38,99.7,2.9,-35.7,1.43,-0.74,-6.02,0.69,1.84,-0.27,-58.4,-345.9,424.0,-2.89,8.9,-0.17,0.0,1.983582617387035,6.231604929711125,0.9484149446357455,0.35,0,4,0.0
4.357202416000291,230,282.39,99.7,2.3,-35.8,-1.74,0.2,-5.2,0.41,1.58,-0.15,-61.5,-304.0,436.0,-2.81,7.69,-0.08,0.0,1.639207125411551,5.4870392745086125,0.5919586636070562,0.35,0,4,0.0
4.367332931000419,231,282.4,99.4,1.9,-35.9,-3.05,0.13,-3.72,-0.06,1.35,0.07,-64.2,-255.7,474.0,-2.74,6.34,-0.14,0.0,1.3531444860028807,4.812255188578428,0.29977810371441826,0.35,0,4,0.0
4.377490505001333,232,282.41,99.1,1.6,-35.9,-2.36,-0.64,-1.91,-0.42,1.12,0.18,-66.3,-212.5,467.0,-2.69,5.08,-0.42,0.0,1.2096280420029952,3.1027890679193777,0.15313642652024217,0.35,0,4,0.0
4.3869427330009785,233,282.42,99.0,1.5,-35.8,0.26,-1.94,-0.74,-0.61,0.96,0.25,-68.1,-166.1,466.0,-2.64,3.83,-0.32,0.0,1.164560002747819,2.092558242917028,0.10590701951976444,0.35,0,4,0.0
4.39732204900065,234,282.43,99.2,1.4,-35.5,3.09,-3.25,-0.21,-0.61,1.1,0.23,-69.4,-121.1,448.0,-2.61,2.63,-0.26,0.0,1.2786711852544421,4.489398623423854,0.21561783798585998,0.35,0,4,0.0
4.406892806000542,235,282.44,99.5,1.4,-35.1,1.91,-4.34,0.32,-0.44,1.28,0.23,-70.3,-77.4,435.0,-2.6,1.46,-0.13,0.0,1.3729166034395535,4.752483561255104,0.3036659910475519,0.35,0,4,0.0
4.41748127000028,236,282.45,99.6,1.3,-34.6,-0.66,-5.08,0.42,-0.22,1.26,0.04,-70.8,-37.8,378.0,-2.59,0.58,-0.23,0.0,1.2796874618437113,5.13988326715695,0.20622811246267547,0.35,0,4,0.0
4.426871347000997,237,282.46,99.4,1.3,-34.1,-2.87,-5.15,0.3,-0.03,1.15,0.0,-71.0,-10.3,291.0,-2.59,-0.04,-0.16,0.0,1.1503912377969503,5.903338038770947,0.07539325064759628,0.35,0,4,0.0
4.437505130001227,238,282.47,99.1,1.2,-33.6,-3.65,-5.3,0.2,0.12,1.04,0.03,-71.0,4.3,137.0,-2.59,-0.06,0.01,0.0,1.047329938462565,6.43836159282779,0.027114687713053254,0.35,0,4,0.0
4.446926418000658,239,282.48,98.7,1.2,-33.1,-3.48,-5.32,0.25,0.23,0.97,-0.03,-71.0,-3.6,-25.0,-2.59,0.22,0.0,0.0,0.9973464794142505,6.362020119427477,0.07555618382614038,0.35,0,4,0.0
4.457395798001016,240,282.49,98.4,1.1,-32.6,-3.08,-4.83,0.36,0.29,0.92,-0.1,-71.1,-11.5,-59.0,-2.58,0.47,0.05,0.0,0.9697937925146768,5.739764803543784,0.10104669331119986,0.35,0,4,0.0
4.466836665000301,241,282.5,98.1,1.1,-32.1,-2.76,-4.15,0.5,0.32,0.9,-0.1,-71.3,-26.4,-141.0,-2.57,0.99,-0.03,0.0,0.9604165762834376,5.0090018965857865,0.1082154313515904,0.35,0,4,0.0
4.477476114001547,242,282.51,97.9,1.1,-31.7,-2.47,-3.55,0.65,0.31,0.86,-0.1,-71.7,-45.1,-176.0,-2.56,1.52,0.12,0.0,0.9196194865269004,4.373316819074511,0.14603227068596503,0.35,0,4,0.0
4.486891405000279,243,282.52,97.6,1.1,-31.4,-2.35,-3.06,0.89,0.24,0.83,-0.09,-72.3,-64.8,-188.0,-2.54,2.07,0.18,0.0,0.86867715521936,3.9595706837989395,0.19303510995363538,0.35,0,4,0.0
4.497575074999986,244,282.53,97.4,1.2,-31.1,-2.02,-2.68,1.09,0.16,0.78,-0.07,-73.1,-85.6,-201.0,-2.52,2.63,0.01,0.0,0.7993122043357026,3.5285832851159973,0.25715205962054677,0.35,0,4,0.0
4.5069274620000215,245,282.54,97.2,1.3,-30.8,-1.42,-2.48,1.32,0.11,0.78,-0.03,-74.1,-107.0,-214.0,-2.49,3.25,0.16,0.0,0.7882892870006544,3.1478881809873744,0.26281147741648314,0.35,0,4,0.0
4.5173794430011185,246,282.55,97.1,1.4,-30.6,-0.77,-2.46,1.51,0.09,0.83,-0.02,-75.3,-127.6,-202.0,-2.45,3.75,0.02,0.0,0.8351047838445185,2.9874069023151164,0.21167606096116676,0.35,0,4,0.0
4.526909439000519,247,282.56,97.1,1.5,-30.3,-0.6,-2.43,1.62,0.1,0.86,-0.05,-76.7,-145.6,-181.0,-2.41,4.21,-0.17,0.0,0.8672369918309527,2.981492914631863,0.17595297591523795,0.35,0,4,0.0
4.537332978999984,248,282.57,97.0,1.7,-30.1,-0.98,-2.33,1.68,0.11,0.89,-0.07,-78.2,-160.2,-151.0,-2.37,4.51,0.33,0.0,0.899499861033897,3.0350782526979434,0.14081630457804784,0.35,0,4,0.0
4.546909609000068,249,282.58,96.9,1.9,-29.8,-1.1,-2.18,1.59,0.11,0.86,-0.1,-79.9,-170.3,-105.0,-2.32,4.74,0.05,0.0,0.8727542609463445,2.9138462553813644,0.16421066657228833,0.35,0,4,0.0
4.557187230000636,250,282.59,96.8,2.1,-29.6,-0.95,-2.09,1.54,0.12,0.86,-0.09,-81.7,-177.5,-84.0,-2.27,4.93,0.04,0.0,0.8729833904490967,2.7644529296046985,0.1607019063281454,0.35,0,4,0.0
4.567296087001523,251,282.6,96.7,2.2,-29.4,-0.58,-2.01,1.5,0.14,0.85,-0.11,-83.5,-183.4,-58.0,-2.22,5.02,-0.09,0.0,0.8684468895678077,2.5741989045137905,0.16193363906524572,0.35,0,4,0.0
4.5773797140009265,252,282.61,96.7,2.3,-29.1,-0.19,-1.86,1.46,0.16,0.86,-0.13,-85.4,-188.1,-55.0,-2.17,5.2,0.05,0.0,0.8843641783790205,2.3721930781452003,0.14309602324895232,0.35,0,4,0.0
4.586841581000044,253,282.62,96.7,2.5,-29.0,0.09,-1.78,1.44,0.15,0.89,-0.12,-87.3,-193.5,-52.0,-2.11,5.34,-0.38,0.0,0.910494371207203,2.2913096691630312,0.11462651381235445,0.35,0,4,0.0
4.597086419000334,254,282.63,96.7,2.6,-28.8,0.27,-1.81,1.41,0.14,0.9,-0.14,-89.3,-197.8,-39.0,-2.06,5.39,0.01,0.0,0.9215204826806618,2.310216440076557,0.10152839429211769,0.35,0,4,0.0
4.607408757001394,255,282.64,96.8,2.7,-28.6,0.27,-1.84,1.34,0.13,0.88,-0.18,-91.2,-198.0,-9.0,-2.01,5.34,-0.25,0.0,0.9075791976461338,2.292182366217837,0.11316028574011283,0.35,0,4,0.0
4.617503143001159,256,282.65,96.8,2.8,-28.4,0.19,-1.86,1.23,0.12,0.91,-0.19,-93.2,-196.2,7.0,-1.95,5.31,0.02,0.0,0.9373366524360391,2.2379901697728704,0.08173477433120335,0.35,0,4,0.0
4.626909788001285,257,282.66,96.8,2.9,-28.2,-0.19,-1.88,1.22,0.12,0.91,-0.21,-95.2,-195.0,11.0,-1.9,5.27,-0.05,0.0,0.9415943925066674,2.2491998577271874,0.07592749357536355,0.35,0,4,0.0
4.637283518000913,258,282.67,96.8,3.0,-28.0,-0.5,-1.89,1.15,0.12,0.88,-0.22,-97.1,-193.7,16.0,-1.85,5.23,-0.09,0.0,0.9149863386958299,2.2681710693860815,0.10048483643847694,0.35,0,4,0.0
4.646867350000321,259,282.68,96.8,3.1,-27.8,-0.54,-1.86,0.99,0.14,0.86,-0.26,-99.0,-190.3,37.0,-1.8,5.08,-0.14,0.0,0.9092854337335443,2.1751551668789055,0.10406202657274721,0.35,0,4,0.0
4.657352617001379,260,282.69,96.7,3.2,-27.6,-0.65,-1.76,0.87,0.18,0.87,-0.28,-100.9,-183.6,65.0,-1.75,4.86,0.1,0.0,0.9315041599477697,2.0680909070928193,0.08020643435135144,0.35,0,4,0.0
4.6669255169999815,261,282.7,96.6,3.2,-27.4,-0.91,-1.53,0.77,0.21,0.87,-0.31,-102.7,-174.4,87.0,-1.7,4.6,-0.02,0.0,0.9471536306217698,1.9395618061820046,0.06326582440380424,0.35,0,4,0.0
4.677124978001302,262,282.71,96.5,3.3,-27.2,-1.24,-1.24,0.61,0.24,0.84,-0.32,-104.4,-165.4,88.0,-1.66,4.38,-0.06,0.0,0.9303762679690405,1.8566906042741749,0.0784423233154029,0.35,0,4,0.0
4.687339067000721,263,282.72,96.4,3.3,-27.1,-1.68,-0.89,0.4,0.27,0.83,-0.36,-105.9,-156.1,91.0,-1.61,4.1,-0.05,0.0,0.9441398201537736,1.9428072472584612,0.06338519570805645,0.35,0,4,0.0
4.6975426170010905,264,282.73,96.2,3.3,-27.1,-2.09,-0.34,0.19,0.28,0.79,-0.38,-107.5,-145.2,111.0,-1.57,3.76,-0.01,0.0,0.9202716990106781,2.125982125983189,0.08550825051412891,0.35,0,4,0.0
4.706903508000323,265,282.74,96.0,3.3,-27.1,-2.19,0.33,-0.14,0.3,0.73,-0.39,-108.8,-132.3,136.0,-1.54,3.37,0.01,0.0,0.8803408430829504,2.2191439791054566,0.12293032431301942,0.35,0,4,0.0
4.717332362000889,266,282.75,95.8,3.3,-27.1,-1.93,1.11,-0.47,0.3,0.71,-0.41,-110.0,-118.1,134.0,-1.51,3.02,0.27,0.0,0.8730406634286859,2.2754999450670175,0.1276258938879381,0.35,0,4,0.0
4.726958455001295,267,282.76,95.6,3.3,-27.3,-1.46,2.0,-0.69,0.27,0.7,-0.36,-111.1,-105.6,130.0,-1.48,2.66,-0.02,0.0,0.8321658488546618,2.570544689360603,0.16513069429272298,0.35,0,4,0.0
4.737454212001467,268,282.77,95.5,3.2,-27.6,-0.64,2.56,-0.82,0.22,0.69,-0.28,-112.1,-94.1,109.0,-1.46,2.44,-0.13,0.0,0.7764663547121665,2.7632589455206693,0.21641358466651395,0.35,0,4,0.0
4.746964081999977,269,282.78,95.5,3.2,-27.8,0.55,2.6,-0.91,0.18,0.7,-0.2,-113.0,-85.5,93.0,-1.43,2.22,-0.1,0.0,0.749933330370107,2.8090211818354094,0.23808767682840204,0.35,0,4,0.0
4.757350337000389,270,282.79,95.6,3.1,-28.1,1.54,2.44,-0.96,0.14,0.71,-0.22,-113.8,-79.0,67.0,-1.41,2.07,-0.11,0.0,0.7563729238940272,3.04085514288333,0.22701512163839221,0.35,0,4,0.0
4.76691736200155,271,282.8,95.7,3.0,-28.3,2.24,2.17,-1.0,0.12,0.77,-0.2,-114.6,-73.4,56.0,-1.39,1.93,0.17,0.0,0.8045495634204272,3.275133585061837,0.17526171246975242,0.35,0,4,0.0
4.777470812001411,272,282.81,96.0,2.9,-28.5,2.76,1.9,-0.92,0.11,0.87,-0.17,-115.3,-70.2,32.0,-1.37,1.87,-0.14,0.0,0.8932524839036273,3.4747661791838595,0.08482761614682122,0.35,0,4,0.0
4.786926418000803,273,282.82,96.3,2.9,-28.7,3.03,1.37,-0.65,0.1,1.0,-0.08,-115.9,-67.6,21.0,-1.36,1.81,0.11,0.0,1.0081666528902848,3.388259140030467,0.029484821783039572,0.35,0,4,0.0
4.797564910000801,274,282.83,96.6,2.9,-28.8,2.89,0.64,-0.4,0.05,1.06,-0.11,-116.6,-65.3,31.0,-1.34,1.72,-0.25,0.0,1.0668645649753299,2.9869214921052074,0.08641907919072289,0.35,0,4,0.0
4.806868554000175,275,282.84,96.8,2.8,-28.9,2.38,0.26,-0.4,0.0,1.09,-0.24,-117.3,-60.0,58.0,-1.32,1.49,0.0,0.0,1.1161093136427096,2.4273442277518034,0.13295055130094058,0.35,0,4,0.0
4.81735063600172,276,282.85,97.0,2.8,-28.9,1.53,0.43,-0.66,-0.03,1.11,-0.32,-117.8,-51.5,80.0,-1.31,1.23,-0.1,0.0,1.1555950847939775,1.7208718720462601,0.16898759600316438,0.35,0,4,0.0
4.842683652001142,278,282.87,97.2,2.6,-29.1,0.35,1.27,-1.16,0.02,1.33,-0.21,-118.5,-24.1,149.0,-1.29,0.36,-0.11,0.0,1.3466254119093402,1.7552777557982098,0.35281756465615643,0.35,1,5,3.0
4.8509443560014915,279,282.88,97.3,2.5,-29.2,1.47,1.76,-0.61,-0.04,1.52,-0.14,-118.6,-6.0,172.0,-1.29,-0.08,-0.09,0.0,1.5269577597301112,2.3728885350980984,0.5224869142273889,0.35,0,5,3.0
4.858933640000032,280,282.89,97.4,2.5,-29.4,2.05,1.81,0.18,-0.2,1.55,-0.1,-118.6,4.4,76.0,-1.29,-0.08,0.26,3.49,1.5660459763365826,2.740620367726986,0.5503436282171832,0.35,0,5,3.0
4.866860795000321,281,282.9,97.6,2.6,-29.6,2.16,1.52,0.69,-0.08,1.69,-0.1,-118.4,48.8,681.0,-1.32,-3.93,2.78,3.49,1.6948451256678292,2.729853475921373,0.6655599219974613,0.35,0,5,3.0
4.8772090900001785,282,282.91,97.8,2.7,-29.7,1.85,1.97,2.01,-0.01,1.97,0.0,-116.7,218.7,1392.0,-1.39,-8.54,2.79,3.49,1.9700253805471646,3.3680112826414343,0.9219253733392607,0.35,0,5,3.0
4.8873201470014465,283,282.92,97.9,3.0,-29.9,0.36,1.88,3.1,-0.05,1.77,0.05,-113.3,381.1,1504.0,-1.5,-12.59,2.91,3.49,1.7714118662806795,3.6433501067012486,0.7088456218913202,0.35,0,5,3.0
4.897425568000472,284,282.93,97.9,3.4,-30.0,-1.32,1.82,3.33,0.11,1.48,0.01,-108.5,529.7,1456.0,-1.66,-16.53,3.06,3.49,1.484115898439202,4.017922348677237,0.41311866096884575,0.35,0,5,3.0
4.906857136000326,285,282.94,97.6,3.7,-30.2,-2.87,2.13,2.84,0.27,1.13,0.02,-102.4,654.0,1234.0,-1.84,-19.62,3.85,3.49,1.1619810669714028,4.565019167539168,0.08916415291102564,0.35,0,5,3.0
4.917460293001568,286,282.95,97.3,4.0,-30.4,-3.42,2.45,1.94,0.41,0.87,0.05,-94.9,763.1,1032.0,-2.03,-21.67,3.59,3.49,0.9630680142129111,4.632763753959401,0.10755392185051682,0.35,0,5,3.0
4.92694380300054,287,282.96,97.0,4.1,-30.6,-2.92,3.01,1.24,0.47,0.77,0.07,-86.8,851.8,919.0,-2.29,-24.16,2.49,3.49,0.9048204241726642,4.373111020772283,0.16248548165294852,0.35,0,5,3.0
4.937479198000801,288,282.97,96.7,4.3,-31.0,-1.71,3.56,0.88,0.45,0.76,0.05,-77.6,911.4,637.0,-2.55,-25.51,3.17,3.49,0.8846468221838588,4.046245172996811,0.17900590196891875,0.35,0,5,3.0
4.9468698280015815,289,282.98,96.6,4.4,-31.3,0.1,4.29,0.69,0.4,0.76,0.01,-68.3,950.1,376.0,-2.81,-25.96,2.37,3.49,0.8588946384743591,4.346285770632207,0.2006629239648502,0.35,0,5,3.0
4.957354904001477,290,282.99,96.7,4.5,-31.8,1.43,4.71,0.54,0.26,0.94,0.06,-58.6,953.7,64.0,-3.06,-25.72,3.26,3.49,0.9771386800244887,4.95182794531474,0.08077050476642611,0.35,0,5,3.0
4.972245251999993,291,283.0,96.8,4.6,-32.3,1.24,4.58,0.55,0.14,1.07,0.1,-47.8,952.1,14.0,-3.43,-25.7,2.93,3.49,1.0837435120913066,4.776662014419693,0.02531764075438403,0.35,0,5,3.0
4.981957813000918,292,283.01,96.8,4.7,-32.7,0.17,4.21,0.42,0.04,1.13,0.09,-34.9,940.1,-40.0,-3.68,-25.55,3.61,3.49,1.134283915075939,4.2343122227818775,0.07434088286423601,0.35,0,5,3.0
4.990746230001605,293,283.02,96.7,4.8,-33.1,-0.78,3.75,0.14,-0.02,1.09,0.05,-25.6,924.9,-119.0,-3.93,-25.01,3.62,3.49,1.0913294644606641,3.832818806048624,0.03075870360398203,0.35,0,5,3.0
5.00178959600089,294,283.03,96.6,4.8,-33.4,-1.17,3.46,-0.2,-0.06,1.02,0.03,-16.5,904.8,-109.0,-4.18,-24.61,3.62,3.49,1.0222035022440492,3.657936576814858,0.03759991344038016,0.35,0,5,3.0
5.010848788000658,295,283.04,96.5,4.8,-33.8,-1.04,3.19,-0.52,-0.06,0.92,0.04,-7.6,881.8,-292.0,-4.42,-23.44,3.18,3.49,0.9228217596047463,3.395305582712696,0.1342420229580894,0.35,0,5,3.0
5.022016974000508,296,283.05,96.3,4.8,-34.1,-0.8,2.95,-0.73,-0.03,0.86,0.03,0.7,826.1,-530.0,-4.64,-21.55,0.85,0.0,0.8610458756651703,3.1425149164323787,0.1920975487597122,0.35,0,5,3.0
5.030841557001622,297,283.06,96.3,4.8,-34.4,-0.52,2.86,-0.7,0.0,0.82,0.03,7.9,642.6,-1966.0,-4.8,-13.68,1.12,0.0,0.8205485969764374,2.9899832775452104,0.22794293089947626,0.35,0,5,0.0
5.042059651001182,298,283.07,96.2,4.7,-34.7,0.05,2.53,-0.85,0.07,0.73,0.05,12.4,371.7,-2237.0,-4.89,-7.36,0.84,0.0,0.735051018637482,2.6694381431304977,0.30717169905366315,0.35,0,5,0.0
5.050857087000622,299,283.08,96.2,4.6,-34.9,0.95,2.39,-1.19,0.09,0.77,0.03,14.6,158.9,-2086.0,-4.93,-1.98,0.66,0.0,0.7758221445666525,2.833848972687147,0.26107256166200277,0.35,0,5,0.0
5.062227954000264,300,283.09,96.3,4.5,-35.2,1.08,2.3,-1.24,0.08,0.82,0.0,15.0,-4.3,-1550.0,-4.92,1.28,0.1,0.0,0.8238931969618392,2.8273662656260155,0.20874147908147977,0.35,0,5,0.0
5.070813209000335,301,283.1,96.3,4.5,-35.4,0.78,2.29,-1.19,0.05,0.8,0.0,14.5,-52.2,-582.0,-4.91,1.26,-0.16,0.0,0.8015609770940699,2.6960341244131167,0.22645222497026407,0.35,0,5,0.0
5.082172222000736,302,283.11,96.3,4.4,-35.6,0.47,2.04,-1.08,-0.01,0.79,-0.01,14.1,-29.2,-3.0,-4.9,0.38,-0.47,0.0,0.7901265721389201,2.355610324310878,0.23312889732690567,0.35,0,5,0.0
5.090766857001654,303,283.12,96.4,4.3,-35.8,0.63,1.6,-1.07,-0.05,0.74,-0.01,14.1,2.2,164.0,-4.9,-0.27,-0.14,0.0,0.7417546764261078,2.025290102676651,0.2758707771789237,0.35,0,5,0.0
5.102134398000999,304,283.13,96.5,4.2,-36.0,1.23,1.15,-1.21,-0.07,0.73,-0.03,14.2,6.1,6.0,-4.9,0.0,-0.04,0.0,0.7339618518697003,2.073523571122354,0.27799032970062465,0.35,0,5,0.0
5.1108955050003715,305,283.14,96.6,4.1,-36.1,1.92,0.74,-1.37,-0.09,0.76,-0.05,14.1,-3.8,-33.0,-4.9,0.12,0.03,0.0,0.7669419795525604,2.472023462671825,0.2401099979774094,0.35,0,5,0.0
5.122015130000364,306,283.15,96.8,3.9,-36.2,2.2,0.48,-1.4,-0.13,0.84,-0.07,14.1,0.0,22.0,-4.9,-0.03,-0.05,0.0,0.8528774824088158,2.651490147068248,0.15109100521873098,0.35,0,5,0.0
5.130753196001024,307,283.16,97.0,3.8,-36.2,2.0,0.24,-1.31,-0.16,0.91,-0.08,14.1,0.1,-1.0,-4.9,0.0,-0.15,0.0,0.9274157643689264,2.402852471542937,0.07502166879344807,0.35,0,5,0.0
5.142108462001488,308,283.17,97.2,3.7,-36.2,1.89,-0.03,-1.23,-0.18,0.95,-0.1,14.1,0.1,0.0,-4.9,0.0,-0.11,0.0,0.97205966895042,2.2551940049583314,0.029770208927715425,0.35,0,5,0.0
5.150783711000258,309,283.18,97.4,3.6,-36.2,1.66,-0.36,-1.09,-0.19,0.99,-0.14,14.1,0.2,-1.0,-4.9,0.0,0.06,0.0,1.017742600071354,2.018241809100188,0.015594467749354246,0.35,0,5,0.0
5.162078934001329,310,283.19,97.6,3.5,-36.2,1.17,-0.69,-0.88,-0.16,1.03,-0.17,14.1,0.0,-1.0,-4.9,0.0,-0.15,0.0,1.0561249926026748,1.6184560543925806,0.05289732307506134,0.35,0,5,0.0
5.17082561800089,311,283.2,97.6,3.4,-36.1,0.7,-0.86,-0.62,-0.11,1.02,-0.2,14.1,0.1,6.0,-4.9,-0.03,0.11,0.0,1.0452272480183435,1.2704329970525796,0.04115958692091559,0.35,0,5,0.0
5.182045742001719,312,283.21,97.7,3.3,-36.0,0.3,-0.85,-0.34,-0.07,0.99,-0.23,14.1,0.4,-5.0,-4.9,0.01,0.06,0.0,1.0187737727287645,0.9633794683301071,0.014411989398709801,0.35,0,5,0.0
5.190748393000831,313,283.22,97.7,3.3,-36.0,-0.02,-0.77,-0.08,-0.05,0.96,-0.23,14.1,-1.1,-5.0,-4.9,0.01,-0.3,0.0,0.9884331034521253,0.7744029958619736,0.015610106280370739,0.35,0,5,0.0
5.202031399001498,314,283.23,97.7,3.3,-35.9,-0.08,-0.72,0.14,-0.02,0.93,-0.22,14.1,0.6,12.0,-4.9,-0.03,0.11,0.0,0.9558765610684259,0.7378346698278686,0.04720331569078873,0.35,0,5,0.0
5.210760839001523,315,283.24,97.7,3.3,-35.8,-0.04,-0.75,0.39,0.0,0.92,-0.21,14.1,0.0,-5.0,-4.9,0.0,-0.06,0.0,0.9436630754670864,0.8462860036654275,0.058228465266285556,0.35,0,5,0.0
5.222138936000192,316,283.25,97.7,3.3,-35.7,-0.17,-0.81,0.69,0.01,0.92,-0.22,14.1,-3.0,-29.0,-4.9,0.14,-0.07,0.0,0.9459915433025815,1.0775435026020992,0.054781997482174716,0.35,0,5,0.0
5.230842982000468,317,283.26,97.7,3.4,-35.6,-0.35,-0.84,0.92,0.0,0.92,-0.22,14.1,-8.5,-66.0,-4.9,0.38,0.07,0.0,0.9459386872308374,1.2940247292845681,0.053738156482840416,0.35,0,5,0.0
5.242178546001014,318,283.27,97.7,3.5,-35.5,-0.44,-0.86,1.07,-0.02,0.93,-0.24,13.9,-26.3,-170.0,-4.89,1.02,0.18,0.0,0.9606768447297979,1.4415616532080757,0.038219999004202365,0.35,0,5,0.0
5.2508894380007405,319,283.28,97.6,3.6,-35.4,-0.43,-0.85,1.14,-0.04,0.95,-0.25,13.4,-54.3,-266.0,-4.88,1.91,0.06,0.0,0.9831581764904364,1.4855975228843106,0.015423893898692587,0.35,0,5,0.0
5.26189094000074,320,283.29,97.6,3.7,-35.3,-0.65,-0.94,1.26,-0.03,0.97,-0.25,12.6,-88.5,-326.0,-4.85,2.86,0.16,0.0,1.0021476937058729,1.7010878872063018,0.003494310850409077,0.35,0,5,0.0
5.270902129001115,321,283.3,97.5,3.8,-35.2,-1.03,-0.99,1.4,-0.04,0.96,-0.25,11.5,-126.5,-358.0,-4.81,3.88,0.14,0.0,0.9928242543370907,2.0002499843769526,0.005712545948005632,0.35,0,5,0.0
5.281993524000427,322,283.31,97.4,4.0,-35.1,-1.29,-0.86,1.48,-0.05,0.94,-0.25,10.0,-162.8,-364.0,-4.77,4.88,-0.02,0.0,0.9739609848448756,2.1433851730382014,0.024084299131416298,0.35,0,5,0.0
5.290626677000546,323,283.32,97.2,4.1,-35.0,-1.59,-0.6,1.55,-0.07,0.92,-0.21,8.1,-199.6,-367.0,-4.71,5.89,0.19,0.0,0.946255779374689,2.30013043108429,0.05075371450957089,0.35,0,5,0.0
5.302080825000303,324,283.33,97.1,4.2,-34.9,-1.57,-0.39,1.54,-0.07,0.88,-0.16,5.8,-241.5,-435.0,-4.65,7.21,0.08,0.0,0.8971621926942753,2.2335174053496876,0.09785035516618479,0.35,0,5,0.0
5.310890416001712,325,283.34,97.0,4.4,-34.9,-1.03,-0.38,1.5,-0.04,0.83,-0.13,2.9,-308.3,-644.0,-4.56,9.3,0.22,0.0,0.8410707461325712,1.8588437266214717,0.15086296569333113,0.35,0,5,0.0
5.322037112000544,326,283.35,96.9,4.5,-34.8,-0.22,-0.64,1.4,0.01,0.79,-0.12,-0.5,-377.9,-677.0,-4.45,11.18,0.25,0.0,0.799124520960282,1.554991961394013,0.18895300704830786,0.35,0,5,0.0
5.330880254001386,327,283.36,97.0,4.6,-34.7,0.43,-0.73,1.28,0.09,0.77,-0.17,-4.8,-448.8,-646.0,-4.33,12.86,0.01,0.0,0.7936623967405789,1.5349918566559237,0.1905268286426507,0.35,0,5,0.0
5.342193322001549,328,283.37,97.1,4.7,-34.6,1.48,-0.33,1.04,0.12,0.78,-0.26,-9.6,-495.6,-490.0,-4.19,13.95,0.26,0.0,0.8309031231136396,1.8387223825254317,0.15022038022419826,0.35,0,5,0.0
5.3508506970010785,329,283.38,97.2,4.8,-34.6,1.86,-0.13,1.02,0.09,0.79,-0.26,-14.9,-532.5,-365.0,-4.05,14.72,0.11,0.0,0.8365404951345751,2.1252999788265186,0.14169134803919747,0.35,0,5,0.0
5.362196166001013,330,283.39,97.5,4.9,-34.6,2.5,-0.11,1.12,0.07,0.81,-0.28,-20.3,-542.1,-160.0,-3.9,14.83,-0.09,0.0,0.8598837130682265,2.7416236065514172,0.11598116750343512,0.35,0,5,0.0
5.370907449001606,331,283.4,97.8,5.0,-34.6,3.24,-0.21,1.12,0.02,0.82,-0.33,-25.8,-550.9,-79.0,-3.75,14.92,-0.15,0.0,0.8841379982785492,3.434545093604101,0.08989234464725016,0.35,0,5,0.0
5.381938986000023,332,283.41,98.1,5.1,-34.5,3.66,-0.34,0.99,-0.03,0.85,-0.38,-31.2,-547.7,-31.0,-3.6,14.96,-0.16,0.0,0.9315578350268973,3.806744015559754,0.04162305774092412,0.35,0,5,0.0
5.390611635000823,333,283.42,98.5,5.2,-34.5,3.88,-0.49,0.74,-0.08,0.92,-0.38,-36.7,-543.4,83.0,-3.45,14.51,0.0,0.0,0.9985990186255943,3.98021356210945,0.024909763340617452,0.35,0,5,0.0
5.402234421000685,334,283.43,98.9,5.3,-34.4,3.89,-0.62,0.37,-0.11,1.0,-0.43,-42.0,-526.8,121.0,-3.31,14.14,0.0,0.0,1.0940749517286281,3.956437791751565,0.1179779825147782,0.35,0,5,0.0
5.4108243780010525,335,283.44,99.3,5.3,-34.3,3.45,-0.7,-0.02,-0.14,1.09,-0.41,-47.2,-511.8,137.0,-3.17,13.75,-0.15,0.0,1.1729450114988342,3.52035509572543,0.1929110814392846,0.35,0,5,0.0
5.4221823830012,336,283.45,99.6,5.2,-34.2,2.77,-1.11,-0.51,-0.14,1.17,-0.31,-52.2,-496.3,189.0,-3.04,13.13,-0.25,0.0,1.2184416276539471,3.027391616557065,0.2336395436425096,0.35,0,5,0.0
5.43092891300148,337,283.46,99.8,5.1,-34.1,1.86,-1.67,-1.15,-0.08,1.26,-0.28,-56.9,-460.9,301.0,-2.91,12.13,-0.1,0.0,1.293213052826177,2.751545020529375,0.30224274943844465,0.35,0,5,0.0
5.441969966001125,338,283.47,100.0,4.9,-34.0,1.04,-1.78,-2.0,0.05,1.34,-0.3,-61.3,-431.2,304.0,-2.8,11.31,-0.09,0.0,1.3740815114104403,2.8722813232690143,0.3754489838622539,0.35,1,6,3.0
5.450823343000593,339,283.48,100.1,4.7,-33.9,0.36,-1.33,-2.89,0.17,1.4,-0.21,-65.4,-391.5,381.0,-2.69,10.13,-0.05,0.0,1.4258330898110056,3.201655821602316,0.41865655101756283,0.35,0,6,3.0
5.462196968001081,340,283.49,100.1,4.3,-33.8,0.22,-1.28,-4.0,0.34,1.46,-0.12,-69.0,-339.7,705.0,-2.6,7.56,2.4,3.49,1.5038616957685969,4.205567738130014,0.486751453835651,0.35,0,6,3.0
5.470883406000212,341,283.5,100.2,3.8,-33.8,0.58,-0.52,-4.88,0.57,1.66,-0.21,-71.2,-148.8,1747.0,-2.57,1.14,2.71,3.49,1.7676538122607603,4.941781055449543,0.7355326989212583,0.35,0,6,3.0
5.4821742180010915,342,283.51,100.1,3.4,-33.9,-1.32,0.44,-4.69,0.51,1.69,-0.15,-71.1,81.8,2059.0,-2.6,-4.88,2.66,3.49,1.7716376604712374,4.89204456234814,0.7247262161891006,0.35,0,6,3.0
5.49073688000135,343,283.52,99.9,2.9,-34.0,-2.92,1.2,-4.14,0.25,1.47,-0.05,-68.8,293.2,2053.0,-2.69,-10.39,2.5,3.49,1.4919450392021818,5.206342286096833,0.4361329230216442,0.35,0,6,3.0
5.502182426000218,344,283.53,99.5,2.6,-34.2,-3.49,1.04,-2.81,-0.08,1.26,0.19,-64.5,483.5,1900.0,-2.83,-15.31,3.06,3.49,1.2767536959022285,4.599760863349311,0.21652274812725714,0.35,0,6,3.0
5.510727914001109,345,283.54,99.2,2.4,-34.3,-2.71,0.26,-1.37,-0.33,1.12,0.28,-58.5,633.8,1410.0,-3.01,-18.31,3.8,3.49,1.200708124399931,3.0477204596222403,0.13766763309246022,0.35,0,6,3.0
5.52192677900166,346,283.55,99.0,2.4,-34.3,-0.97,-0.93,-0.2,-0.52,1.02,0.35,-51.7,694.9,658.0,-3.2,-18.82,3.32,3.49,1.197205078505767,1.3586022228746721,0.13148129545433052,0.35,0,6,3.0
5.530891888000042,347,283.56,99.0,2.3,-34.1,0.31,-2.28,0.47,-0.56,1.03,0.4,-45.1,630.8,-529.0,-3.36,-15.41,4.24,3.49,1.2387493693237548,2.3484888758518743,0.16956507454687197,0.35,0,6,3.0
5.5421375060013816,348,283.57,99.1,2.4,-33.8,-0.24,-3.77,0.81,-0.45,1.15,0.35,-39.9,466.4,-1406.0,-3.48,-10.2,4.16,3.49,1.2835497652993435,3.8634958263210275,0.2100781611120115,0.35,0,6,3.0
5.550898451001558,349,283.58,98.9,2.4,-33.3,-2.32,-4.98,0.69,-0.15,1.14,0.28,-36.6,263.2,-1821.0,-3.55,-4.66,4.14,3.49,1.183427226321923,5.537047949945892,0.1077565096918991,0.35,0,6,3.0
5.562192854000386,350,283.59,98.6,2.3,-32.8,-4.41,-5.78,0.14,0.19,1.08,0.17,-35.3,66.4,-1812.0,-3.56,0.18,3.79,3.49,1.109684639886486,7.2715954232891695,0.03333364479133283,0.35,0,6,3.0
5.570893228001296,351,283.6,98.1,2.2,-32.2,-5.93,-5.55,-0.41,0.48,0.97,-0.05,-35.6,-46.6,-1101.0,-3.54,1.92,3.54,3.49,1.0834205093129814,8.13237357725283,0.006928123933471753,0.35,0,6,3.0
5.582054380000045,352,283.61,97.5,2.1,-31.8,-7.02,-3.69,-0.35,0.54,0.96,-0.22,-36.4,-89.1,-560.0,-3.52,2.6,3.6,3.49,1.1232096865679178,7.938450730463721,0.04578295516464004,0.35,0,6,3.0
5.59047058500073,353,283.62,96.8,2.1,-31.5,-6.67,-1.79,0.47,0.43,0.87,-0.08,-37.4,-104.9,-303.0,-3.49,3.06,3.61,3.49,0.973755616158387,6.921986709030869,0.10159769293999299,0.35,0,6,3.0
5.601673250001113,354,283.63,96.3,2.2,-31.4,-3.7,-1.2,1.43,0.28,0.67,0.06,-38.5,-117.1,-196.0,-3.46,3.41,3.45,3.49,0.7286288492778749,4.144261092161062,0.3397899706240951,0.35,0,6,3.0
5.610707310001089,355,283.64,96.1,2.3,-31.2,0.22,-1.24,1.76,0.21,0.61,0.04,-39.8,-128.2,-126.0,-3.42,3.61,3.33,3.49,0.6463745044476924,2.164162655624572,0.4136034291451921,0.35,0,6,3.0
5.622903334000512,356,283.65,96.3,2.5,-31.1,2.8,-1.13,1.53,0.19,0.8,-0.08,-41.1,-134.8,-88.0,-3.38,3.77,3.32,3.49,0.8261355820929154,3.384937222460706,0.22916550446996975,0.35,0,6,0.0
5.634893786000248,357,283.66,96.6,2.6,-31.0,2.48,-0.58,1.41,0.15,1.0,-0.13,-42.5,-140.0,-72.0,-3.35,3.91,3.56,3.49,1.0195096860746344,2.9111681504165987,0.035075572478485695,0.35,0,6,0.0
5.642855204001535,358,283.67,96.7,2.8,-30.9,0.47,-0.6,1.42,0.12,1.11,-0.06,-43.9,-150.9,-249.0,-3.3,4.98,0.86,0.0,1.1180787092150535,1.611614097729354,0.06222358164869468,0.35,0,6,0.0
5.650705167001433,359,283.68,96.6,3.0,-30.8,-1.45,-0.95,1.38,0.1,1.03,-0.09,-46.1,-268.1,-1028.0,-3.22,9.03,0.68,0.0,1.0387492478938312,2.215716588374966,0.016763762079077038,0.35,0,6,0.0
5.662195782000708,360,283.69,96.4,3.1,-30.7,-2.08,-1.2,1.14,0.19,0.86,-0.13,-49.8,-397.9,-1117.0,-3.11,12.14,0.4,0.0,0.8902808545621994,2.658194876227099,0.16192751230249458,0.35,0,6,0.0
5.670811034000508,361,283.7,96.3,3.2,-30.6,-1.46,-1.02,0.81,0.19,0.75,-0.19,-54.4,-485.2,-820.0,-2.98,13.84,0.29,0.0,0.7966806135459805,1.9565530915362352,0.2504171982523391,0.35,0,6,0.0
5.6823478390015225,362,283.71,96.2,3.2,-30.5,-0.01,-0.44,0.56,0.16,0.79,-0.21,-59.6,-539.6,-629.0,-2.83,15.28,0.28,0.0,0.8329465769183519,0.7122499561249548,0.20986821018236834,0.35,0,6,0.0
5.690807966000648,363,283.72,96.3,3.3,-30.5,1.13,-0.1,0.75,0.12,0.88,-0.17,-65.3,-572.2,-352.0,-2.67,15.76,-0.08,0.0,0.904267659490264,1.3599264686004164,0.13577618505824718,0.35,0,6,0.0
5.702164365000499,364,283.73,96.4,3.4,-30.5,1.99,0.13,0.99,0.1,0.93,-0.2,-71.1,-589.7,-198.0,-2.51,16.05,0.32,0.0,0.9565040512198577,2.226454580717963,0.08186899746208032,0.35,0,6,0.0
5.710618316001273,365,283.74,96.7,3.5,-30.5,2.17,0.35,1.23,0.09,1.01,-0.22,-77.0,-584.7,-18.0,-2.35,15.83,-0.16,0.0,1.0375933692926145,2.5187893917515214,0.0007640858015369734,0.35,0,6,0.0
5.721949785000106,366,283.75,97.0,3.7,-30.5,1.75,0.55,1.37,0.08,1.01,-0.24,-82.8,-576.4,55.0,-2.2,15.57,-0.07,0.0,1.0412012293500235,2.289519600265523,0.0027868987707546644,0.35,0,6,0.0
5.7308170160013105,367,283.76,97.2,3.8,-30.5,1.15,0.61,1.29,0.09,0.98,-0.23,-88.5,-569.5,91.0,-2.04,15.24,0.04,0.0,1.010643359449811,1.8326756396045645,0.027215551706868624,0.35,0,6,0.0
5.742208982001102,368,283.77,97.3,4.0,-30.6,0.42,0.5,1.1,0.09,0.94,-0.22,-94.0,-541.7,229.0,-1.9,14.41,-0.14,0.0,0.9695875411740809,1.2792185114357906,0.0669059425829468,0.35,0,6,0.0
5.750729760000468,369,283.78,97.3,4.1,-30.6,-0.11,0.37,0.9,0.11,0.88,-0.24,-99.3,-518.7,249.0,-1.76,13.69,-0.14,0.0,0.9187491496594704,0.9792854537876073,0.11538944741560608,0.35,0,6,0.0
5.76202972000101,370,283.79,97.3,4.2,-30.6,-0.4,0.19,0.71,0.12,0.88,-0.19,-104.2,-485.0,297.0,-1.62,12.82,-0.08,0.0,0.9082400563727632,0.8367795408588812,0.12338056988826696,0.35,0,6,0.0
5.770735183001307,371,283.8,97.3,4.2,-30.6,-0.7,0.09,0.52,0.15,0.82,-0.22,-108.9,-454.4,335.0,-1.5,11.84,-0.09,0.0,0.8621484790916236,0.8766413177577247,0.16608270422601845,0.35,0,6,0.0
5.7821198440015,372,283.81,97.2,4.3,-30.6,-0.83,0.06,0.34,0.18,0.81,-0.21,-113.1,-413.1,373.0,-1.39,10.78,-0.27,0.0,0.8559205570612264,0.8989438247187641,0.16886441373128747,0.35,0,6,0.0
5.7907847950009455,373,283.82,97.1,4.3,-30.6,-0.97,0.1,0.11,0.21,0.82,-0.23,-117.0,-376.2,379.0,-1.29,9.74,-0.09,0.0,0.8771544903835355,0.9813256340277675,0.14467787080079875,0.35,0,6,0.0
5.802134529001705,374,283.83,97.0,4.3,-30.6,-1.21,0.25,-0.09,0.22,0.79,-0.26,-120.5,-335.4,398.0,-1.2,8.62,0.0,0.0,0.8602906485601247,1.2388300932734884,0.1583108783717253,0.35,0,6,0.0
5.810870148001413,375,283.84,96.8,4.3,-30.7,-1.71,0.51,-0.34,0.23,0.76,-0.29,-123.6,-295.8,401.0,-1.12,7.52,-0.32,0.0,0.8453401682163223,1.81653516343615,0.1697961315412172,0.35,0,6,0.0
5.822008312999969,376,283.85,96.6,4.2,-30.8,-2.2,0.88,-0.66,0.23,0.72,-0.31,-126.2,-252.1,440.0,-1.06,6.26,-0.15,0.0,0.816945530620004,2.459674775249769,0.19422695375478471,0.35,0,6,0.0
5.830733590000818,377,283.86,96.4,4.2,-30.9,-2.33,1.25,-0.97,0.24,0.69,-0.29,-128.4,-203.1,478.0,-1.0,4.91,-0.33,0.0,0.7860025445251433,2.8164339154327767,0.2206665410526525,0.35,0,6,0.0
5.8420066490016325,378,283.87,96.2,4.1,-31.0,-1.94,1.56,-1.1,0.25,0.72,-0.3,-130.1,-154.8,480.0,-0.96,3.6,-0.12,0.0,0.8190848551890091,2.7216171663185844,0.18383254578101105,0.35,0,6,0.0
5.850636850000228,379,283.88,96.0,4.0,-31.2,-1.24,2.06,-0.98,0.2,0.73,-0.3,-131.3,-107.4,468.0,-0.93,2.37,-0.25,0.0,0.814186710773395,2.596459127350169,0.18495607639269263,0.35,0,6,0.0
5.862048782000784,380,283.89,95.9,3.9,-31.5,-0.08,2.3,-0.86,0.11,0.71,-0.27,-132.1,-61.0,461.0,-0.92,1.1,-0.16,0.0,0.7675285010994706,2.4568272222523095,0.2269820003452847,0.35,0,6,0.0
5.870675877000394,381,283.9,96.0,3.9,-31.7,1.16,2.35,-0.8,0.04,0.73,-0.25,-132.4,-16.0,442.0,-0.92,-0.06,-0.04,0.0,0.7726577508832743,2.740091239356821,0.21741569555025142,0.35,0,6,0.0
5.882090052000422,382,283.91,96.1,3.8,-31.9,2.02,2.14,-0.79,-0.01,0.75,-0.21,-132.3,15.9,313.0,-0.92,-0.68,0.0,0.0,0.7789094941005662,3.046982113501817,0.20694067328630028,0.35,0,6,0.0
5.890762953000376,383,283.92,96.3,3.8,-32.1,2.32,1.66,-0.88,-0.02,0.78,-0.19,-132.0,28.2,142.0,-0.93,-0.78,-0.17,0.0,0.8030566605165541,2.985364299377883,0.17913763673290617,0.35,0,6,0.0
5.902274231000774,384,283.93,96.5,3.7,-32.3,2.19,1.27,-0.9,0.0,0.87,-0.18,-131.8,28.0,32.0,-0.94,-0.69,0.0,0.0,0.8884255736976508,2.6868196813333043,0.09189334908077329,0.35,0,6,0.0
5.910766387001786,385,283.94,96.7,3.6,-32.4,2.1,0.83,-0.73,0.01,0.96,-0.09,-131.5,18.0,-87.0,-0.94,-0.26,0.02,0.0,0.9642613753542137,2.3731413780051116,0.015736396475726222,0.35,0,6,0.0
5.922118185000727,386,283.95,96.9,3.5,-32.5,2.18,0.07,-0.48,0.02,1.0,-0.03,-131.5,0.9,-131.0,-0.94,0.12,-0.05,0.0,1.000649788887201,2.233315920330127,0.020238976716115853,0.35,0,6,0.0
5.9308418489999895,387,283.96,97.1,3.4,-32.4,2.07,-0.86,-0.36,0.04,1.03,-0.03,-131.5,-7.8,-71.0,-0.94,0.22,-0.18,0.0,1.031212878119741,2.270264301793956,0.049786024629682624,0.35,0,6,0.0
5.942121584001143,388,283.97,97.3,3.4,-32.3,1.59,-1.54,-0.36,0.04,1.08,-0.18,-131.6,-6.3,3.0,-0.94,0.09,-0.09,0.0,1.095627673984187,2.2426100864840506,0.11191680408424609,0.35,0,6,0.0
5.950694513001508,389,283.98,97.4,3.3,-32.2,1.04,-1.47,-0.42,0.03,1.11,-0.33,-131.6,0.0,35.0,-0.94,-0.03,0.19,0.0,1.1584040745784694,1.8490267710338864,0.1711993405849579,0.35,0,6,0.0
5.961984848001521,390,283.99,97.5,3.3,-32.0,0.58,-1.11,-0.58,0.01,1.08,-0.38,-131.6,0.2,2.0,-0.94,0.0,0.0,0.0,1.1449454135459909,1.3801811475310044,0.15458586596142976,0.35,0,6,0.0
5.970766452001044,391,284.0,97.6,3.2,-32.0,0.4,-0.68,-0.82,0.1,1.11,-0.4,-131.6,0.0,6.0,-0.94,0.0,0.33,0.0,1.1841030360572513,1.137892789325954,0.18986861870323635,0.35,0,6,0.0
5.98203614600061,392,284.01,97.6,3.1,-31.9,0.4,-0.13,-0.66,0.17,1.19,-0.38,-131.6,0.1,7.0,-0.94,-0.03,0.0,0.0,1.2607140833670416,0.7826237921249264,0.26115007269276613,0.35,0,6,0.0
5.990825495000536,393,284.02,97.7,3.0,-32.0,1.08,0.5,-0.26,0.18,1.18,-0.35,-131.6,1.2,0.0,-0.94,-0.02,0.05,0.0,1.2439051410778879,1.218195386627285,0.23945430779554022,0.35,0,6,0.0
6.002312519000043,394,284.03,97.8,3.0,-32.0,2.26,1.04,0.0,0.12,1.13,-0.33,-131.6,0.1,-3.0,-0.94,0.0,0.23,0.0,1.1833004690272035,2.4878102821557753,0.1752726430299587,0.35,0,6,0.0
6.014860625000438,395,284.04,98.1,3.1,-32.2,3.39,1.36,0.07,0.11,1.21,-0.27,-131.6,0.3,4.0,-0.94,-0.03,-0.13,0.0,1.2446284586172693,3.653299878192317,0.2318686199676241,0.35,0,6,0.0
6.0227858900016145,396,284.05,98.5,3.1,-32.3,3.82,1.49,0.37,0.11,1.4,-0.19,-131.6,1.6,11.0,-0.94,-0.06,0.1,0.0,1.4171097346359596,4.116964901477787,0.3962628980665881,0.35,1,7,3.0
6.0308259110006475,397,284.06,98.9,3.2,-32.4,3.57,1.46,0.99,0.09,1.61,-0.08,-131.6,2.8,12.0,-0.94,-0.09,0.23,0.0,1.6144968256394934,3.9820346558009763,0.5817769892887195,0.35,0,7,3.0
6.042227237001498,398,284.07,99.1,3.4,-32.5,2.59,1.16,1.75,0.05,1.74,-0.05,-131.5,24.6,457.0,-0.95,-2.16,2.65,3.49,1.741436188896969,3.334096579285009,0.6945420254952712,0.35,0,7,3.0
6.050785029001418,399,284.08,99.3,3.6,-32.6,0.91,1.13,2.28,0.03,1.67,-0.07,-130.2,189.2,1418.0,-1.01,-7.53,2.81,3.49,1.6717356250316615,2.7024803422041757,0.6123446323973645,0.35,0,7,3.0
6.062011179001274,400,284.09,99.2,3.9,-32.7,-1.04,1.27,2.53,0.06,1.44,-0.06,-126.9,385.2,1785.0,-1.12,-12.93,3.29,3.49,1.442497833620557,3.015858086846926,0.37544470416653475,0.35,0,7,3.0
6.070690596001441,401,284.1,99.0,4.1,-32.8,-1.78,1.55,2.23,0.17,1.15,-0.02,-121.7,574.8,1766.0,-1.28,-17.65,2.78,3.49,1.162669342504566,3.247121802458294,0.09370388878953295,0.35,0,7,3.0
6.082196966000993,402,284.11,98.8,4.4,-33.0,-1.85,1.94,1.74,0.26,0.95,0.0,-114.8,738.6,1648.0,-1.49,-21.93,3.62,3.49,0.9849365461794988,3.1958879830181783,0.0823483293848235,0.35,0,7,3.0
6.090771865001443,403,284.12,98.7,4.5,-33.2,-1.34,2.57,1.13,0.28,0.82,0.03,-106.4,892.2,1522.0,-1.74,-25.89,2.83,3.49,0.8670063436907482,3.110851973334636,0.1962729612361025,0.35,0,7,3.0
6.102231859000312,404,284.13,98.6,4.7,-33.4,-0.66,3.05,0.75,0.27,0.83,0.09,-96.7,987.6,872.0,-2.01,-27.12,1.37,3.49,0.8774394566008529,3.2094547823579007,0.18212305135947793,0.35,0,7,3.0
6.110883715000455,405,284.14,98.5,4.8,-33.7,0.01,3.45,0.47,0.27,0.8,0.04,-87.7,1002.5,384.0,-2.26,-27.27,2.21,3.49,0.8452810183601664,3.4818816751865653,0.20999585980816105,0.35,0,7,3.0
6.122075095001492,406,284.15,98.5,4.9,-34.1,0.21,4.03,0.32,0.25,0.86,0.04,-77.7,986.6,-89.0,-2.52,-26.29,1.86,3.49,0.8964931678490361,4.048135373230496,0.15560803611290563,0.35,0,7,3.0
6.130646339001032,407,284.16,98.5,5.0,-34.5,-0.07,4.16,0.32,0.2,0.93,0.07,-68.0,961.4,-121.0,-2.78,-26.02,2.9,3.49,0.9538343671728338,4.172876705583332,0.09630150005332583,0.35,0,7,3.0
6.142205266000019,408,284.17,98.4,5.0,-34.9,-0.39,4.08,0.28,0.14,1.0,0.08,-58.5,957.7,-97.0,-3.04,-25.82,3.12,3.49,1.012916580968048,4.108150435414944,0.03647490053294922,0.35,0,7,3.0
6.150760579001144,409,284.18,98.3,5.1,-35.3,-0.61,3.81,0.08,0.07,1.01,0.08,-48.9,961.0,18.0,-3.31,-26.15,2.73,3.49,1.0155786527886455,3.859352277261043,0.033136572138104725,0.35,0,7,3.0
6.16224469000008,410,284.19,98.2,5.2,-35.7,-0.37,3.48,-0.37,0.02,1.01,0.07,-39.3,950.3,-128.0,-3.56,-25.57,3.76,3.49,1.0126203632161461,3.5191192079837252,0.035372964476392044,0.35,0,7,3.0
6.170857553001042,411,284.2,98.2,5.1,-36.0,-0.45,2.99,-0.78,-0.02,1.02,0.06,-29.9,936.1,-147.0,-3.82,-25.2,3.45,3.49,1.0219589032832974,3.122659123247365,0.02551373592105599,0.35,0,7,3.0
6.182162408000295,412,284.21,98.1,5.1,-36.3,-0.95,2.62,-0.95,-0.05,1.03,0.05,-20.7,916.0,-223.0,-4.07,-24.58,3.62,3.49,1.0324243313676793,2.944384485762687,0.014747341679940629,0.35,0,7,3.0
6.190845077000631,413,284.22,97.9,5.0,-36.5,-1.32,2.28,-0.87,-0.02,0.96,0.07,-11.6,900.9,-208.0,-4.31,-24.06,3.23,3.49,0.9627564593395361,2.774472922917072,0.08272690943392202,0.35,0,7,3.0
6.202810850001697,414,284.23,97.8,5.0,-36.8,-1.1,2.07,-0.8,0.01,0.9,0.06,-2.9,861.4,-393.0,-4.54,-22.7,4.74,3.49,0.9020532135079394,2.476873028639135,0.14056155216020827,0.35,0,7,0.0
6.210623246000978,415,284.24,97.7,4.9,-37.0,-0.85,1.97,-0.66,0.06,0.86,0.02,5.1,765.1,-1272.0,-4.74,-17.72,1.16,0.0,0.8623224454924039,2.24477170331417,0.1766864737722289,0.35,0,7,0.0
6.22227726500023,416,284.25,97.6,4.9,-37.2,-0.81,1.95,-0.58,0.13,0.81,0.0,10.9,492.0,-2224.0,-4.87,-10.29,1.11,0.0,0.8203657720797475,2.189748844045819,0.21427028424118766,0.35,0,7,0.0
6.230863983000745,417,284.26,97.5,4.9,-37.4,0.27,1.96,-0.99,0.17,0.73,-0.02,14.2,253.8,-2251.0,-4.93,-4.19,1.0,0.0,0.7497999733262198,2.2123742902140227,0.2791393613348211,0.35,0,7,0.0
6.242294852001578,418,284.27,97.6,4.8,-37.6,0.61,1.79,-1.48,0.13,0.77,-0.07,15.2,50.9,-1948.0,-4.93,0.54,0.42,0.0,0.7840280607223188,2.401374606345291,0.24001304845994775,0.35,0,7,0.0
6.25072142099998,419,284.28,97.6,4.6,-37.8,0.36,1.84,-1.78,0.05,0.81,-0.09,14.9,-50.1,-986.0,-4.92,1.55,0.08,0.0,0.8165169930871005,2.5852659437667143,0.20337363377326267,0.35,0,7,0.0
6.26247247000174,420,284.29,97.6,4.5,-38.0,0.07,1.77,-1.9,-0.04,0.85,-0.08,14.4,-48.3,-234.0,-4.91,1.04,-0.16,0.0,0.8546929273136639,2.5976527866518264,0.1618937455557652,0.35,0,7,0.0
6.270888063001621,421,284.3,97.6,4.3,-38.2,0.03,1.41,-1.92,-0.11,0.83,-0.09,14.1,-24.7,81.0,-4.9,0.35,-0.08,0.0,0.8420807562223471,2.3823098035310184,0.17101579831414027,0.35,0,7,0.0
6.282199086001128,422,284.31,97.6,4.1,-38.3,0.78,1.08,-1.97,-0.14,0.86,-0.11,14.0,-1.2,157.0,-4.9,-0.16,0.07,0.0,0.8782368700982668,2.3781715665611682,0.1321624907494563,0.35,0,7,0.0
6.290845617000741,423,284.32,97.7,3.9,-38.4,1.07,0.65,-1.87,-0.15,0.94,-0.12,14.0,4.5,31.0,-4.9,-0.01,0.07,0.0,0.9594269122762816,2.2503999644507644,0.04995299960001265,0.35,0,7,0.0
6.302342575001603,424,284.33,97.8,3.8,-38.5,0.67,0.26,-1.58,-0.14,1.0,-0.17,14.0,-2.3,-11.0,-4.9,0.05,0.01,0.0,1.0239628899525608,1.7357707221865453,0.01429131851474108,0.35,0,7,0.0
6.310810452001533,425,284.34,97.8,3.6,-38.6,-0.07,0.12,-1.26,-0.13,1.01,-0.22,14.0,-0.4,17.0,-4.9,-0.03,0.07,0.0,1.0418253212511202,1.26763559432512,0.0315106748170344,0.35,0,7,0.0
6.322097911001038,426,284.35,97.8,3.5,-38.6,-0.73,0.14,-1.02,-0.1,0.98,-0.23,14.0,1.2,8.0,-4.9,-0.03,0.07,0.0,1.0115829180052418,1.2621014222319853,0.001242906139732991,0.35,0,7,0.0
6.330893563001155,427,284.36,97.7,3.4,-38.6,-0.89,0.14,-0.84,-0.06,0.93,-0.21,14.0,0.1,-3.0,-4.9,0.0,-0.07,0.0,0.9553009996854396,1.2317873193047573,0.05393823193646785,0.35,0,7,0.0
6.34215967000091,428,284.37,97.6,3.4,-38.6,-1.11,0.02,-0.58,-0.04,0.89,-0.19,14.0,-0.9,1.0,-4.9,0.0,0.16,0.0,0.9109335870413386,1.2525573839150046,0.09633953168895748,0.35,0,7,0.0
6.350840415001585,429,284.38,97.4,3.3,-38.6,-1.21,-0.15,-0.28,-0.02,0.84,-0.2,14.0,0.7,7.0,-4.9,-0.02,0.01,0.0,0.8637129152675673,1.2509996003196804,0.14068899939347412,0.35,0,7,0.0
6.362275188001149,430,284.39,97.3,3.3,-38.6,-0.83,-0.33,-0.02,-0.02,0.81,-0.2,14.0,-0.8,-11.0,-4.9,0.03,0.1,0.0,0.8345657553482531,0.893420393767682,0.16643943612653267,0.35,0,7,0.0
6.3708345480008575,431,284.4,97.3,3.3,-38.6,-0.19,-0.41,0.2,-0.02,0.82,-0.23,14.0,-1.0,-10.0,-4.9,0.06,0.07,0.0,0.8518802732778825,0.49416596402423346,0.14614241983296516,0.35,0,7,0.0
6.382156309000493,432,284.41,97.3,3.3,-38.5,0.04,-0.44,0.43,-0.04,0.87,-0.23,14.0,-5.3,-37.0,-4.9,0.19,-0.18,0.0,0.9007774419910837,0.6165225056719341,0.0953003460973687,0.35,0,7,0.0
6.390906256001472,433,284.42,97.3,3.4,-38.5,-0.07,-0.5,0.57,-0.07,0.9,-0.23,13.9,-13.3,-81.0,-4.89,0.51,0.12,0.0,0.9315578350268974,0.7614459928320589,0.06322955400032393,0.35,0,7,0.0
6.402286765000099,434,284.43,97.3,3.4,-38.4,-0.38,-0.67,0.69,-0.1,0.94,-0.21,13.6,-31.4,-171.0,-4.89,1.13,0.04,0.0,0.9683491106000975,1.034117981663601,0.02590951285858134,0.35,0,7,0.0
6.41089378900142,435,284.44,97.2,3.5,-38.3,-0.68,-0.95,0.86,-0.13,0.96,-0.2,13.1,-58.0,-249.0,-4.87,1.94,0.35,0.0,0.9891915891272024,1.4506894912420094,0.004965693644847002,0.35,0,7,0.0
6.422265168001104,436,284.45,97.2,3.6,-38.2,-0.95,-1.25,1.07,-0.15,0.97,-0.19,12.3,-93.1,-342.0,-4.84,3.03,0.05,0.0,0.999749968742185,1.8999736840282815,0.0054808322507329255,0.35,0,7,0.0
6.430832454001575,437,284.46,97.1,3.7,-38.0,-1.14,-1.49,1.21,-0.16,0.93,-0.17,11.1,-134.0,-383.0,-4.8,4.14,0.21,0.0,0.9588534820294496,2.2324426084448397,0.034707341372762435,0.35,0,7,0.0
6.442166233000535,438,284.47,96.9,3.8,-37.9,-1.31,-1.61,1.28,-0.14,0.88,-0.18,9.5,-174.9,-402.0,-4.75,5.25,0.24,0.0,0.9090654541890809,2.4385651518874782,0.0828054618288685,0.35,0,7,0.0
6.450835529001779,439,284.48,96.8,3.9,-37.7,-1.16,-1.75,1.28,-0.1,0.83,-0.17,7.4,-217.2,-423.0,-4.69,6.44,0.19,0.0,0.8531119504496465,2.4589631961458878,0.13598378625693686,0.35,0,7,0.0
6.462150832001498,440,284.49,96.8,4.0,-37.5,-0.57,-1.99,1.17,-0.02,0.8,-0.19,4.9,-270.3,-576.0,-4.62,8.28,0.33,0.0,0.8224962005991274,2.377793094447034,0.16326754538530686,0.35,0,7,0.0
6.470825965001495,441,284.5,96.8,4.1,-37.2,0.18,-2.1,1.05,0.06,0.8,-0.23,1.7,-347.5,-675.0,-4.52,10.26,0.25,0.0,0.8345657553482531,2.3547611343828487,0.1481740308234576,0.35,0,7,0.0
6.482135434000156,442,284.51,96.8,4.1,-37.0,0.86,-2.05,0.92,0.12,0.82,-0.29,-2.2,-419.8,-723.0,-4.4,12.3,0.19,0.0,0.8780091115700337,2.405930173550346,0.1026360611096434,0.35,0,7,0.0
6.490743012000166,443,284.52,96.9,4.2,-36.8,1.25,-1.96,0.72,0.16,0.82,-0.33,-6.8,-481.2,-578.0,-4.27,13.62,0.25,0.0,0.8982761268117949,2.4336187047275915,0.08072166495052457,0.35,0,7,0.0
6.502031608000834,444,284.53,97.1,4.3,-36.6,1.73,-1.54,0.69,0.05,0.86,-0.37,-11.9,-523.6,-472.0,-4.13,14.73,0.17,0.0,0.9375499986667377,2.4167333324138185,0.0406188372336701,0.35,0,7,0.0
6.5106884980014,445,284.54,97.3,4.3,-36.5,1.88,-1.54,0.75,0.0,0.89,-0.36,-16.9,-551.5,-280.0,-3.98,15.06,0.36,0.0,0.9600520819205591,2.5433245958783948,0.017754418900251756,0.35,0,7,0.0
6.52218875500148,446,284.55,97.5,4.4,-36.3,2.56,-1.56,0.78,-0.04,0.89,-0.38,-23.0,-562.2,-188.0,-3.82,15.49,-0.14,0.0,0.9685556256612214,3.0976765486409326,0.009065857656397669,0.35,0,7,0.0
6.530912532000002,447,284.56,97.9,4.4,-36.1,3.15,-1.55,0.81,-0.1,0.93,-0.43,-28.7,-567.9,-50.0,-3.67,15.39,-0.08,0.0,1.029465880930495,3.6029293637261333,0.05080750966061842,0.35,0,7,0.0
6.542205564001051,448,284.57,98.2,4.5,-36.0,3.51,-1.52,0.88,-0.14,1.0,-0.39,-34.4,-568.0,-7.0,-3.51,15.35,0.05,0.0,1.082450922675019,3.9249076422254827,0.1017167003770395,0.35,0,7,0.0
6.550875923001513,449,284.58,98.6,4.5,-35.8,4.09,-1.62,0.62,-0.14,1.0,-0.39,-40.0,-555.1,95.0,-3.36,14.93,0.16,0.0,1.082450922675019,4.442623099026069,0.09968236636949868,0.35,0,7,0.0
6.562281435000841,450,284.59,99.0,4.6,-35.6,4.15,-1.7,0.29,-0.12,1.1,-0.4,-45.4,-542.4,114.0,-3.22,14.6,-0.03,0.0,1.1766052864066183,4.494062749895689,0.18995999549907605,0.35,0,7,0.0
6.570803181000883,451,284.6,99.4,4.5,-35.5,3.27,-1.52,-0.13,-0.08,1.17,-0.38,-50.8,-532.6,108.0,-3.07,14.3,-0.1,0.0,1.232761128524095,3.60835142412709,0.24119352086422163,0.35,0,7,0.0
6.582242700000279,452,284.61,99.7,4.5,-35.3,2.27,-1.46,-0.83,-0.01,1.18,-0.33,-55.9,-505.5,260.0,-2.94,13.34,-0.21,0.0,1.2253162856993292,2.823720949385757,0.2290737044786667,0.35,0,7,0.0
6.590904936001607,453,284.62,99.9,4.3,-35.2,1.64,-1.21,-1.65,0.13,1.25,-0.31,-60.8,-478.6,256.0,-2.81,12.65,0.09,0.0,1.2944110629935144,2.6222509414623154,0.292205112137395,0.35,0,7,0.0
6.602168111001447,454,284.63,100.1,4.1,-35.2,1.41,-0.58,-2.36,0.29,1.28,-0.24,-65.3,-442.5,350.0,-2.69,11.55,0.1,0.0,1.3342038824707416,2.809644105576363,0.3253579729823297,0.35,0,7,0.0
6.6108182840016525,455,284.64,100.2,3.8,-35.2,1.56,-0.22,-3.62,0.45,1.29,-0.09,-69.5,-405.0,362.0,-2.58,10.54,-0.29,0.0,1.3691968448692833,3.947961499305686,0.35314391667325395,0.35,1,8,3.0
6.6222767920007755,456,284.65,100.4,3.3,-35.3,2.72,0.25,-5.39,0.83,1.51,-0.3,-73.3,-362.1,434.0,-2.48,9.25,-0.29,0.0,1.7489997141223321,6.04259877867131,0.7182878502077767,0.35,0,8,3.0
6.63081300200065,457,284.66,100.7,2.8,-35.5,1.56,2.06,-6.35,0.8,1.66,-0.3,-76.5,-288.0,976.0,-2.41,5.63,2.67,3.49,1.8669761648183942,6.855632720617405,0.819539014885762,0.35,0,8,3.0
6.642138536000857,458,284.67,100.7,2.2,-35.9,-1.09,3.35,-6.01,0.48,1.47,-0.19,-77.9,-76.0,1854.0,-2.4,-0.77,2.76,3.49,1.5580115532305914,6.966397921451229,0.5003629152319999,0.35,0,8,3.0
6.650839735000773,459,284.68,100.5,1.8,-36.3,-2.23,3.61,-4.69,0.01,1.34,0.09,-77.1,147.0,2073.0,-2.45,-6.69,2.58,3.49,1.3430562162471087,6.324642282374554,0.27969942668354686,0.35,0,8,3.0
6.662139763000596,460,284.69,100.2,1.5,-36.7,-2.36,2.93,-2.45,-0.43,1.19,0.25,-74.2,358.9,2078.0,-2.55,-12.27,2.64,3.49,1.2897674208941703,4.489654775146971,0.22188241870399628,0.35,0,8,3.0
6.670834133001335,461,284.7,100.0,1.4,-37.0,-0.68,1.29,-0.19,-0.69,0.98,0.34,-69.2,551.1,1822.0,-2.71,-16.74,2.97,3.49,1.2458330546265017,1.4705781176122539,0.17438909138760117,0.35,0,8,3.0
6.682247148000897,462,284.71,100.2,1.4,-37.0,2.93,-0.58,0.77,-0.81,0.89,0.33,-62.9,664.4,1149.0,-2.89,-18.74,3.7,3.49,1.2478381305281547,3.0845096855091896,0.17286628394346915,0.35,0,8,3.0
6.69081967800048,463,284.72,100.6,1.5,-36.8,4.71,-2.31,1.43,-0.89,1.12,0.36,-56.1,662.7,59.0,-3.07,-17.12,4.17,3.49,1.4751610081614819,5.437379883730766,0.39218537834526046,0.35,0,8,3.0
6.702227229001437,464,284.73,101.0,1.6,-36.5,1.91,-4.07,2.01,-0.73,1.29,0.26,-50.1,560.5,-860.0,-3.22,-13.28,4.49,3.49,1.5048587973627294,4.924743648150632,0.4134455041955778,0.35,0,8,3.0
6.710622705000787,465,284.74,100.9,1.7,-35.9,-2.33,-5.54,1.8,-0.44,1.32,0.29,-45.7,386.7,-1476.0,-3.31,-8.32,4.26,3.49,1.4213022197970424,6.273794704961265,0.32329114809729287,0.35,0,8,3.0
6.722256779001327,466,284.75,100.5,1.7,-35.3,-5.15,-7.48,1.09,0.06,1.21,0.36,-43.2,230.1,-1577.0,-3.37,-3.95,4.14,3.49,1.2638433447227548,9.146638726876667,0.16251562756254523,0.35,0,8,3.0
6.730905928001448,467,284.76,100.0,1.7,-34.4,-6.51,-8.64,0.24,0.56,1.09,0.09,-42.0,65.1,-1448.0,-3.38,-0.21,3.88,3.49,1.2287391912037315,10.820688517834713,0.12486324456265141,0.35,0,8,3.0
6.742278968000392,468,284.77,99.3,1.5,-33.6,-7.96,-7.07,-0.03,0.75,1.03,-0.28,-42.0,-21.3,-801.0,-3.37,0.85,3.74,3.49,1.304530566909032,10.646473594575811,0.1966415278625928,0.35,0,8,3.0
6.750867539001774,469,284.78,98.4,1.5,-33.1,-9.25,-4.07,0.4,0.64,0.9,-0.23,-42.3,-37.3,-350.0,-3.36,1.12,3.71,3.49,1.1280514172678477,10.113723349983427,0.019759130656980428,0.35,0,8,3.0
6.762236332000612,470,284.79,97.6,1.5,-32.8,-7.21,-2.4,0.96,0.37,0.52,-0.06,-42.7,-38.4,-77.0,-3.35,0.9,3.32,3.49,0.6410148204214938,7.659353758640476,0.457931916865586,0.35,0,8,3.0
6.770826791000218,471,284.8,97.1,1.6,-32.6,-2.67,-2.41,0.93,0.18,0.5,0.09,-43.0,-19.3,133.0,-3.35,0.2,3.44,3.49,0.5389805191284746,3.7150908468030766,0.5487668937954332,0.35,0,8,3.0
6.782249468000373,472,284.81,97.1,1.6,-32.3,1.67,-2.72,1.36,0.09,0.6,0.02,-43.0,-1.2,105.0,-3.35,0.0,3.53,3.49,0.6070420084310475,3.469423583248376,0.47109129640300296,0.35,0,8,3.0
6.790869901000406,473,284.82,97.4,1.8,-32.0,3.7,-2.61,1.5,0.08,0.8,-0.1,-43.0,-0.4,33.0,-3.35,0.02,3.59,3.49,0.8101851640211638,4.7699161418205245,0.26258917799662884,0.35,0,8,0.0
6.8022542470007465,474,284.83,97.8,1.9,-31.7,3.22,-2.29,1.51,0.08,1.0,-0.12,-43.1,-2.1,-8.0,-3.35,0.1,3.47,3.49,1.0103464752252072,4.229964538858453,0.06117930945673389,0.35,0,8,0.0
6.810837436001748,475,284.84,98.0,2.1,-31.5,0.93,-1.85,1.32,0.06,1.16,-0.11,-43.2,-25.8,-470.0,-3.34,2.22,0.85,0.0,1.1667476162392618,2.4555651080759398,0.0933173949261743,0.35,0,8,0.0
6.822057035000398,476,284.85,97.9,2.2,-31.3,-2.09,-1.8,1.45,0.09,1.16,-0.09,-44.4,-171.5,-1166.0,-3.28,6.42,0.48,0.0,1.1669618674146982,3.1161835632709445,0.09166101317957853,0.35,0,8,0.0
6.830833983000048,477,284.86,97.5,2.3,-31.1,-3.6,-1.89,1.59,0.21,0.95,-0.13,-47.1,-302.6,-1172.0,-3.2,9.56,0.41,0.0,0.981580358401695,4.365798895963945,0.09184608591675614,0.35,0,8,0.0
6.842284813001243,478,284.87,97.2,2.5,-30.9,-2.64,-1.52,1.52,0.25,0.77,-0.22,-50.8,-401.6,-980.0,-3.08,11.89,0.29,0.0,0.8389278872465737,3.404467652952514,0.22980858593043973,0.35,0,8,0.0
6.850813896000545,479,284.88,97.1,2.6,-30.8,-0.88,-0.76,1.48,0.23,0.73,-0.21,-55.3,-462.3,-628.0,-2.96,13.01,0.07,0.0,0.7936623967405788,1.8821264569629745,0.269572594907706,0.35,0,8,0.0
6.8620327150001685,480,284.89,97.1,2.7,-30.7,0.92,-0.47,1.55,0.18,0.76,-0.13,-60.2,-501.1,-463.0,-2.82,14.03,0.02,0.0,0.7917701686727027,1.8627399174334565,0.26603552651607043,0.35,0,8,0.0
6.870806666000135,481,284.9,97.3,2.9,-30.6,2.26,-0.62,1.65,0.13,0.81,-0.13,-65.3,-520.7,-222.0,-2.68,14.23,-0.14,0.0,0.8306021911842035,2.8660949042207235,0.22265943392447818,0.35,0,8,0.0
6.882185173000835,482,284.91,97.5,3.0,-30.6,3.02,-0.63,1.63,0.1,0.83,-0.21,-70.6,-530.4,-124.0,-2.53,14.43,-0.12,0.0,0.8619744775803979,3.4891546254071346,0.1874614045777181,0.35,0,8,0.0
6.890828098001293,483,284.92,97.9,3.2,-30.5,2.98,-0.84,1.62,0.08,0.92,-0.21,-75.9,-522.0,41.0,-2.39,14.06,-0.23,0.0,0.9470480452437459,3.494338277843174,0.10034008017608265,0.35,0,8,0.0
6.902239674000157,484,284.93,98.2,3.4,-30.3,2.47,-0.92,1.51,0.06,0.93,-0.25,-81.0,-509.0,110.0,-2.25,13.63,-0.21,0.0,0.9648834126463156,3.03766357584246,0.08085461851804265,0.35,0,8,0.0
6.910918200001106,485,284.94,98.5,3.5,-30.2,1.87,-1.05,1.35,0.05,0.94,-0.28,-86.0,-495.6,105.0,-2.12,13.35,-0.06,0.0,0.982089608946149,2.534146799220598,0.06237545377384501,0.35,0,8,0.0
6.922154855001281,486,284.95,98.7,3.6,-30.1,1.17,-1.29,1.23,0.05,0.94,-0.29,-90.8,-477.2,230.0,-1.99,12.51,-0.13,0.0,0.9849873095629201,2.132111629347769,0.058288198093932375,0.35,0,8,0.0
6.930903456001033,487,284.96,98.8,3.7,-29.9,0.55,-1.51,1.12,0.07,0.92,-0.3,-95.4,-445.4,244.0,-1.87,11.87,-0.09,0.0,0.9702061636580135,1.9588261791185049,0.07160795711886214,0.35,0,8,0.0
6.942279219001648,488,284.97,98.8,3.8,-29.7,0.01,-1.73,0.9,0.1,0.87,-0.31,-99.7,-420.9,280.0,-1.76,11.02,-0.2,0.0,0.9289779329994874,1.950128200913981,0.11057946402184049,0.35,0,8,0.0
6.950871422001001,489,284.98,98.8,3.8,-29.6,-0.71,-1.83,0.54,0.16,0.83,-0.34,-103.7,-386.5,313.0,-1.65,10.13,0.17,0.0,0.9110982383914481,2.0358290694456644,0.1258899754572822,0.35,0,8,0.0
6.962140787001772,490,284.99,98.7,3.8,-29.4,-1.5,-1.66,0.07,0.22,0.79,-0.38,-107.3,-356.2,313.0,-1.56,9.26,0.08,0.0,0.9038252043398658,2.2384146175362596,0.13049974931868724,0.35,0,8,0.0
6.970837694001602,491,285.0,98.5,3.8,-29.2,-2.15,-1.21,-0.42,0.28,0.76,-0.4,-109.5,-332.8,420.0,-1.47,8.15,-0.26,0.0,0.9033271832508972,2.5025986494042547,0.12837781499950263,0.35,0,8,0.0
6.982165890000033,492,285.01,98.3,3.7,-29.2,-2.51,-0.6,-0.84,0.32,0.73,-0.39,-113.2,-283.0,442.0,-1.4,7.14,-0.23,0.0,0.8873556220591606,2.7139823138701544,0.14146238866741434,0.35,0,8,0.0
6.990826557001128,493,285.02,98.0,3.6,-29.2,-2.53,0.1,-1.14,0.34,0.72,-0.39,-115.8,-246.4,398.0,-1.33,6.11,-0.14,0.0,0.8866228059327146,2.776778709224053,0.13935130069798318,0.35,0,8,0.0
7.002134220001608,494,285.03,97.8,3.5,-29.2,-2.22,0.95,-1.31,0.32,0.71,-0.38,-118.0,-207.2,397.0,-1.28,5.05,-0.06,0.0,0.8665448632355973,2.7471803726730433,0.15624065852719837,0.35,0,8,0.0
7.010834573000466,495,285.04,97.6,3.4,-29.4,-1.38,1.72,-1.29,0.29,0.7,-0.34,-119.8,-167.5,398.0,-1.24,3.95,0.0,0.0,0.8304817878797824,2.5547798339583,0.18845765920535296,0.35,0,8,0.0
7.022212924000996,496,285.05,97.5,3.3,-29.6,-0.02,2.16,-1.16,0.24,0.7,-0.27,-121.2,-127.4,393.0,-1.2,2.91,-0.11,0.0,0.7877182237323191,2.4518564395168,0.2265967988857599,0.35,0,8,0.0
7.0309012530015025,497,285.06,97.6,3.2,-29.8,1.3,2.22,-1.1,0.19,0.72,-0.26,-122.2,-89.5,381.0,-1.18,1.87,0.01,0.0,0.7887331614684399,2.7979278046440013,0.22107022392664644,0.35,0,8,0.0
7.042285679000997,498,285.07,97.7,3.1,-30.1,1.91,2.23,-1.02,0.13,0.75,-0.28,-122.8,-51.4,374.0,-1.17,0.88,-0.15,0.0,0.8110487038396647,3.1082792667326404,0.19477958792431316,0.35,0,8,0.0
7.050895453001431,499,285.08,97.9,3.0,-30.3,2.17,2.11,-0.99,0.1,0.81,-0.25,-123.1,-16.1,349.0,-1.17,-0.01,-0.07,0.0,0.853580693314932,3.184509381364734,0.14920264648006476,0.35,0,8,0.0
7.062160408000636,500,285.09,98.2,3.0,-30.5,2.29,1.76,-0.74,0.04,0.94,-0.18,-123.1,6.7,213.0,-1.17,-0.29,-0.06,0.0,0.9579144011862437,2.9814929146318625,0.04397155983657797,0.35,0,8,0.0
7.07085195000036,501,285.1,98.4,2.9,-30.7,2.46,1.04,-0.42,0.0,1.02,-0.13,-123.0,9.6,49.0,-1.17,-0.12,-0.04,0.0,1.0282509421342632,2.7036271932350435,0.025837681489212727,0.35,0,8,0.0
7.0822792110011505,502,285.11,98.6,2.9,-30.7,2.34,0.28,-0.2,-0.07,1.04,-0.19,-123.0,-1.4,-43.0,-1.17,0.1,-0.11,0.0,1.0595281968876524,2.365163842104813,0.05597263751775006,0.35,0,8,0.0
7.09079846700115,503,285.12,98.8,2.9,-30.7,1.68,-0.13,-0.37,-0.1,1.01,-0.3,-123.0,-2.5,-4.0,-1.17,0.01,-0.05,0.0,1.058347768930421,1.7251666586159147,0.05369636536930833,0.35,0,8,0.0
7.102174370000284,504,285.13,98.9,2.8,-30.7,0.7,-0.18,-0.7,-0.07,1.04,-0.32,-123.0,0.5,4.0,-1.17,0.0,0.0,0.0,1.0903669107231748,1.0061808982484213,0.0840011970188208,0.35,0,8,0.0
7.110802052000508,505,285.14,99.0,2.7,-30.7,-0.12,-0.22,-1.01,-0.01,1.02,-0.34,-123.0,-0.3,1.0,-1.17,0.0,-0.1,0.0,1.0752209075348191,1.0406248123122954,0.06747808995385585,0.35,0,8,0.0
7.122365489000003,506,285.15,99.0,2.6,-30.7,0.03,-0.06,-1.16,0.09,1.11,-0.36,-123.0,0.0,-4.0,-1.17,0.01,0.02,0.0,1.1703845521878695,1.1619380362136356,0.15938889991476812,0.35,0,8,0.0
7.130787793001218,507,285.16,99.0,2.5,-30.7,0.8,0.21,-0.8,0.12,1.26,-0.29,-123.0,-0.8,-3.0,-1.17,0.02,0.0,0.0,1.2984991336154215,1.1506954418959,0.28175341171547363,0.35,0,8,0.0
7.14210438200098,508,285.17,99.2,2.5,-30.8,1.52,0.45,-0.23,0.05,1.3,-0.31,-123.0,0.0,5.0,-1.17,0.0,0.11,0.0,1.3373855091184441,1.6018114745499858,0.31422699147412647,0.35,0,8,0.0
7.1508009290009795,509,285.18,99.4,2.5,-30.8,1.88,0.93,0.12,0.0,1.32,-0.29,-123.0,-0.3,-2.0,-1.17,0.01,0.03,0.0,1.351480669488099,2.100880767678166,0.3217557088069056,0.35,0,8,0.0
7.16216290400007,510,285.19,99.6,2.5,-30.9,2.28,1.17,0.39,0.0,1.43,-0.21,-123.0,-0.5,1.0,-1.17,0.02,-0.05,0.0,1.4453373308677804,2.5921805492673538,0.4073001227828552,0.35,1,9,3.0
7.170899178001491,511,285.2,99.8,2.6,-31.1,2.75,1.28,1.12,0.0,1.69,-0.09,-123.0,0.0,6.0,-1.17,-0.01,0.1,0.0,1.6923947530053383,3.2334656330321496,0.6412703940220048,0.35,0,9,3.0
7.182154109001203,512,285.21,100.1,2.8,-31.2,2.24,1.16,2.41,-0.08,1.88,0.01,-123.0,9.8,257.0,-1.18,-1.25,2.95,3.49,1.8817279293245344,3.488739027213128,0.8139914989343768,0.35,0,9,3.0
7.190911346000576,513,285.22,100.2,3.1,-31.2,0.92,0.79,3.61,-0.1,1.88,0.01,-122.1,137.9,1133.0,-1.22,-5.75,2.83,3.49,1.8826842539310726,3.80822793435477,0.7986488670700969,0.35,0,9,3.0
7.20239376400059,514,285.23,100.2,3.5,-31.2,-1.21,0.62,4.23,-0.08,1.59,-0.01,-119.6,295.9,1392.0,-1.31,-9.88,2.79,3.49,1.5920427129948496,4.443129527709045,0.4978471796111963,0.35,0,9,3.0
7.2108159990002605,515,285.24,100.0,3.9,-31.2,-2.33,0.63,3.74,0.09,1.16,0.01,-115.6,441.3,1391.0,-1.43,-13.61,3.15,3.49,1.1635291143757427,4.451224550615257,0.06794690937224757,0.35,0,9,3.0
7.22209839900097,516,285.25,99.7,4.2,-31.2,-2.67,0.81,2.58,0.28,0.91,0.04,-110.3,571.8,1333.0,-1.59,-17.18,3.14,3.49,0.9529428104561155,3.800184206061596,0.13978660665643194,0.35,0,9,3.0
7.230811824001648,517,285.26,99.5,4.4,-31.3,-2.24,1.47,1.57,0.44,0.8,0.03,-103.7,690.2,1138.0,-1.78,-19.93,3.15,3.49,0.9135097153287425,3.105382424114621,0.17563530774812885,0.35,0,9,3.0
7.242034697001145,518,285.27,99.3,4.6,-31.4,-1.55,2.26,0.8,0.53,0.76,0.06,-96.1,790.6,997.0,-2.0,-22.44,3.41,3.49,0.9284934033152847,2.854837998906418,0.15743858736635485,0.35,0,9,3.0
7.250824764001663,519,285.28,99.2,4.7,-31.7,-0.52,3.2,0.28,0.53,0.76,0.02,-87.6,877.8,927.0,-2.25,-24.85,2.93,3.49,0.9267685795278129,3.254043638306039,0.15598014293075013,0.35,0,9,3.0
7.262175236000985,520,285.29,99.1,4.7,-32.1,0.28,4.19,0.14,0.47,0.8,0.0,-78.4,933.8,537.0,-2.5,-25.61,2.51,3.49,0.9278469701410896,4.201678236133748,0.15180371727112396,0.35,0,9,3.0
7.2708109530012734,521,285.3,99.1,4.8,-32.5,0.58,4.76,0.1,0.34,0.87,0.03,-68.9,950.0,227.0,-2.76,-25.81,3.23,3.49,0.9345587193964862,4.796248534010722,0.1421901286554128,0.35,0,9,3.0
7.282084147000205,522,285.31,99.2,4.9,-33.0,0.52,4.96,-0.03,0.2,0.93,0.01,-59.4,949.5,37.0,-3.02,-25.64,3.44,3.49,0.9513148795220224,4.987273804394541,0.12292528915927903,0.35,0,9,3.0
7.290808298001139,523,285.32,99.1,5.0,-33.5,-0.21,5.06,-0.21,0.09,0.98,0.0,-50.0,949.3,49.0,-3.28,-25.85,2.7,3.49,0.9841239759298621,5.0687079221434725,0.08831386889641046,0.35,0,9,3.0
7.302147277001495,524,285.33,99.0,5.0,-34.0,-0.62,4.92,-0.44,0.0,1.0,0.0,-40.5,942.0,-91.0,-3.53,-25.39,3.36,3.49,1.0,4.978393315116835,0.07098908792974723,0.35,0,9,3.0
7.310830556001747,525,285.34,98.9,5.0,-34.5,-0.85,4.63,-0.66,-0.06,0.98,0.0,-31.2,927.8,-166.0,-3.78,-24.84,3.63,3.49,0.9818350166906862,4.753419821560052,0.08737098981427982,0.35,0,9,3.0
7.322271704000741,526,285.35,98.8,5.0,-34.9,-0.89,4.23,-0.96,-0.1,0.94,0.0,-22.1,900.7,-294.0,-4.03,-23.88,3.5,3.49,0.9453041838477179,4.427934055516185,0.12142378620410321,0.35,0,9,3.0
7.330839180000112,527,285.36,98.7,5.0,-35.4,-1.04,3.85,-1.1,-0.11,0.95,0.03,-13.3,866.8,-333.0,-4.26,-22.97,3.46,3.49,0.9568176419778223,4.136919143517311,0.10771212151251874,0.35,0,9,3.0
7.3422257190013624,528,285.37,98.5,4.9,-35.7,-1.16,3.59,-1.08,-0.1,0.93,0.05,-5.0,812.5,-495.0,-4.48,-21.38,3.7,3.49,0.9366963221877195,3.924296115228819,0.1252767724765692,0.35,0,9,0.0
7.350897393000196,529,285.38,98.4,4.9,-36.1,-1.11,3.24,-0.99,-0.06,0.9,0.06,2.5,732.5,-878.0,-4.67,-18.18,0.56,0.0,0.9039911503991619,3.56508064424916,0.15482230537982422,0.35,0,9,0.0
7.362279860000854,530,285.39,98.2,4.8,-36.4,-0.85,2.95,-0.94,0.02,0.87,0.03,8.4,503.2,-2180.0,-4.8,-10.05,0.84,0.0,0.8707468059085832,3.2107008580682193,0.1843053168729949,0.35,0,9,0.0
7.370800043001509,531,285.4,98.2,4.8,-36.7,-0.25,2.75,-1.09,0.12,0.85,0.0,11.6,242.3,-2237.0,-4.86,-4.05,0.81,0.0,0.8584287972802402,2.9686865782699257,0.19269085899131122,0.35,0,9,0.0
7.382128281000405,532,285.41,98.1,4.7,-37.0,0.15,2.68,-1.27,0.13,0.86,-0.05,12.7,54.4,-1851.0,-4.86,0.32,0.27,0.0,0.8712060605849801,2.969478068617447,0.17631532377283987,0.35,0,9,0.0
7.390910000000076,533,285.42,98.1,4.6,-37.3,0.25,2.91,-1.29,0.08,0.86,-0.11,12.4,-44.9,-976.0,-4.85,1.48,0.11,0.0,0.8706893820416095,3.192914029534776,0.1732953622698863,0.35,0,9,0.0
7.402265566001006,534,285.43,98.1,4.5,-37.6,-0.09,3.05,-1.23,0.0,0.86,-0.09,11.9,-45.6,-244.0,-4.84,0.99,-0.08,0.0,0.8646964785403025,3.289908813325986,0.1757025004557694,0.35,0,9,0.0
7.410829857000863,535,285.44,98.0,4.4,-37.9,-0.25,2.87,-1.1,-0.06,0.84,-0.09,11.6,-23.3,73.0,-4.83,0.33,-0.04,0.0,0.8469356528095862,3.0837315058221266,0.1895940596627561,0.35,0,9,0.0
7.422139727001195,536,285.45,98.0,4.4,-38.2,0.32,2.64,-1.12,-0.1,0.82,-0.11,11.5,-0.9,143.0,-4.83,-0.14,0.08,0.0,0.8333666660000266,2.8855502074994295,0.19909978554286922,0.35,0,9,0.0
7.430770086000848,537,285.46,98.1,4.3,-38.5,0.87,2.28,-1.2,-0.13,0.85,-0.1,11.6,2.4,20.0,-4.83,0.02,0.04,0.0,0.8656789243131658,2.7194300873528627,0.16345177668513544,0.35,0,9,0.0
7.442139392000172,538,285.47,98.1,4.2,-38.7,1.07,1.86,-1.22,-0.15,0.91,-0.08,11.6,-1.7,3.0,-4.83,0.0,-0.19,0.0,0.9257429448826494,2.4683800355698877,0.10132000099333893,0.35,0,9,0.0
7.450792489000378,539,285.48,98.2,4.1,-38.9,0.72,1.37,-1.23,-0.16,0.93,-0.08,11.6,0.9,11.0,-4.83,-0.02,-0.26,0.0,0.9470480452437459,1.976916791369834,0.07841460261959765,0.35,0,9,0.0
7.46204535400102,540,285.49,98.3,4.0,-39.0,0.12,0.88,-1.2,-0.16,0.94,-0.1,11.6,-0.6,0.0,-4.83,0.0,0.16,0.0,0.9587491851365507,1.4929166085217218,0.06537919347225685,0.35,0,9,0.0
7.470693735000168,541,285.5,98.2,3.9,-39.1,-0.26,0.48,-1.16,-0.14,0.93,-0.12,11.6,0.0,3.0,-4.83,-0.01,0.07,0.0,0.9481033698917012,1.2820296408429877,0.07450450854276425,0.35,0,9,0.0
7.482115124001211,542,285.51,98.2,3.8,-39.1,-0.35,0.19,-1.01,-0.11,0.92,-0.15,11.6,0.0,0.0,-4.83,0.0,-0.05,0.0,0.9386160024205852,1.0856795107212809,0.08231203849360269,0.35,0,9,0.0
7.490805310000724,543,285.52,98.2,3.7,-39.1,-0.51,0.0,-0.71,-0.09,0.93,-0.17,11.6,0.0,0.0,-4.83,0.0,-0.36,0.0,0.9496841580230767,0.8741853350405736,0.06981900523328888,0.35,0,9,0.0
7.502120510000168,544,285.53,98.1,3.6,-39.2,-0.52,-0.09,-0.44,-0.08,0.92,-0.19,11.6,0.0,0.0,-4.83,0.0,0.03,0.0,0.9428149341201592,0.6870953354520754,0.0751544645534824,0.35,0,9,0.0
7.510696525001549,545,285.54,98.0,3.6,-39.1,-0.63,-0.17,-0.14,-0.07,0.94,-0.19,11.5,-0.5,-4.0,-4.83,0.03,0.19,0.0,0.9615612304996495,0.6673829485385434,0.05528000481051221,0.35,0,9,0.0
7.522156640001413,546,285.55,98.0,3.6,-39.1,-0.88,-0.23,0.22,-0.05,0.97,-0.2,11.5,-1.7,-14.0,-4.83,0.07,-0.06,0.0,0.9916652661054535,0.9357884376289333,0.024672449820614117,0.35,0,9,0.0
7.5308317980016,547,285.56,97.9,3.6,-39.1,-1.34,-0.25,0.6,-0.05,0.95,-0.21,11.5,-4.5,-24.0,-4.83,0.16,0.11,0.0,0.9742176348229383,1.4893287078412207,0.041277679481066754,0.35,0,9,0.0
7.542270776000805,548,285.57,97.7,3.7,-39.0,-1.6,-0.34,0.88,-0.05,0.93,-0.21,11.4,-8.7,-43.0,-4.83,0.32,0.14,0.0,0.9547250913221041,1.8574175621006712,0.059554818522262964,0.35,0,9,0.0
7.550825002001147,549,285.58,97.5,3.8,-39.0,-1.64,-0.48,1.14,-0.04,0.94,-0.21,11.3,-17.6,-80.0,-4.82,0.59,-0.13,0.0,0.9640020746865642,2.054166497633529,0.04927227845464677,0.35,0,9,0.0
7.562245163000625,550,285.59,97.4,3.9,-38.9,-1.73,-0.65,1.43,-0.04,0.93,-0.23,11.0,-31.5,-138.0,-4.81,1.08,-0.02,0.0,0.9588534820294496,2.3367284823016985,0.053332453689526105,0.35,0,9,0.0
7.570841782000571,551,285.6,97.2,4.1,-38.8,-1.81,-0.75,1.61,-0.05,0.88,-0.24,10.6,-51.9,-196.0,-4.8,1.71,0.06,0.0,0.9135097153287424,2.5358824893910206,0.09670269598242864,0.35,0,9,0.0
7.582168966000609,552,285.61,97.0,4.2,-38.7,-1.75,-0.79,1.54,-0.05,0.84,-0.24,9.8,-82.8,-303.0,-4.78,2.72,0.14,0.0,0.8750428560933458,2.46134109785702,0.13246616411346868,0.35,0,9,0.0
7.590784016001635,553,285.62,96.9,4.4,-38.6,-1.36,-0.72,1.36,-0.02,0.83,-0.23,8.8,-119.8,-348.0,-4.74,3.72,0.09,0.0,0.8615103017375938,2.05367962447895,0.14307874409983623,0.35,0,9,0.0
7.601915042001565,554,285.63,96.8,4.5,-38.6,-1.02,-0.6,1.22,0.0,0.82,-0.23,7.3,-158.4,-377.0,-4.7,4.79,0.19,0.0,0.8516454661418681,1.6996470221784286,0.14988470810165067,0.35,0,9,0.0
7.610235067000758,555,285.64,96.7,4.6,-38.5,-0.74,-0.52,1.12,0.02,0.8,-0.22,5.4,-204.8,-502.0,-4.64,6.38,0.38,0.0,0.8299397568498572,1.4395832730342486,0.16815860904578828,0.35,0,9,0.0
7.621992262000276,556,285.65,96.7,4.7,-38.4,-0.36,-0.56,1.1,0.06,0.8,-0.22,2.8,-280.1,-685.0,-4.56,8.52,0.31,0.0,0.831865373723417,1.2857682528356345,0.162908332328784,0.35,0,9,0.0
7.63087893500051,557,285.66,96.7,4.8,-38.3,0.35,-0.63,1.1,0.09,0.81,-0.23,-0.4,-352.5,-717.0,-4.46,10.54,0.06,0.0,0.8468175718535841,1.3150665382405562,0.1449970115146445,0.35,0,9,0.0
7.642221745001734,558,285.67,96.7,4.9,-38.3,0.9,-0.68,1.13,0.11,0.83,-0.24,-4.4,-427.2,-690.0,-4.34,12.35,0.25,0.0,0.870976463516667,1.5966527487215245,0.11842135745453031,0.35,0,9,0.0
7.650879102000545,559,285.68,96.9,5.0,-38.2,1.9,-0.45,1.02,0.07,0.87,-0.34,-9.1,-479.1,-535.0,-4.21,13.54,0.04,0.0,0.9366963221877195,2.2029298672449835,0.05164746880780824,0.35,0,9,0.0
7.662172506001298,560,285.69,97.1,5.1,-38.1,1.62,-0.38,1.1,0.0,0.94,-0.32,-14.1,-521.0,-437.0,-4.07,14.57,0.11,0.0,0.9929753269845127,1.9946929588285012,0.004538905269205307,0.35,0,9,0.0
7.670836522000172,561,285.7,97.2,5.2,-38.1,1.6,-0.4,1.21,-0.03,0.92,-0.31,-19.5,-537.8,-197.0,-3.92,14.7,-0.13,0.0,0.9712878049270464,2.0455072720476943,0.016805644452495883,0.35,0,9,0.0
7.682257674001448,562,285.71,97.4,5.3,-38.0,1.98,-0.54,1.15,-0.07,0.92,-0.34,-25.0,-549.2,-129.0,-3.77,14.96,0.04,0.0,0.9833107342035884,2.3525518060183073,0.004687060872434756,0.35,0,9,0.0
7.69079910200162,563,285.72,97.6,5.4,-37.9,2.1,-0.77,0.99,-0.11,0.93,-0.39,-30.4,-547.4,-34.0,-3.62,14.9,0.01,0.0,1.0144456614328834,2.4460171708309817,0.025918909029723047,0.35,0,9,0.0
7.702246030001334,564,285.73,97.9,5.5,-37.8,2.33,-0.9,0.79,-0.13,0.96,-0.38,-35.9,-544.6,65.0,-3.47,14.55,0.1,0.0,1.0406248123122954,2.6197328108034226,0.0510560987109524,0.35,0,9,0.0
7.71088120100103,565,285.74,98.1,5.6,-37.7,2.46,-1.15,0.52,-0.14,0.97,-0.35,-41.2,-526.9,117.0,-3.33,14.17,-0.07,0.0,1.0406728592598156,2.7648688938175714,0.050082062745303135,0.35,0,9,0.0
7.722277890999976,566,285.75,98.4,5.6,-37.6,2.83,-1.31,0.11,-0.11,1.02,-0.37,-46.4,-511.7,148.0,-3.19,13.71,-0.18,0.0,1.090596167240652,3.1204326623082257,0.09800526331161663,0.35,0,9,0.0
7.730889301001298,567,285.76,98.7,5.5,-37.5,2.6,-1.29,-0.35,-0.07,1.07,-0.37,-50.9,-497.3,163.0,-3.06,13.17,-0.15,0.0,1.1343279948938931,2.923456857899566,0.13890234914556077,0.35,0,9,0.0
7.742294348001451,568,285.77,98.9,5.4,-37.4,2.24,-1.32,-0.87,-0.04,1.11,-0.29,-56.2,-463.3,291.0,-2.93,12.2,-0.29,0.0,1.1479547029391013,2.7416965550549173,0.14947847604695352,0.35,0,9,0.0
7.750921980001294,569,285.78,99.2,5.3,-37.2,1.95,-1.39,-1.5,0.03,1.15,-0.28,-60.6,-436.8,257.0,-2.82,11.55,-0.07,0.0,1.183976351115173,2.8257034522398135,0.1817901217385649,0.35,0,9,0.0
7.7622953100017185,570,285.79,99.4,5.1,-37.1,1.84,-1.1,-2.25,0.17,1.2,-0.28,-64.8,-404.3,332.0,-2.71,10.52,-0.2,0.0,1.2439051410778879,3.1077483810630486,0.23688453346725402,0.35,0,9,0.0
7.770903765000185,571,285.8,99.6,4.8,-37.1,1.75,-0.61,-2.99,0.3,1.25,-0.22,-68.6,-370.4,324.0,-2.61,9.67,-0.38,0.0,1.3041855696180662,3.5177691794658728,0.2912216627672837,0.35,0,9,0.0
7.782270833000439,572,285.81,99.7,4.5,-37.1,1.5,-0.24,-3.92,0.38,1.31,-0.11,-72.0,-333.7,378.0,-2.52,8.54,-0.11,0.0,1.3684297570573363,4.204045670541651,0.34835653320242277,0.35,0,9,0.0
7.790780462000839,573,285.82,99.9,4.0,-37.2,2.07,0.15,-5.25,0.62,1.46,-0.22,-75.0,-288.3,433.0,-2.44,7.27,-0.15,0.0,1.6013744096868787,5.645343213658493,0.569675162115326,0.35,1,10,3.0
7.802124244000879,574,285.83,100.1,3.5,-37.4,1.86,1.47,-6.04,0.65,1.67,-0.23,-77.6,-243.4,443.0,-2.38,6.06,-0.13,0.0,1.8067373909896258,6.488613102967382,0.7595373805497116,0.35,0,10,3.0
7.810882097001013,575,285.84,100.2,2.9,-37.7,-0.76,2.45,-5.65,0.38,1.58,-0.12,-79.6,-173.8,961.0,-2.34,2.51,2.74,3.49,1.6294784441654946,6.205046333428945,0.5706328650510688,0.35,0,10,3.0
7.822220295000079,576,285.85,100.0,2.5,-38.0,-2.04,2.69,-4.4,0.01,1.42,0.1,-80.0,36.4,1826.0,-2.36,-3.77,2.58,3.49,1.423551895787435,5.545962495365435,0.35741219033954885,0.35,0,10,3.0
7.830867037000644,577,285.86,99.7,2.2,-38.3,-2.21,2.17,-2.31,-0.31,1.25,0.23,-78.1,254.1,1981.0,-2.43,-9.33,3.04,3.49,1.3082430966758434,3.863819353955358,0.23726132340339823,0.35,0,10,3.0
7.842284487000143,578,285.87,99.6,2.1,-38.5,-0.76,0.65,-0.27,-0.54,1.02,0.33,-74.2,445.8,1869.0,-2.56,-14.2,2.74,3.49,1.2003749414245535,1.0358571330062847,0.12680530478906626,0.35,0,10,3.0
7.850902614000006,579,285.88,99.7,2.1,-38.5,2.33,-1.25,0.58,-0.63,0.89,0.36,-68.7,590.3,1350.0,-2.73,-16.99,3.69,3.49,1.148303095876694,2.7069909493753395,0.07323879005638267,0.35,0,10,3.0
7.862287482001193,580,285.89,100.0,2.2,-38.2,3.36,-2.64,1.04,-0.7,1.08,0.32,-62.4,636.1,546.0,-2.9,-17.15,4.16,3.49,1.3261975720080323,4.397817640603121,0.24611060086396663,0.35,0,10,3.0
7.870867335001094,581,285.9,100.2,2.2,-37.9,1.08,-3.88,1.49,-0.66,1.23,0.26,-56.3,579.4,-432.0,-3.05,-14.39,3.72,3.49,1.4198943622678413,4.29428690238554,0.33301124330129994,0.35,0,10,3.0
7.8822617800015,582,285.91,100.2,2.3,-37.4,-2.15,-5.46,1.36,-0.46,1.26,0.29,-51.3,458.5,-1043.0,-3.17,-10.61,4.09,3.49,1.3723337786413334,6.023595271928552,0.2797416464812963,0.35,0,10,3.0
7.89087971400113,583,285.92,99.8,2.3,-36.7,-4.98,-7.25,0.84,-0.05,1.2,0.25,-47.8,303.3,-1397.0,-3.25,-6.33,4.29,3.49,1.2267844146385296,8.835638064112857,0.13150843682892255,0.35,0,10,3.0
7.9022683940002025,584,285.93,99.3,2.2,-36.0,-6.93,-8.0,0.09,0.37,1.05,0.02,-45.8,155.4,-1386.0,-3.28,-2.62,4.01,3.49,1.1134630662936242,10.584564232881768,0.01782334671433694,0.35,0,10,3.0
7.910877317000995,585,285.94,98.5,2.1,-35.2,-7.98,-7.01,-0.33,0.62,1.0,-0.2,-45.1,31.4,-1227.0,-3.29,0.41,3.66,3.49,1.1934822998268555,10.626824549224477,0.09588572864261691,0.35,0,10,3.0
7.922202211000695,586,285.95,97.7,2.0,-34.6,-9.25,-4.88,-0.12,0.65,0.92,-0.25,-45.3,-27.4,-555.0,-3.28,0.74,3.38,3.49,1.1538630767989762,10.45902959169731,0.05514117550244291,0.35,0,10,3.0
7.930854820000604,587,285.96,96.8,1.9,-34.3,-8.97,-2.97,0.69,0.46,0.71,-0.11,-45.6,-18.9,-83.0,-3.28,0.26,3.36,3.49,0.8531119504496465,9.474064597626512,0.24069775182994912,0.35,0,10,3.0
7.9421435780004686,588,285.97,96.0,2.0,-34.0,-5.55,-2.19,1.22,0.23,0.47,0.02,-45.6,-2.8,44.0,-3.28,-0.03,3.48,3.49,0.5236410984634419,6.089909687343483,0.5587652317398306,0.35,0,10,3.0
7.95092429900069,589,285.98,95.8,2.1,-33.8,-0.23,-2.28,1.43,0.13,0.45,0.03,-45.6,-0.5,11.0,-3.28,0.01,3.39,3.49,0.46936126810805345,2.701147904132611,0.6007841608533147,0.35,0,10,3.0
7.962266667000222,590,285.99,96.0,2.2,-33.5,4.12,-2.27,1.34,0.1,0.72,-0.04,-45.6,-1.6,-8.0,-3.28,0.07,3.48,3.49,0.7280109889280518,4.891104169816873,0.33529175123265,0.35,0,10,3.0
7.97078480700111,591,286.0,96.5,2.4,-33.3,4.53,-1.88,1.35,0.11,0.94,-0.16,-45.7,-3.3,-29.0,-3.27,0.19,3.45,3.49,0.9598437372822723,5.087022704883477,0.10138982282086095,0.35,0,10,0.0
7.9820914450010605,592,286.01,96.9,2.5,-33.2,2.87,-1.24,1.0,0.09,1.14,-0.13,-45.8,-9.3,-39.0,-3.27,0.28,3.58,3.49,1.1509126813099244,3.2824533507728635,0.08788553878265537,0.35,0,10,0.0
7.990900017000968,593,286.02,97.0,2.6,-33.0,-0.76,-1.34,0.99,0.08,1.28,-0.11,-46.1,-53.6,-716.0,-3.25,3.39,0.44,0.0,1.2872062771754962,1.8312017911743097,0.21969555195526258,0.35,0,10,0.0
8.0021591980003,594,286.03,96.8,2.8,-32.9,-3.75,-1.53,1.44,0.11,1.12,-0.12,-47.7,-208.0,-1208.0,-3.19,7.33,0.39,0.0,1.1317685275708986,4.298488106299702,0.06297264630365174,0.35,0,10,0.0
8.010894611001277,595,286.04,96.4,2.9,-32.7,-3.76,-1.59,1.6,0.21,0.9,-0.16,-50.6,-332.5,-1144.0,-3.1,10.29,0.2,0.0,0.9379232377972091,4.384712077206439,0.12825519060063706,0.35,0,10,0.0
8.022273541000686,596,286.05,96.1,3.0,-32.5,-2.2,-1.05,1.47,0.23,0.74,-0.23,-54.6,-416.0,-829.0,-2.98,12.0,0.28,0.0,0.8083316151184488,2.8466471505966453,0.2526898770138095,0.35,0,10,0.0
8.030879110001479,597,286.06,96.0,3.2,-32.4,-0.35,-0.45,1.33,0.2,0.75,-0.17,-59.1,-471.5,-638.0,-2.85,13.45,0.06,0.0,0.7946068210127573,1.4470314440260101,0.26108637769711107,0.35,0,10,0.0
8.042162465000729,598,286.07,96.0,3.3,-32.4,1.01,-0.3,1.39,0.14,0.78,-0.14,-64.1,-509.6,-380.0,-2.71,14.05,0.23,0.0,0.8047359815492283,1.744190356583822,0.2459380728174272,0.35,0,10,0.0
8.050898762001452,599,286.08,96.2,3.5,-32.3,1.84,-0.46,1.51,0.1,0.84,-0.15,-69.4,-528.2,-256.0,-2.57,14.57,0.39,0.0,0.8591274643497319,2.4243143360546298,0.1877156582165852,0.35,0,10,0.0
8.062272502000269,600,286.09,96.4,3.6,-32.3,1.88,-0.57,1.62,0.09,0.85,-0.22,-74.7,-531.6,-39.0,-2.42,14.3,0.07,0.0,0.8826097665446491,2.546311057196273,0.1609486889012346,0.35,0,10,0.0
8.070865998000954,601,286.1,96.6,3.8,-32.2,2.01,-0.57,1.51,0.07,0.88,-0.24,-79.9,-522.2,54.0,-2.28,14.03,-0.21,0.0,0.9148223871331528,2.577809147318707,0.1261613469464763,0.35,0,10,0.0
8.082210747001227,602,286.11,96.8,3.9,-32.1,1.74,-0.61,1.38,0.07,0.92,-0.26,-84.6,-510.7,88.0,-2.14,13.77,-0.15,0.0,0.9585927185202274,2.3030631775963073,0.0807431952482136,0.35,0,10,0.0
8.090866037000524,603,286.12,96.9,4.0,-32.0,1.17,-0.67,1.24,0.06,0.92,-0.28,-89.5,-499.3,148.0,-2.01,13.12,-0.06,0.0,0.9635351576356724,1.8317750953651488,0.07428474101011318,0.35,0,10,0.0
8.102152596000451,604,286.13,97.0,4.1,-31.9,0.44,-0.83,1.13,0.07,0.91,-0.28,-94.4,-469.5,232.0,-1.88,12.43,-0.05,0.0,0.9546727187890099,1.4694897073474178,0.08148423625964007,0.35,0,10,0.0
8.110865583001214,605,286.14,97.0,4.2,-31.8,-0.28,-1.01,0.92,0.09,0.87,-0.29,-98.9,-446.5,258.0,-1.76,11.63,-0.01,0.0,0.9214662229295222,1.3945967159003352,0.1123969174767453,0.35,0,10,0.0
8.122277148000649,606,286.15,97.0,4.3,-31.7,-1.15,-1.1,0.6,0.15,0.8,-0.3,-103.2,-411.7,318.0,-1.65,10.71,-0.12,0.0,0.8674675786448737,1.7007351351694948,0.163067650526166,0.35,0,10,0.0
8.130832272001498,607,286.16,96.8,4.3,-31.6,-1.96,-1.03,0.12,0.22,0.73,-0.33,-107.0,-379.6,323.0,-1.55,9.78,-0.08,0.0,0.8307827634225448,2.217408397206072,0.19575741643352507,0.35,0,10,0.0
8.14217640500101,608,286.17,96.6,4.3,-31.5,-2.38,-0.64,-0.45,0.29,0.68,-0.36,-110.6,-341.3,383.0,-1.46,8.65,-0.16,0.0,0.8222530024268687,2.5052943938786916,0.20020143388061717,0.35,0,10,0.0
8.150760111000636,609,286.18,96.4,4.2,-31.5,-2.19,0.04,-1.0,0.34,0.67,-0.37,-113.7,-300.3,389.0,-1.38,7.58,-0.35,0.0,0.8374962686484043,2.4078413569004082,0.18125900430590003,0.35,0,10,0.0
8.162129615000595,610,286.19,96.2,4.1,-31.6,-1.29,0.91,-1.38,0.34,0.71,-0.33,-116.4,-261.2,392.0,-1.31,6.48,-0.13,0.0,0.853580693314932,2.096807096516034,0.1618710880465849,0.35,0,10,0.0
8.17070545200113,611,286.2,96.1,4.0,-31.7,-0.38,1.51,-1.42,0.3,0.76,-0.28,-118.8,-220.1,402.0,-1.26,5.37,0.03,0.0,0.8637129152675673,2.107344300298364,0.14870408877207053,0.35,0,10,0.0
8.182242781000241,612,286.21,96.1,3.9,-31.9,0.52,1.92,-1.34,0.22,0.76,-0.26,-120.7,-178.5,419.0,-1.21,4.21,-0.15,0.0,0.8328265125462806,2.3984161440417298,0.1759986816634902,0.35,0,10,0.0
8.190791906001323,613,286.22,96.2,3.7,-32.1,1.21,2.08,-1.37,0.14,0.72,-0.25,-122.2,-135.7,424.0,-1.18,3.03,-0.01,0.0,0.7749193506423748,2.7690070422445663,0.22922772669604807,0.35,0,10,0.0
8.20212835500024,614,286.23,96.3,3.6,-32.4,1.67,2.13,-1.47,0.11,0.7,-0.25,-123.2,-91.2,444.0,-1.16,1.79,0.0,0.0,0.751398695766768,3.080048700913672,0.24769341394022182,0.35,0,10,0.0
8.210716281000714,615,286.24,96.5,3.5,-32.6,1.94,2.13,-1.37,0.07,0.75,-0.23,-123.8,-47.3,428.0,-1.15,0.66,0.05,0.0,0.7875912645528771,3.1902037552482443,0.2072708282510305,0.35,0,10,0.0
8.222283159000654,616,286.25,96.7,3.4,-32.8,2.43,1.91,-1.04,0.02,0.82,-0.16,-124.0,-8.8,372.0,-1.15,-0.19,0.14,0.0,0.835703296631047,3.261073442901892,0.15597562024940337,0.35,0,10,0.0
8.2307403850009,617,286.26,97.0,3.3,-33.0,3.3,1.25,-0.57,-0.03,0.9,-0.06,-124.0,12.3,214.0,-1.15,-0.44,0.06,0.0,0.9024965373894794,3.574548922591492,0.08739873190115155,0.35,0,10,0.0
8.242112169000393,618,286.27,97.4,3.3,-33.0,3.81,0.09,-0.14,-0.1,0.97,-0.04,-123.8,15.1,62.0,-1.15,-0.35,-0.1,0.0,0.9759610647971567,3.813633438074509,0.013655520403604737,0.35,0,10,0.0
8.250832188999993,619,286.28,97.7,3.3,-33.0,3.41,-0.97,0.0,-0.14,1.03,-0.14,-123.7,8.9,-35.0,-1.15,-0.08,0.02,0.0,1.0488565202161828,3.5452785504103907,0.05805513631511294,0.35,0,10,0.0
8.262151181001173,620,286.29,98.0,3.3,-32.9,1.74,-1.6,-0.11,-0.14,1.03,-0.33,-123.7,-0.8,-62.0,-1.15,0.06,0.0,0.0,1.090596167240652,2.366368525821792,0.09779888767279044,0.35,0,10,0.0
8.270824224000535,621,286.3,98.1,3.2,-32.7,0.14,-1.44,-0.47,-0.05,1.03,-0.43,-123.7,-0.7,-2.0,-1.15,-0.03,-0.15,0.0,1.1172734669721642,1.5212166183683373,0.12198666365621669,0.35,0,10,0.0
8.2822597710001,622,286.31,98.1,3.1,-32.6,-0.32,-0.93,-0.71,0.05,1.05,-0.42,-123.7,0.8,0.0,-1.15,0.0,-0.06,0.0,1.13198939924365,1.2130127781684743,0.13396854400914848,0.35,0,10,0.0
8.290819648000252,623,286.32,98.1,3.0,-32.5,0.32,-0.61,-0.73,0.16,1.14,-0.36,-123.7,-0.3,-2.0,-1.15,0.0,-0.04,0.0,1.2061509026651682,1.0036931802099682,0.20396744648205334,0.35,0,10,0.0
8.302095836001172,624,286.33,98.1,3.0,-32.5,0.99,-0.25,-0.31,0.22,1.24,-0.33,-123.7,0.3,-1.0,-1.15,0.0,0.04,0.0,1.3018832512940628,1.0670988707706517,0.29370579920872886,0.35,0,10,0.0
8.310791324000093,625,286.34,98.3,3.0,-32.5,1.4,0.13,0.2,0.18,1.21,-0.34,-123.7,0.0,1.0,-1.15,0.0,0.04,0.0,1.2696850003051938,1.420176045425355,0.2562773972554626,0.35,0,10,0.0
8.322126167000533,626,286.35,98.4,3.0,-32.5,1.88,0.73,0.12,0.14,1.13,-0.35,-123.7,0.2,1.0,-1.15,0.0,-0.15,0.0,1.191217864204529,2.0203217565526534,0.17425405593170185,0.35,0,10,0.0
8.330856057000346,627,286.36,98.7,3.0,-32.6,2.61,1.28,-0.02,0.17,1.25,-0.26,-123.7,0.1,2.0,-1.15,-0.01,0.21,0.0,1.288021738946979,2.907043171334062,0.2656367720606687,0.35,0,10,0.0
8.342267370000627,628,286.37,98.9,3.1,-32.8,3.26,1.76,0.32,0.14,1.49,-0.14,-123.7,0.2,0.0,-1.15,0.0,0.06,0.0,1.503096803269836,3.71854810376308,0.47109759965585507,0.35,1,11,3.0
8.350814643001286,629,286.38,99.2,3.2,-33.0,3.55,1.73,1.22,0.07,1.78,0.0,-123.7,0.0,2.0,-1.15,-0.02,-0.15,0.0,1.7813758727455584,4.133255375608916,0.734389135748946,0.35,0,11,3.0
8.362155040000289,630,286.39,99.6,3.4,-33.1,2.94,1.55,2.58,-0.02,1.98,0.06,-123.6,11.9,292.0,-1.16,-1.91,2.68,3.49,1.9810098434889212,4.207433897282286,0.9153426443624626,0.35,0,11,3.0
8.370816958000432,631,286.4,99.8,3.8,-33.2,1.07,1.23,3.65,-0.16,1.87,0.06,-122.6,158.5,1318.0,-1.22,-7.16,2.99,3.49,1.8777912557044247,3.9975367415447227,0.7958815754464068,0.35,0,11,3.0
8.382106134000423,632,286.41,99.7,4.2,-33.2,-1.51,0.86,3.95,-0.15,1.51,0.09,-119.7,345.6,1647.0,-1.32,-12.09,2.63,3.49,1.5200986810072563,4.315344713924949,0.4294252207342537,0.35,0,11,3.0
8.390828542000236,633,286.42,99.5,4.6,-33.2,-2.9,0.65,3.45,-0.01,1.13,0.08,-115.0,522.8,1702.0,-1.48,-16.73,3.08,3.49,1.1328724553099523,4.553570028010989,0.04135501513621076,0.35,0,11,3.0
8.402194812000744,634,286.43,99.2,4.9,-33.2,-2.82,0.86,2.5,0.16,0.87,0.1,-108.6,691.0,1690.0,-1.68,-21.23,3.19,3.49,0.8902246907382427,3.8654883262014903,0.1972668944467888,0.35,0,11,3.0
8.4108080900005,635,286.44,99.0,5.1,-33.3,-1.75,1.32,1.71,0.35,0.81,0.1,-100.7,837.4,1487.0,-1.91,-24.82,3.03,3.49,0.888031530971733,2.7801079115746568,0.19547085312903256,0.35,0,11,3.0
8.42211856600079,636,286.45,98.8,5.2,-33.5,-0.64,1.96,1.26,0.49,0.8,0.08,-91.5,952.4,1139.0,-2.18,-27.06,2.82,3.49,0.941541289588513,2.416360900196823,0.13912187262200748,0.35,0,11,3.0
8.430813214001319,637,286.46,98.8,5.4,-33.7,0.41,2.8,0.92,0.55,0.8,0.0,-81.5,998.5,445.0,-2.45,-26.75,1.59,3.49,0.97082439194738,2.975651189235727,0.10764199485787773,0.35,0,11,3.0
8.442277256001034,638,286.47,98.9,5.5,-34.0,1.54,3.73,0.38,0.48,0.86,-0.03,-71.7,969.1,-23.0,-2.71,-26.02,3.2,3.49,0.9853425800197615,4.053257948860399,0.09126133064978625,0.35,0,11,3.0
8.450846298001125,639,286.48,99.0,5.6,-34.4,1.55,4.23,0.07,0.35,1.04,-0.02,-62.2,955.0,-34.0,-2.97,-25.85,3.02,3.49,1.0974971526158963,4.505585422561646,0.020475377107421533,0.35,0,11,3.0
8.462097672001619,640,286.49,99.0,5.7,-34.8,0.08,4.4,0.16,0.22,1.13,0.0,-52.7,949.3,-8.0,-3.23,-25.9,2.6,3.49,1.151216747619665,4.403634862247324,0.07271107266896659,0.35,0,11,3.0
8.470806436000203,641,286.5,98.9,5.7,-35.3,-1.03,4.17,0.16,0.09,1.06,0.0,-43.2,943.0,-118.0,-3.48,-25.28,3.01,3.49,1.0638138934982944,4.298301990321295,0.014397945823356073,0.35,0,11,3.0
8.482189852000374,642,286.51,98.8,5.8,-35.7,-1.23,3.92,-0.04,-0.02,1.0,0.01,-33.9,925.3,-138.0,-3.73,-24.7,3.22,3.49,1.0002499687578101,4.108637243661211,0.07640263315256357,0.35,0,11,3.0
8.49062688200138,643,286.52,98.6,5.8,-36.0,-1.15,3.52,-0.44,-0.1,0.93,0.04,-24.8,892.2,-302.0,-3.97,-23.46,3.92,3.49,0.9362157870918436,3.7291419924695814,0.1376280785221594,0.35,0,11,3.0
8.502266715000587,644,286.53,98.5,5.8,-36.4,-0.97,3.24,-0.84,-0.12,0.9,0.05,-16.3,840.2,-419.0,-4.2,-22.18,3.92,3.49,0.9093404203047393,3.4848385902362824,0.16121337640307853,0.35,0,11,3.0
