host_time_s,seq,device_time_s,roll,pitch,yaw,gyro_x,gyro_y,gyro_z,accel_x,accel_y,accel_z,belt_length,belt_velocity,belt_acceleration,motor_pos,motor_vel,motor_iq_meas,motor_iq_set,acc_mag,gyro_mag,acc_residual,threshold,heel_strike,hs_count,torque_cmd_nm
3.069296843000302,1,4358.48,-97.2,-0.7,-106.0,-0.06,-0.09,-0.02,-0.01,-0.99,-0.13,-222.5,0.0,0.0,1.52,0.0,0.03,0.0,0.9985489472229191,0.10999999999999999,0.0,0.28,0,0,0.0
3.0779863679999835,2,4358.49,-97.2,-0.7,-106.0,-0.03,-0.09,-0.02,-0.01,-0.99,-0.13,-222.5,0.0,0.0,1.52,0.0,-0.13,0.0,0.9985489472229191,0.09695359714832658,0.0,0.28,0,0,0.0
3.0859769340004277,3,4358.5,-97.2,-0.7,-106.0,-0.01,-0.1,-0.02,-0.01,-0.99,-0.13,-222.5,0.2,1.0,1.52,0.0,-0.21,0.0,0.9985489472229191,0.10246950765959599,0.0,0.28,0,0,0.0
3.0935723950005922,4,4358.51,-97.2,-0.7,-106.0,-0.02,-0.12,-0.02,-0.01,-0.99,-0.13,-222.5,0.7,9.0,1.52,-0.04,0.1,0.0,0.9985489472229191,0.12328828005937952,0.0,0.28,0,0,0.0
3.105316791000405,5,4358.52,-97.2,-0.7,-106.0,0.0,-0.12,-0.02,-0.01,-0.99,-0.13,-222.5,1.3,-3.0,1.52,-0.01,-0.12,0.0,0.9985489472229191,0.1216552506059644,0.0,0.28,0,0,0.0
3.1138927470001363,6,4358.53,-97.2,-0.7,-106.0,-0.03,-0.12,-0.01,-0.01,-0.99,-0.13,-222.5,-1.0,-9.0,1.52,0.02,0.02,0.0,0.9985489472229191,0.12409673645990855,0.0,0.28,0,0,0.0
3.125324687000102,7,4358.54,-97.3,-0.7,-106.0,-0.05,-0.12,-0.01,-0.01,-0.98,-0.13,-222.5,-0.3,1.0,1.52,0.0,0.03,0.0,0.9886354231970448,0.13038404810405296,0.00971525354535685,0.28,0,0,0.0
3.1338925950003613,8,4358.55,-97.3,-0.7,-106.0,-0.08,-0.11,-0.01,-0.01,-0.98,-0.13,-222.5,1.0,3.0,1.52,0.0,0.02,0.0,0.9886354231970448,0.13638181696985854,0.00952094847444973,0.28,0,0,0.0
3.145246314999895,9,4358.56,-97.3,-0.7,-106.1,-0.08,-0.09,-0.01,-0.01,-0.98,-0.13,-222.5,0.0,-3.0,1.52,0.0,-0.14,0.0,0.9886354231970448,0.12083045973594571,0.009330529504960716,0.28,0,0,0.0
3.153852674000518,10,4358.57,-97.3,-0.7,-106.1,-0.08,-0.07,0.0,-0.01,-0.98,-0.13,-222.5,-0.1,2.0,1.52,0.0,0.11,0.0,0.9886354231970448,0.1063014581273465,0.009143918914861549,0.28,0,0,0.0
3.165081680000185,11,4358.58,-97.3,-0.7,-106.1,-0.07,-0.06,0.0,0.0,-0.98,-0.13,-222.5,0.6,-1.0,1.52,0.0,0.18,0.0,0.9885848471426213,0.09219544457292887,0.009010605069899369,0.28,0,0,0.0
3.173595160000332,12,4358.59,-97.3,-0.7,-106.1,-0.07,-0.02,0.01,0.0,-0.99,-0.13,-222.5,-0.4,-1.0,1.52,0.0,0.11,0.0,0.9984988733093293,0.07348469228349536,0.0008853526748724416,0.28,0,0,0.0
3.184834661000423,13,4358.6,-97.3,-0.7,-106.1,-0.05,-0.01,0.01,0.0,-0.99,-0.13,-222.5,0.1,0.0,1.52,0.0,-0.06,0.0,0.9984988733093293,0.05196152422706632,0.0008676456213749795,0.28,0,0,0.0
3.193683161000081,14,4358.61,-97.3,-0.7,-106.1,-0.06,0.0,0.01,-0.01,-0.99,-0.13,-222.5,0.3,0.0,1.52,0.0,-0.29,0.0,0.9985489472229191,0.0608276253029822,0.0008993651442654738,0.28,0,0,0.0
3.20532542500041,15,4358.62,-97.3,-0.7,-106.1,-0.04,0.0,0.02,-0.01,-0.99,-0.13,-222.5,-0.4,-3.0,1.52,0.0,0.1,0.0,0.9985489472229191,0.044721359549995794,0.0008813778413802043,0.28,0,0,0.0
3.2138381490003667,16,4358.63,-97.3,-0.7,-106.1,0.0,0.0,0.0,-0.02,-0.99,-0.13,-222.5,0.1,11.0,1.52,-0.04,0.03,0.0,0.9986991538997116,0.0,0.001010952827809275,0.28,0,0,0.0
3.2251103839998905,17,4358.64,-97.3,-0.7,-106.1,0.0,0.0,0.0,-0.02,-0.99,-0.13,-222.5,0.9,-1.0,1.52,0.0,0.11,0.0,0.9986991538997116,0.0,0.0009907337712531383,0.28,0,0,0.0
3.233803154999805,18,4358.65,-97.3,-0.7,-106.1,0.02,0.05,0.01,-0.02,-0.99,-0.13,-222.5,0.0,-4.0,1.52,0.01,-0.22,0.0,0.9986991538997116,0.05477225575051661,0.0009709190958280267,0.28,0,0,0.0
3.2451429820002886,19,4358.66,-97.4,-0.7,-106.1,0.0,0.04,0.0,-0.02,-0.99,-0.13,-222.5,0.1,4.0,1.52,-0.03,0.09,0.0,0.9986991538997116,0.04,0.0009515007139114795,0.28,0,0,0.0
3.2537159060002523,20,4358.67,-97.4,-0.7,-106.1,0.0,0.06,-0.01,-0.02,-0.99,-0.13,-222.5,0.0,-9.0,1.52,0.03,-0.12,0.0,0.9986991538997116,0.0608276253029822,0.0009324706996332033,0.28,0,0,0.0
3.2651097380003193,21,4358.68,-97.4,-0.7,-106.1,0.01,0.08,-0.02,-0.02,-0.99,-0.13,-222.5,-0.5,8.0,1.52,-0.03,0.03,0.0,0.9986991538997116,0.08306623862918075,0.0009138212856405481,0.28,0,0,0.0
3.273855008999817,22,4358.69,-97.4,-0.7,-106.0,0.02,0.09,-0.03,-0.01,-0.99,-0.13,-222.5,0.8,-2.0,1.52,0.0,-0.13,0.0,0.9985489472229191,0.09695359714832658,0.0007483423166710912,0.28,0,0,0.0
3.2852181389998805,23,4358.7,-97.4,-0.7,-106.0,0.01,0.1,-0.02,-0.01,-0.99,-0.13,-222.5,-0.2,-1.0,1.52,0.0,-0.13,0.0,0.9985489472229191,0.10246950765959599,0.0007333754703376938,0.28,0,0,0.0
3.2937932550003097,24,4358.71,-97.4,-0.7,-106.0,0.01,0.12,-0.01,-0.01,-0.98,-0.13,-222.5,-0.3,-6.0,1.52,0.02,0.11,0.0,0.9886354231970448,0.12083045973594571,0.008996545584425863,0.28,0,0,0.0
3.3051215940004113,25,4358.72,-97.4,-0.7,-106.0,-0.01,0.14,0.0,-0.01,-0.99,-0.13,-222.5,-0.8,4.0,1.52,0.0,-0.21,0.0,0.9985489472229191,0.14035668847618202,0.0008986388726194283,0.28,0,0,0.0
3.3137058490001436,26,4358.73,-97.4,-0.7,-106.0,-0.01,0.13,0.0,-0.01,-0.99,-0.13,-222.5,1.8,10.0,1.52,-0.04,-0.13,0.0,0.9985489472229191,0.130384048104053,0.0008806660951670153,0.28,0,0,0.0
3.325046480999845,27,4358.74,-97.4,-0.7,-106.0,-0.04,0.14,0.0,-0.01,-0.99,-0.13,-222.4,0.9,0.0,1.52,-0.03,0.02,0.0,0.9985489472229191,0.14560219778561037,0.0008630527732637061,0.28,0,0,0.0
3.3338154100001702,28,4358.75,-97.4,-0.7,-106.0,-0.02,0.14,-0.02,-0.01,-0.99,-0.13,-222.4,0.9,0.0,1.52,-0.02,0.02,0.0,0.9985489472229191,0.14282856857085702,0.0008457917177984164,0.28,0,0,0.0
3.3450435619997734,29,4358.76,-97.4,-0.7,-106.0,0.0,0.14,-0.03,-0.01,-0.99,-0.13,-222.4,0.3,-3.0,1.52,-0.01,-0.11,0.0,0.9985489472229191,0.14317821063276354,0.0008288758834424925,0.28,0,0,0.0
3.3538688899998306,30,4358.77,-97.4,-0.7,-105.9,0.03,0.14,-0.03,-0.02,-0.99,-0.13,-222.4,0.1,1.0,1.52,-0.02,-0.04,0.0,0.9986991538997116,0.14628738838327796,0.0009595009090302975,0.28,0,0,0.0
3.3652080339998065,31,4358.78,-97.4,-0.7,-105.9,0.04,0.15,-0.03,-0.02,-0.98,-0.13,-222.4,0.7,1.0,1.52,-0.02,0.11,0.0,0.9887871358386495,0.15811388300841897,0.00877346680899116,0.28,0,0,0.0
3.3738020360005976,32,4358.79,-97.4,-0.7,-105.9,0.06,0.15,-0.03,-0.02,-0.98,-0.13,-222.4,0.1,-3.0,1.52,0.0,0.09,0.0,0.9887871358386495,0.16431676725154984,0.008597997472811314,0.28,0,0,0.0
3.385216001000117,33,4358.8,-97.4,-0.7,-105.9,0.06,0.15,-0.05,-0.01,-0.98,-0.12,-222.4,0.0,1.0,1.52,-0.01,-0.08,0.0,0.9873702446397703,0.16911534525287764,0.009814590898256759,0.28,0,0,0.0
3.39375561199995,34,4358.81,-97.4,-0.7,-105.9,0.04,0.16,-0.06,-0.01,-0.98,-0.13,-222.4,0.0,-7.0,1.52,0.01,0.11,0.0,0.9886354231970448,0.17549928774784243,0.008378424094162673,0.28,0,0,0.0
3.405241541000578,35,4358.82,-97.4,-0.7,-105.9,0.03,0.15,-0.05,-0.01,-0.97,-0.13,-222.4,-0.2,0.0,1.52,0.0,-0.1,0.0,0.9787236586493656,0.1609347693943108,0.01792438486900505,0.28,0,0,0.0
3.4136461050002254,36,4358.83,-97.4,-0.7,-105.9,0.04,0.14,-0.05,0.0,-0.97,-0.13,-222.4,0.0,1.0,1.52,0.0,-0.12,0.0,0.9786725703727472,0.15394804318340655,0.0176159636827109,0.28,0,0,0.0
3.4252016050004386,37,4358.84,-97.4,-0.7,-105.8,0.0,0.18,-0.07,-0.01,-0.98,-0.13,-222.4,-0.4,-3.0,1.52,0.01,0.09,0.0,0.9886354231970448,0.19313207915827965,0.007500048641245094,0.28,0,0,0.0
3.4337582400003157,38,4358.85,-97.4,-0.6,-105.8,-0.08,0.17,-0.1,-0.01,-1.0,-0.12,-222.4,0.1,6.0,1.52,-0.01,0.09,0.0,1.0072239075796403,0.21283796653792764,0.010866667026523391,0.28,0,0,0.0
3.4452019810005368,39,4358.86,-97.4,-0.6,-105.8,-0.1,0.11,-0.12,-0.01,-1.0,-0.12,-222.4,0.3,5.0,1.52,-0.03,0.04,0.0,1.0072239075796403,0.19104973174542803,0.010649333685992968,0.28,0,0,0.0
3.4537693760003094,40,4358.87,-97.4,-0.6,-105.8,-0.04,0.09,-0.13,-0.02,-1.0,-0.13,-222.4,0.3,-9.0,1.52,0.02,0.11,0.0,1.008612908900139,0.16309506430300091,0.011797568306361805,0.28,0,0,0.0
3.465119036000033,41,4358.88,-97.4,-0.6,-105.8,0.0,0.11,-0.1,-0.02,-0.99,-0.12,-222.4,-0.4,4.0,1.52,-0.01,-0.04,0.0,0.9974467404327911,0.14866068747318506,0.0006187718422336896,0.28,0,0,0.0
3.4737746600003447,42,4358.89,-97.4,-0.6,-105.8,0.0,0.11,-0.08,-0.01,-0.98,-0.12,-222.4,1.0,0.0,1.52,0.0,0.04,0.0,0.9873702446397703,0.13601470508735444,0.009268569471771348,0.28,0,0,0.0
3.485247196000273,43,4358.9,-97.4,-0.6,-105.8,0.03,0.07,-0.1,-0.01,-0.99,-0.13,-222.4,-0.6,-2.0,1.52,0.0,-0.15,0.0,0.9985489472229191,0.12569805089976535,0.0018719304491499056,0.28,0,0,0.0
3.49380350499996,44,4358.91,-97.4,-0.6,-105.8,0.07,0.06,-0.14,-0.02,-1.0,-0.12,-222.4,0.2,6.0,1.52,-0.02,-0.19,0.0,1.0073728207570423,0.1676305461424021,0.0104818879036076,0.28,0,0,0.0
3.505056699999841,45,4358.92,-97.4,-0.6,-105.8,0.07,0.04,-0.16,-0.02,-1.0,-0.11,-222.4,0.0,-1.0,1.52,0.0,-0.31,0.0,1.0062305898749053,0.17916472867168917,0.009152863881041196,0.28,0,0,0.0
3.529423568999846,47,4358.94,-97.3,-0.6,-105.8,0.17,-0.1,-0.23,-0.01,-1.01,-0.13,-222.4,0.1,8.0,1.52,-0.02,0.0,0.0,1.0183810681665286,0.30298514815086236,0.020877275329211242,0.28,0,0,0.0
3.537835742000425,48,4358.95,-97.3,-0.5,-105.8,0.11,-0.09,-0.22,-0.02,-1.0,-0.12,-222.4,-0.1,-3.0,1.52,0.0,-0.22,0.0,1.0073728207570423,0.2619160170741759,0.009671647361330415,0.28,0,0,0.0
3.545804830000634,49,4358.96,-97.3,-0.5,-105.8,0.06,-0.12,-0.2,-0.02,-1.0,-0.11,-222.4,0.1,-6.0,1.52,0.02,0.04,0.0,1.0062305898749053,0.24083189157584592,0.008358828149609643,0.28,0,0,0.0
3.553373917000499,50,4358.97,-97.3,-0.5,-105.8,0.1,-0.18,-0.16,-0.02,-0.99,-0.12,-222.4,-0.2,4.0,1.52,0.0,0.26,0.0,0.9974467404327911,0.260768096208106,0.0004165208666544462,0.28,0,0,0.0
3.5652415889999247,51,4358.98,-97.3,-0.5,-105.8,0.1,-0.24,-0.13,-0.02,-1.0,-0.11,-222.4,0.5,-2.0,1.52,0.0,0.0,0.0,1.0062305898749053,0.2906888370749727,0.008199982003950557,0.28,0,0,0.0
3.5738100930002474,52,4358.99,-97.2,-0.5,-105.9,0.08,-0.27,-0.11,-0.03,-1.01,-0.09,-222.4,0.0,0.0,1.52,0.0,-0.28,0.0,1.0144456614328832,0.3023243291566195,0.016086752490689804,0.28,0,0,0.0
3.5897326989997964,53,4359.0,-97.2,-0.5,-105.9,0.13,-0.38,-0.11,-0.03,-1.0,-0.09,-222.4,-0.4,3.0,1.52,0.0,0.02,0.0,1.0044899203078146,0.4164132562731403,0.006008391138308755,0.28,0,0,0.0
3.5976338139998916,54,4359.01,-97.1,-0.5,-106.0,0.23,-0.52,-0.12,-0.03,-1.0,-0.1,-222.4,0.6,8.0,1.52,-0.03,0.17,0.0,1.0054352291420865,0.5811196090307056,0.006814625973129096,0.28,0,0,0.0
3.609836766000626,55,4359.02,-97.1,-0.5,-106.1,0.25,-0.55,-0.12,-0.03,-0.99,-0.09,-222.4,0.0,-4.0,1.52,0.0,0.26,0.0,0.9945350672550466,0.6159545437773798,0.004003825195632582,0.28,0,0,0.0
3.617674046000502,56,4359.03,-97.1,-0.5,-106.1,0.31,-0.58,-0.12,-0.01,-0.97,-0.1,-222.4,0.6,0.0,1.52,0.0,0.17,0.0,0.9751922887307918,0.6685057965343307,0.022879671645489652,0.28,0,0,0.0
3.6295543780006483,57,4359.04,-97.0,-0.5,-106.2,0.39,-0.63,-0.12,-0.01,-0.97,-0.11,-222.4,-1.1,-10.0,1.52,0.02,-0.22,0.0,0.9762684057163787,0.7505997601918082,0.021367483566704593,0.28,0,0,0.0
3.63782473900028,58,4359.05,-97.0,-0.5,-106.2,0.4,-0.62,-0.12,-0.01,-0.98,-0.1,-222.4,0.5,12.0,1.52,-0.05,-0.04,0.0,0.9851395840184273,0.7475292636412303,0.012246379159362886,0.28,0,0,0.0
3.6495119330002126,59,4359.06,-96.9,-0.5,-106.3,0.36,-0.57,-0.13,-0.01,-0.99,-0.09,-222.4,0.5,-10.0,1.52,0.04,0.01,0.0,0.9941327879111522,0.6865857557508749,0.003188111761305179,0.28,0,0,0.0
3.657609717000014,60,4359.07,-96.9,-0.5,-106.4,0.38,-0.58,-0.15,0.0,-0.98,-0.1,-222.4,-0.6,2.0,1.52,0.0,-0.31,0.0,0.9850888284819801,0.7094363960215179,0.011987429766667779,0.28,0,0,0.0
3.6698838370002704,61,4359.08,-96.8,-0.5,-106.4,0.43,-0.6,-0.16,-0.01,-0.99,-0.11,-222.4,1.0,7.0,1.52,-0.01,0.1,0.0,0.9961425600786264,0.7553145040312677,0.0009150242066210401,0.28,0,0,0.0
3.6777412060000643,62,4359.09,-96.8,-0.5,-106.5,0.49,-0.56,-0.18,-0.01,-0.99,-0.11,-222.4,0.6,-5.0,1.52,0.0,0.04,0.0,0.9961425600786264,0.7655716818169283,0.0008967237224886127,0.28,0,0,0.0
3.6895119430000705,63,4359.1,-96.7,-0.5,-106.6,0.52,-0.52,-0.17,0.0,-1.0,-0.11,-222.4,-0.7,-5.0,1.52,0.01,0.0,0.0,1.0060318086422517,0.7547847375245476,0.008812674344313876,0.28,0,0,0.0
3.6978401630003646,64,4359.11,-96.6,-0.5,-106.6,0.61,-0.48,-0.2,0.0,-1.0,-0.11,-222.4,1.1,17.0,1.52,-0.06,0.01,0.0,1.0060318086422517,0.8015609770940699,0.008636420857427551,0.28,0,0,0.0
3.7095992140002636,65,4359.12,-96.6,-0.5,-106.7,0.69,-0.42,-0.22,0.0,-1.0,-0.11,-222.4,1.9,7.0,1.52,-0.06,-0.04,0.0,1.0060318086422517,0.8371977066380437,0.008463692440279003,0.28,0,0,0.0
3.7176909580002757,66,4359.13,-96.5,-0.4,-106.7,0.72,-0.35,-0.24,0.0,-1.0,-0.11,-222.3,2.5,4.0,1.52,-0.05,0.06,0.0,1.0060318086422517,0.8357631243360764,0.008294418591473396,0.28,0,0,0.0
3.7298174540001128,67,4359.14,-96.4,-0.4,-106.7,0.75,-0.23,-0.25,0.0,-1.01,-0.11,-222.3,1.2,-11.0,1.52,0.0,-0.13,0.0,1.0159724405711013,0.8233468284993876,0.017870349509916506,0.28,0,0,0.0
3.7378240930001994,68,4359.15,-96.4,-0.4,-106.7,0.84,-0.08,-0.25,0.01,-1.0,-0.12,-222.3,0.2,-7.0,1.52,0.0,0.0,0.0,1.0072239075796403,0.8800568163476719,0.008939380188086488,0.28,0,0,0.0
3.7495619110004554,69,4359.16,-96.3,-0.3,-106.7,0.91,0.07,-0.24,0.02,-1.0,-0.12,-222.3,0.4,4.0,1.52,-0.01,-0.04,0.0,1.0073728207570423,0.9437160589923221,0.008906527498178662,0.28,0,0,0.0
3.7577348390004772,70,4359.17,-96.2,-0.3,-106.7,0.98,0.22,-0.22,0.02,-0.99,-0.1,-222.3,1.2,5.0,1.52,-0.05,0.0,0.0,0.995238664843765,1.0282023147221562,0.003163075846796648,0.28,0,0,0.0
3.769882397999936,71,4359.18,-96.1,-0.2,-106.7,0.93,0.39,-0.21,0.03,-0.98,-0.1,-222.3,1.3,-2.0,1.52,-0.02,0.14,0.0,0.9855455342093535,1.0300970828033638,0.012599082351583912,0.28,0,0,0.0
3.7775657190004495,72,4359.19,-96.0,-0.2,-106.7,0.8,0.54,-0.22,0.03,-0.98,-0.1,-222.3,0.8,-1.0,1.51,-0.01,0.0,0.0,0.9855455342093535,0.9899494936611667,0.01234710070455225,0.28,0,0,0.0
3.7898784469998645,73,4359.2,-95.9,-0.2,-106.6,0.72,0.65,-0.22,0.02,-0.98,-0.11,-222.3,0.1,-4.0,1.51,-0.01,-0.27,0.0,0.9863569333664157,0.9946356116689167,0.011304987516540299,0.28,0,0,0.0
3.79772156800027,74,4359.21,-95.9,-0.1,-106.5,0.67,0.76,-0.22,0.01,-0.99,-0.1,-222.3,0.1,0.0,1.51,0.0,-0.31,0.0,0.9950879358127099,1.0367738422626218,0.0025225053688411325,0.28,0,0,0.0
3.8095246470002166,75,4359.22,-95.8,-0.1,-106.4,0.67,0.86,-0.23,0.0,-0.98,-0.09,-222.3,-0.3,-3.0,1.51,0.0,0.0,0.0,0.9841239759298621,1.1141813137905336,0.013216735946655178,0.28,0,0,0.0
3.8178953140004523,76,4359.23,-95.7,0.0,-106.4,0.67,0.92,-0.24,0.0,-0.98,-0.09,-222.3,0.1,0.0,1.51,0.0,-0.04,0.0,0.9841239759298621,1.1631422956801116,0.012952401227722121,0.28,0,0,0.0
3.8296701030003533,77,4359.24,-95.7,0.0,-106.3,0.68,0.99,-0.26,0.0,-0.98,-0.09,-222.3,0.1,0.0,1.51,0.0,-0.22,0.0,0.9841239759298621,1.2288612614937457,0.012693353203167668,0.28,0,0,0.0
3.8377553250002165,78,4359.25,-95.6,0.0,-106.2,0.66,1.03,-0.27,-0.01,-0.98,-0.09,-222.3,0.1,-1.0,1.51,0.0,0.19,0.0,0.9841747812253675,1.2527569596693526,0.012389696949509088,0.28,0,0,0.0
3.8495913510005266,79,4359.26,-95.5,0.0,-106.1,0.62,1.04,-0.29,-0.01,-0.98,-0.08,-222.3,-0.1,1.0,1.51,0.0,-0.08,0.0,0.9833107342035883,1.2450301201175817,0.012988669091862581,0.28,0,0,0.0
3.857715187999929,80,4359.27,-95.5,0.0,-106.0,0.56,1.05,-0.26,-0.01,-0.98,-0.08,-222.3,-0.1,-1.0,1.51,0.0,0.09,0.0,0.9833107342035883,1.2180722474467598,0.012728895710025334,0.28,0,0,0.0
3.86954218900064,81,4359.28,-95.4,0.0,-105.9,0.52,1.04,-0.24,-0.01,-0.98,-0.07,-222.3,0.0,-1.0,1.51,0.0,0.0,0.0,0.98254770876533,1.1872657663724664,0.013222082725317885,0.28,0,0,0.0
3.8778058200005034,82,4359.29,-95.3,0.0,-105.8,0.52,0.98,-0.23,-0.02,-0.98,-0.06,-222.3,-0.4,-1.0,1.51,0.0,0.09,0.0,0.9820386957752734,1.1330048543585327,0.01345647380106707,0.28,0,0,0.0
3.889630106000368,83,4359.3,-95.2,0.0,-105.7,0.56,0.87,-0.22,-0.02,-0.98,-0.05,-222.3,0.6,0.0,1.51,0.01,-0.18,0.0,0.9814784765851974,1.0577806956075537,0.013736359131320208,0.28,0,0,0.0
3.897739697000361,84,4359.31,-95.2,0.1,-105.6,0.5,0.73,-0.25,-0.03,-0.98,-0.05,-222.3,-0.3,-2.0,1.51,0.02,-0.18,0.0,0.9817331613019904,0.9194563611178075,0.013212040926236623,0.28,0,0,0.0
3.909667186000661,85,4359.32,-95.1,0.1,-105.5,0.43,0.58,-0.28,-0.04,-0.98,-0.05,-222.3,0.2,8.0,1.51,-0.02,0.09,0.0,0.982089608946149,0.7744029958619737,0.01259848141643638,0.28,0,0,0.0
3.917768661000082,86,4359.33,-95.0,0.1,-105.5,0.36,0.44,-0.33,-0.05,-0.98,-0.05,-222.3,-0.3,-4.0,1.51,0.0,0.13,0.0,0.98254770876533,0.6573431371817918,0.011897573965310326,0.28,0,0,0.0
3.9295883290005804,87,4359.34,-95.0,0.1,-105.5,0.28,0.3,-0.39,-0.05,-0.98,-0.04,-222.3,0.3,3.0,1.51,0.0,-0.32,0.0,0.982089608946149,0.5661271941887265,0.012108560308801475,0.28,0,0,0.0
3.937623870000607,88,4359.35,-94.9,0.1,-105.4,0.21,0.15,-0.44,-0.05,-0.98,-0.04,-222.3,-0.2,-1.0,1.51,0.0,0.0,0.0,0.982089608946149,0.510098029794274,0.011866389102625496,0.28,0,0,0.0
3.949658872999862,89,4359.36,-94.9,0.1,-105.4,0.19,0.01,-0.46,-0.05,-0.98,-0.04,-222.3,0.1,0.0,1.51,0.0,0.0,0.0,0.982089608946149,0.4977951385861457,0.011629061320572953,0.28,0,0,0.0
3.957787864000238,90,4359.37,-94.9,0.1,-105.4,0.19,-0.09,-0.46,-0.04,-0.99,-0.05,-222.3,-0.5,-2.0,1.52,0.0,-0.09,0.0,0.9920685460188726,0.5057667446560717,0.001617121762892415,0.28,0,0,0.0
3.9695232220001344,91,4359.38,-94.8,0.1,-105.5,0.23,-0.21,-0.47,-0.04,-0.99,-0.04,-222.3,-0.1,5.0,1.51,-0.01,0.0,0.0,0.9916148445843276,0.5638262143604179,0.0020294067334887256,0.28,0,0,0.0
3.9779035620003924,92,4359.39,-94.8,0.2,-105.5,0.22,-0.35,-0.47,-0.04,-0.99,-0.04,-222.3,0.0,-1.0,1.52,0.0,-0.04,0.0,0.9916148445843276,0.625939294181153,0.001988818598818942,0.28,0,0,0.0
3.989594155999839,93,4359.4,-94.7,0.2,-105.5,0.19,-0.51,-0.46,-0.03,-0.99,-0.04,-222.3,-0.1,1.0,1.52,-0.01,0.14,0.0,0.9912618221237011,0.7126008700527947,0.0022950042382565705,0.28,0,0,0.0
3.9976157259998217,94,4359.41,-94.7,0.2,-105.6,0.17,-0.63,-0.48,-0.03,-0.99,-0.05,-222.3,0.0,-5.0,1.52,0.01,0.04,0.0,0.9917156850630123,0.8100617260431454,0.0018043184729663597,0.28,0,0,0.0
4.009825050000472,95,4359.42,-94.7,0.2,-105.7,0.17,-0.71,-0.46,-0.03,-0.99,-0.05,-222.3,0.0,4.0,1.52,-0.01,0.04,0.0,0.9917156850630123,0.862902080192185,0.0017682321035070725,0.28,0,0,0.0
4.017875885000649,96,4359.43,-94.6,0.2,-105.8,0.2,-0.79,-0.43,-0.02,-1.0,-0.04,-222.3,0.0,1.0,1.52,0.0,-0.13,0.0,1.000999500499376,0.9214119599831555,0.00736527166619938,0.28,0,0,0.0
4.029548294000051,97,4359.44,-94.6,0.2,-105.8,0.27,-0.85,-0.43,-0.02,-1.0,-0.04,-222.3,0.0,2.0,1.52,0.0,0.0,0.0,1.000999500499376,0.990101004948485,0.007217966232875406,0.28,0,0,0.0
4.037767315000565,98,4359.45,-94.5,0.3,-105.9,0.31,-0.93,-0.45,-0.03,-1.0,-0.04,-222.3,0.0,3.0,1.52,0.0,-0.04,0.0,1.0012492197250393,1.0786565718522276,0.007318331749368023,0.28,0,0,0.0
4.049655933999929,99,4359.46,-94.5,0.3,-106.0,0.24,-1.03,-0.5,-0.04,-1.0,-0.03,-222.3,-0.4,0.0,1.52,0.0,-0.13,0.0,1.0012492197250393,1.1698290473398238,0.007171965114380674,0.28,0,0,0.0
4.057784049000475,100,4359.47,-94.4,0.3,-106.1,0.14,-1.11,-0.55,-0.04,-1.0,-0.04,-222.3,-0.1,-2.0,1.52,0.01,0.09,0.0,1.001598722043913,1.2466755792907793,0.0073710380845893875,0.28,0,0,0.0
4.069623196000066,101,4359.48,-94.4,0.3,-106.3,0.09,-1.16,-0.62,-0.03,-1.0,-0.05,-222.3,-0.3,-1.0,1.52,0.01,-0.04,0.0,1.0016985574512922,1.3183702059740277,0.007321456022129191,0.28,0,0,0.0
4.077733875000376,102,4359.49,-94.4,0.3,-106.4,0.04,-1.2,-0.66,-0.03,-1.0,-0.05,-222.3,0.5,2.0,1.52,0.0,0.0,0.0,1.0016985574512922,1.370109484676316,0.0071750269016865875,0.28,0,0,0.0
4.0895107020005526,103,4359.5,-94.4,0.4,-106.5,0.11,-1.24,-0.69,-0.02,-1.0,-0.05,-222.3,-0.6,1.0,1.52,-0.02,0.09,0.0,1.0014489502715553,1.4233060106667152,0.006786911327510747,0.28,0,0,0.0
4.0978579399998125,104,4359.51,-94.4,0.4,-106.6,0.16,-1.28,-0.67,0.0,-0.99,-0.05,-222.3,0.6,-3.0,1.52,0.03,0.05,0.0,0.9912618221237011,1.4535817830449034,0.0033322124839366696,0.28,0,0,0.0
4.109836278999865,105,4359.52,-94.3,0.5,-106.8,0.14,-1.33,-0.63,0.0,-1.0,-0.06,-222.3,-1.5,-2.0,1.52,0.01,0.04,0.0,1.0017983829094554,1.4783098457360015,0.007060261335781304,0.28,0,0,0.0
4.1177042879999135,106,4359.53,-94.3,0.5,-106.9,0.14,-1.31,-0.6,0.01,-1.0,-0.07,-222.3,-0.2,4.0,1.52,0.0,-0.03,0.0,1.002496882788171,1.447653273404927,0.00760358599020694,0.28,0,0,0.0
4.129547289000584,107,4359.54,-94.3,0.6,-107.1,0.18,-1.27,-0.58,0.01,-1.0,-0.07,-222.3,0.0,4.0,1.52,0.0,0.09,0.0,1.002496882788171,1.4077286670377924,0.007451514270402804,0.28,0,0,0.0
4.137857426000664,108,4359.55,-94.3,0.6,-107.2,0.16,-1.23,-0.57,0.02,-1.0,-0.06,-222.3,0.0,1.0,1.52,0.0,0.0,0.0,1.0019980039900278,1.3650641010589941,0.0068135827628144074,0.28,0,0,0.0
4.149568593999902,109,4359.56,-94.3,0.7,-107.3,0.11,-1.24,-0.57,0.02,-1.0,-0.06,-222.3,0.0,0.0,1.52,0.01,0.0,0.0,1.0019980039900278,1.3691603266235843,0.006677311107558093,0.28,0,0,0.0
4.157917586000622,110,4359.57,-94.2,0.8,-107.4,0.07,-1.26,-0.54,0.02,-1.0,-0.06,-222.3,0.1,4.0,1.52,-0.03,0.24,0.0,1.0019980039900278,1.3726252219743014,0.006543764885406977,0.28,0,0,0.0
4.169529493000482,111,4359.58,-94.2,0.8,-107.6,0.1,-1.27,-0.49,0.02,-1.0,-0.05,-222.3,0.6,-1.0,1.52,0.03,0.0,0.0,1.0014489502715553,1.3649175799292792,0.0058748169435958175,0.28,0,0,0.0
4.177857387000586,112,4359.59,-94.2,0.8,-107.7,0.21,-1.28,-0.47,0.02,-1.0,-0.05,-222.3,-1.2,-4.0,1.52,0.01,-0.03,0.0,1.0014489502715553,1.3796376335835436,0.005757320604723892,0.28,0,0,0.0
4.1895652410003095,113,4359.6,-94.2,0.9,-107.8,0.36,-1.27,-0.41,0.02,-0.98,-0.06,-222.3,-0.1,3.0,1.52,0.0,-0.13,0.0,0.9820386957752734,1.3822445514452208,0.013379875213726966,0.28,0,0,0.0
4.19780712300053,114,4359.61,-94.1,0.9,-108.0,0.44,-1.29,-0.34,0.02,-0.97,-0.05,-222.3,-0.3,-2.0,1.52,0.01,0.09,0.0,0.9714936952960631,1.4047419691886478,0.023446378179078464,0.28,0,0,0.0
4.209668282000166,115,4359.62,-94.1,1.0,-108.1,0.43,-1.3,-0.27,0.02,-0.96,-0.05,-222.3,-0.6,-3.0,1.52,0.03,0.05,0.0,0.9615092303249095,1.3956360557108003,0.03276222628722736,0.28,0,0,0.0
4.217643191000207,116,4359.63,-94.0,1.0,-108.2,0.44,-1.3,-0.23,0.02,-0.97,-0.05,-222.3,-0.9,6.0,1.52,0.0,0.0,0.0,0.9714936952960631,1.3915818337417316,0.022322206089752328,0.28,0,0,0.0
4.229642758000409,117,4359.64,-94.0,1.0,-108.4,0.46,-1.29,-0.2,0.01,-0.97,-0.06,-222.3,0.2,2.0,1.52,0.0,0.05,0.0,0.9719053451854249,1.3840881474819442,0.021472345076382737,0.28,0,0,0.0
4.237779754999792,118,4359.65,-93.9,1.0,-108.5,0.39,-1.27,-0.19,0.02,-0.98,-0.06,-222.3,-0.2,-3.0,1.52,0.01,-0.17,0.0,0.9820386957752734,1.342050669684271,0.011112214596803671,0.28,0,0,0.0
4.249624635000146,119,4359.66,-93.9,1.0,-108.6,0.36,-1.27,-0.22,0.02,-1.0,-0.06,-222.3,0.0,2.0,1.52,0.0,-0.17,0.0,1.0019980039900278,1.3382451195502265,0.008670151745591714,0.28,0,0,0.0
4.257791830000315,120,4359.67,-93.9,1.0,-108.7,0.35,-1.24,-0.26,0.02,-1.02,-0.07,-222.3,-0.2,2.0,1.52,-0.01,0.24,0.0,1.0225947388873071,1.31442002419318,0.02868154891001362,0.28,0,0,0.0
4.269632110000202,121,4359.68,-93.8,1.1,-108.9,0.34,-1.2,-0.3,0.03,-1.04,-0.07,-222.3,-0.3,-1.0,1.52,0.0,0.06,0.0,1.0427847332982967,1.282809416865966,0.04789411245458308,0.28,0,0,0.0
4.277742379000301,122,4359.69,-93.8,1.1,-109.0,0.42,-1.16,-0.35,0.04,-1.05,-0.07,-222.3,-0.1,0.0,1.52,0.0,0.09,0.0,1.0530906893520615,1.2823805987303456,0.05703606713818099,0.28,0,0,0.0
4.289528963000521,123,4359.7,-93.7,1.1,-109.1,0.55,-1.12,-0.41,0.04,-1.05,-0.07,-222.3,-0.1,2.0,1.52,0.0,0.15,0.0,1.0530906893520615,1.3133925536563698,0.05589534579541733,0.28,0,0,0.0
4.297838024000157,124,4359.71,-93.7,1.2,-109.2,0.52,-1.12,-0.5,0.04,-1.05,-0.06,-222.3,-0.1,0.0,1.52,0.0,-0.27,0.0,1.0524732775705044,1.332216198670471,0.05417237533358299,0.28,0,0,0.0
4.3096743300002345,125,4359.72,-93.6,1.2,-109.3,0.49,-1.17,-0.61,0.03,-1.05,-0.05,-222.3,0.2,0.0,1.52,0.0,0.09,0.0,1.051617801294748,1.407515541654869,0.05225056107667003,0.28,0,0,0.0
4.317785909000122,126,4359.73,-93.6,1.3,-109.5,0.49,-1.28,-0.72,0.03,-1.05,-0.04,-222.3,-1.2,-8.0,1.52,0.03,0.15,0.0,1.0511898020814319,1.5481924944915604,0.050786110626086955,0.28,0,0,0.0
4.329646027000308,127,4359.74,-93.5,1.4,-109.6,0.58,-1.4,-0.81,0.03,-1.04,-0.04,-222.4,-0.5,1.0,1.52,0.01,0.04,0.0,1.0412012293500235,1.7182840277439582,0.03998158713678501,0.28,0,0,0.0
4.33777741799986,128,4359.75,-93.4,1.5,-109.8,0.71,-1.54,-0.88,0.02,-1.02,-0.04,-222.4,-0.3,-1.0,1.52,0.01,-0.08,0.0,1.0209799214480175,1.9105234884711573,0.019365073650083442,0.28,0,0,0.0
4.349639187000321,129,4359.76,-93.4,1.5,-109.9,0.8,-1.68,-0.86,0.02,-1.01,-0.04,-222.4,-1.4,-9.0,1.52,0.04,0.06,0.0,1.0109896141899777,2.0498780451529304,0.009187271064202696,0.28,0,0,0.0
4.35774313300044,130,4359.77,-93.3,1.6,-110.1,0.88,-1.8,-0.83,0.03,-0.99,-0.05,-222.4,-2.1,-5.0,1.52,0.06,0.13,0.0,0.9917156850630123,2.1687092935661063,0.009884924901507497,0.28,0,0,0.0
4.369854495000254,131,4359.78,-93.2,1.7,-110.3,1.0,-1.9,-0.83,0.04,-0.99,-0.05,-222.4,-2.2,0.0,1.52,0.06,0.0,0.0,0.9920685460188726,2.301933969513461,0.009341422666734212,0.28,0,0,0.0
4.377672382000128,132,4359.79,-93.1,1.8,-110.5,1.02,-1.99,-0.78,0.05,-0.98,-0.05,-222.4,-2.5,-4.0,1.52,0.07,0.09,0.0,0.98254770876533,2.3683116348994275,0.018485014721871362,0.28,0,0,0.0
4.389621162000367,133,4359.8,-93.0,1.9,-110.7,1.03,-2.09,-0.78,0.05,-0.98,-0.05,-222.5,-3.4,-6.0,1.52,0.1,0.0,0.0,0.98254770876533,2.457112126053673,0.01811531442743397,0.28,0,0,0.0
4.397724421000021,134,4359.81,-92.9,1.9,-110.9,1.12,-2.2,-0.81,0.06,-0.97,-0.05,-222.5,-3.7,-4.0,1.52,0.08,0.0,0.0,0.973139250056229,2.598172434616302,0.026973297673804186,0.28,0,0,0.0
4.409715920000053,135,4359.82,-92.8,2.0,-111.2,1.26,-2.25,-0.82,0.07,-0.95,-0.06,-222.5,-2.6,14.0,1.52,0.03,0.0,0.0,0.9544631999192007,2.7060118255469616,0.04473636085461585,0.28,0,0,0.0
4.417823064000004,136,4359.83,-92.7,2.1,-111.4,1.3,-2.27,-0.78,0.08,-0.95,-0.07,-222.5,-0.6,11.0,1.52,0.01,0.0,0.0,0.955928867646542,2.7297069439776864,0.042405279264729145,0.28,0,0,0.0
4.429555536000407,137,4359.84,-92.6,2.2,-111.6,1.3,-2.23,-0.77,0.08,-0.95,-0.08,-222.5,-0.2,5.0,1.52,0.0,-0.06,0.0,0.9567131231461183,2.6936592212082062,0.04078860328984968,0.28,0,0,0.0
4.437869858999875,138,4359.85,-92.5,2.3,-111.8,1.28,-2.16,-0.74,0.09,-0.96,-0.08,-222.6,-0.2,0.0,1.52,0.01,-0.07,0.0,0.9675226095549395,2.617556112101515,0.029379534543407915,0.28,0,0,0.0
4.449650597000073,139,4359.86,-92.4,2.4,-112.1,1.25,-2.06,-0.7,0.09,-0.96,-0.08,-222.6,0.1,4.0,1.52,0.0,0.09,0.0,0.9675226095549395,2.509203060734623,0.028791943852539803,0.28,0,0,0.0
4.45776861900049,140,4359.87,-92.3,2.5,-112.3,1.21,-1.95,-0.65,0.1,-0.96,-0.09,-222.5,0.0,1.0,1.52,0.0,0.08,0.0,0.9693812459502195,2.3851834311012645,0.02639464130811464,0.28,0,0,0.0
4.469607675000589,141,4359.88,-92.2,2.6,-112.5,1.16,-1.82,-0.6,0.1,-0.97,-0.1,-222.5,1.1,16.0,1.52,-0.06,-0.23,0.0,0.9802550688468793,2.240089283934906,0.015210402043225657,0.28,0,0,0.0
4.477799266000147,142,4359.89,-92.2,2.7,-112.6,1.05,-1.66,-0.54,0.11,-0.97,-0.1,-222.5,3.4,23.0,1.52,-0.15,-0.24,0.0,0.9813256340277675,2.0370812453115366,0.013857040125090703,0.28,0,0,0.0
4.489572726000006,143,4359.9,-92.1,2.8,-112.8,0.9,-1.51,-0.52,0.11,-0.99,-0.1,-222.4,8.9,59.0,1.52,-0.39,-0.08,0.0,1.0010993956645864,1.8331666590902203,0.005798387081493606,0.28,0,0,0.0
4.497854599000675,144,4359.91,-92.1,2.9,-112.9,0.79,-1.39,-0.54,0.11,-1.0,-0.1,-222.3,19.0,81.0,1.51,-0.66,-0.01,0.0,1.0109896141899777,1.6875425920550864,0.01537483349474722,0.28,0,0,0.0
4.509688658000414,145,4359.92,-92.0,2.9,-113.1,0.77,-1.25,-0.57,0.11,-1.01,-0.1,-222.0,31.0,121.0,1.5,-1.06,0.08,0.0,1.0208819716304134,1.5748968220172395,0.02476184711647922,0.28,0,0,0.0
4.51779251500011,146,4359.93,-92.0,3.0,-113.2,0.86,-1.08,-0.58,0.1,-1.02,-0.1,-221.6,46.4,151.0,1.49,-1.51,-0.07,0.0,1.0297572529484802,1.4974645237867907,0.03296438586585515,0.28,0,0,0.0
4.5296206359998905,147,4359.94,-92.0,3.1,-113.3,1.0,-0.93,-0.56,0.11,-1.01,-0.1,-221.0,62.9,156.0,1.47,-1.97,-0.08,0.0,1.0208819716304134,1.4759742545180117,0.023607322456832613,0.28,0,0,0.0
4.53779692199987,148,4359.95,-91.9,3.2,-113.4,1.17,-0.79,-0.54,0.11,-1.01,-0.1,-220.3,80.4,173.0,1.45,-2.49,0.09,0.0,1.0208819716304134,1.5114893317519644,0.02313517600769599,0.28,0,0,0.0
4.549575994000406,149,4359.96,-91.8,3.3,-113.5,1.33,-0.67,-0.55,0.11,-1.0,-0.1,-219.3,101.1,203.0,1.42,-3.08,-0.06,0.0,1.0109896141899777,1.5875452749449386,0.012977962195915071,0.28,0,0,0.0
4.557757204000154,150,4359.97,-91.7,3.4,-113.5,1.14,-0.56,-0.54,0.1,-0.99,-0.1,-218.2,123.7,217.0,1.38,-3.7,-0.11,0.0,1.0000499987500624,1.3801449199268894,0.00199757982087978,0.28,0,0,0.0
4.569624703000045,151,4359.98,-91.7,3.4,-113.6,1.11,-0.52,-0.46,0.1,-1.0,-0.09,-216.8,145.9,223.0,1.34,-4.3,0.07,0.0,1.0090094152187083,1.3092364186807515,0.010737856363735254,0.28,0,0,0.0
4.577717723000205,152,4359.99,-91.6,3.5,-113.6,1.38,-0.52,-0.44,0.09,-0.97,-0.09,-215.2,167.5,209.0,1.3,-4.82,-0.07,0.0,0.9783148777362021,1.5389606882568507,0.0195575474963956,0.28,0,0,0.0
4.589567920999798,153,4360.0,-91.6,3.5,-113.6,1.38,-0.52,-0.44,0.09,-0.97,-0.09,-213.8,181.0,222.0,1.24,-5.32,-0.04,0.0,0.9783148777362021,1.5389606882568507,0.01916639654646768,0.28,0,0,0.0
4.597921463000603,154,4360.01,-91.4,3.6,-113.7,1.44,-0.35,-0.28,0.09,-0.97,-0.11,-211.2,204.1,195.0,1.19,-5.72,0.04,0.0,0.9803570778037969,1.5081445554057475,0.01678171254929539,0.28,0,0,0.0
4.609710628999892,155,4360.02,-91.3,3.6,-113.8,1.46,-0.28,-0.25,0.09,-0.97,-0.11,-209.0,216.2,132.0,1.13,-5.97,0.0,0.0,0.9803570778037969,1.5074813431681333,0.016446078298309463,0.28,0,0,0.0
4.617761301999963,156,4360.03,-91.2,3.7,-113.8,1.46,-0.23,-0.22,0.1,-0.96,-0.11,-206.8,219.2,30.0,1.07,-5.88,0.04,0.0,0.9714422267947795,1.4942891286494726,0.024853710721180255,0.28,0,0,0.0
4.629569602000629,157,4360.04,-91.1,3.7,-113.8,1.5,-0.15,-0.18,0.1,-0.96,-0.12,-204.7,210.3,-66.0,1.01,-5.55,-0.02,0.0,0.9726253132630263,1.5181897114655993,0.023197211767874815,0.28,0,0,0.0
4.637802793000446,158,4360.05,-90.9,3.7,-113.8,1.49,-0.06,-0.12,0.1,-0.96,-0.13,-202.7,194.7,-135.0,0.96,-5.07,0.11,0.0,0.973909646733207,1.49602807460288,0.021474620731740224,0.28,0,0,0.0
4.649551424000492,159,4360.06,-90.8,3.7,-113.8,1.47,0.05,-0.04,0.1,-0.96,-0.13,-200.9,176.0,-173.0,0.91,-4.54,0.08,0.0,0.973909646733207,1.471393896956216,0.021045128317105366,0.28,0,0,0.0
4.6579415910000534,160,4360.07,-90.6,3.7,-113.8,1.47,0.16,0.03,0.09,-0.96,-0.13,-199.3,156.0,-196.0,0.87,-3.99,0.0,0.0,0.9729337079164233,1.4789861392183496,0.021580645791211328,0.28,0,0,0.0
4.66954201200042,161,4360.08,-90.5,3.7,-113.8,1.46,0.25,0.13,0.09,-0.95,-0.13,-197.8,135.4,-196.0,0.83,-3.44,-0.03,0.0,0.9630680142129111,1.4869431730903504,0.030817412704829072,0.28,0,0,0.0
4.67756667499998,162,4360.09,-90.3,3.7,-113.8,1.45,0.32,0.24,0.09,-0.94,-0.13,-196.6,116.3,-184.0,0.8,-2.96,0.09,0.0,0.9532051195833979,1.5041608956491324,0.03986670118765545,0.28,0,0,0.0
4.689648008999939,163,4360.1,-90.2,3.7,-113.7,1.45,0.42,0.38,0.1,-0.92,-0.13,-195.6,102.6,-138.0,0.78,-2.67,0.04,0.0,0.9345052166788584,1.5566952174398174,0.057395272010350995,0.28,0,0,0.0
4.697797171000275,164,4360.11,-90.0,3.6,-113.7,1.45,0.51,0.51,0.1,-0.92,-0.14,-194.6,91.6,-113.0,0.75,-2.38,0.02,0.0,0.9359487165438072,1.619475223644993,0.05483273670249422,0.28,0,0,0.0
4.709626929000478,165,4360.12,-89.9,3.6,-113.6,1.47,0.65,0.61,0.1,-0.91,-0.14,-193.7,84.8,-73.0,0.73,-2.25,0.09,0.0,0.9261209424259879,1.7191567700474555,0.06336730060390727,0.28,0,0,0.0
4.717750196000452,166,4360.13,-89.7,3.5,-113.6,1.35,0.8,0.7,0.1,-0.91,-0.14,-192.9,83.1,-20.0,0.71,-2.29,0.08,0.0,0.9261209424259879,1.7182840277439584,0.062099954591829154,0.28,0,0,0.0
4.729612636000638,167,4360.14,-89.6,3.4,-113.5,1.19,0.88,0.75,0.1,-0.92,-0.12,-192.1,86.6,22.0,0.68,-2.41,0.01,0.0,0.9331666517830564,1.6592166826548003,0.053953160330065475,0.28,0,0,0.0
4.737727737000569,168,4360.15,-89.5,3.3,-113.4,1.04,0.94,0.8,0.11,-0.93,-0.11,-191.2,92.5,55.0,0.66,-2.63,-0.18,0.0,0.9429209935090003,1.6140631957888143,0.043314842232039075,0.28,0,0,0.0
4.749612036000144,169,4360.16,-89.4,3.3,-113.3,0.98,1.0,0.86,0.12,-0.92,-0.12,-190.2,100.5,65.0,0.63,-2.79,0.0,0.0,0.93552124508212,1.6431676725154982,0.04970029884574101,0.28,0,0,0.0
4.757741217999865,170,4360.17,-89.3,3.2,-113.2,0.96,1.12,0.98,0.12,-0.91,-0.12,-189.1,104.1,35.0,0.6,-2.83,0.0,0.0,0.9256889326334198,1.7709884245810303,0.05834195906855233,0.28,0,0,0.0
4.769577238999773,171,4360.18,-89.2,3.1,-113.1,1.01,1.25,1.13,0.12,-0.9,-0.11,-188.1,104.5,7.0,0.57,-2.82,0.03,0.0,0.9146037393319579,1.9645610196682617,0.06803860932261385,0.28,0,0,0.0
4.777887815000213,172,4360.19,-89.1,2.9,-112.9,0.94,1.34,1.24,0.11,-0.9,-0.11,-187.1,101.4,-35.0,0.55,-2.65,0.25,0.0,0.9133454987024352,2.053484842895121,0.06791091295309382,0.28,0,0,0.0
4.789668793000601,173,4360.2,-89.0,2.8,-112.8,0.75,1.42,1.32,0.11,-0.89,-0.11,-186.1,92.9,-80.0,0.52,-2.37,-0.16,0.0,0.9034932207825358,2.0787736769547567,0.07620792705553336,0.28,0,0,0.0
4.797781670999939,174,4360.21,-88.9,2.7,-112.7,0.48,1.46,1.38,0.1,-0.9,-0.11,-185.3,77.8,-148.0,0.5,-1.85,0.08,0.0,0.9121951545584969,2.065526567246231,0.06615587341398088,0.28,0,0,0.0
4.8095166410003,175,4360.22,-88.9,2.5,-112.5,0.28,1.55,1.45,0.1,-0.9,-0.12,-184.7,53.1,-240.0,0.49,-1.06,0.31,0.0,0.913454979733539,2.140887666366454,0.06359812727416003,0.28,0,0,0.0
4.817721234000601,176,4360.23,-88.8,2.4,-112.3,0.08,1.6,1.53,0.09,-0.92,-0.12,-184.4,17.1,-342.0,0.48,0.03,0.24,0.0,0.932148056909416,2.215242650365869,0.044006949096317305,0.28,0,0,0.0
4.829580872999941,177,4360.24,-88.8,2.2,-112.2,-0.19,1.72,1.56,0.07,-0.94,-0.13,-184.4,-13.8,-255.0,0.49,0.55,0.1,0.0,0.9515250916292224,2.3298283198553493,0.02413731608898073,0.28,0,0,0.0
4.837637020000329,178,4360.25,-88.9,2.0,-112.0,-0.39,1.87,1.62,0.07,-0.95,-0.15,-184.7,-27.0,-165.0,0.5,0.86,0.07,0.0,0.9643132271207318,2.50467562770112,0.01112219698552197,0.28,0,0,0.0
4.8496776580004735,179,4360.26,-88.9,1.9,-111.8,-0.69,2.06,1.6,0.03,-1.0,-0.14,-185.0,-34.4,-87.0,0.51,0.97,-0.12,0.0,1.010198000393982,2.6980919183749097,0.03406732476197383,0.28,0,0,0.0
4.857793292000679,180,4360.27,-89.0,1.7,-111.6,-1.05,2.19,1.44,0.03,-1.02,-0.13,-185.4,-38.7,-64.0,0.52,1.12,-0.14,0.0,1.0286884854026508,2.8235084558045864,0.051506653575229655,0.28,0,0,0.0
4.869483958000274,181,4360.28,-89.1,1.6,-111.4,-1.33,2.27,1.25,0.06,-1.02,-0.12,-185.8,-48.4,-113.0,0.53,1.52,0.11,0.0,1.0287856919689349,2.912782175172047,0.050571782938683474,0.28,0,0,0.0
4.877774022999802,182,4360.29,-89.3,1.5,-111.2,-1.56,2.28,1.09,0.08,-1.02,-0.12,-186.4,-66.0,-143.0,0.55,1.96,0.0,0.0,1.030145620774073,2.969865316811522,0.05089307750894512,0.28,0,0,0.0
4.8895908969998345,183,4360.3,-89.4,1.4,-110.9,-2.05,2.43,0.84,0.07,-1.1,-0.1,-187.2,-78.0,-118.0,0.57,2.23,-0.02,0.0,1.1067520047418031,3.2883126372046805,0.12494947224714181,0.28,0,0,0.0
4.897734832999959,184,4360.31,-89.7,1.3,-110.7,-2.79,2.52,0.3,0.04,-1.18,-0.03,-188.0,-84.7,-65.0,0.59,2.33,-0.31,0.0,1.181058846967415,3.771538147758816,0.1952711881832987,0.28,0,0,0.0
4.909523455999988,185,4360.32,-90.0,1.3,-110.4,-3.55,2.38,-0.3,-0.02,-1.26,0.01,-188.9,-86.0,-23.0,0.62,2.32,-0.16,0.0,1.260198397078809,4.284495302833228,0.26892252352879886,0.28,0,0,0.0
4.917622493000636,186,4360.33,-90.4,1.3,-110.2,-3.93,2.07,-0.89,-0.07,-1.33,0.03,-189.7,-82.1,22.0,0.64,2.18,-0.01,0.0,1.3321786666960254,4.5301103739313024,0.33408473728309485,0.28,1,1,3.0
4.929590431000179,187,4360.34,-90.8,1.4,-110.0,-3.63,1.76,-1.21,-0.06,-1.32,0.02,-190.5,-78.4,23.0,0.66,2.12,-0.18,0.0,1.3215142829345432,4.211721738196863,0.3169519464511805,0.28,0,1,3.0
4.937760615000116,188,4360.35,-91.0,1.5,-109.9,-2.68,1.44,-1.26,-0.03,-1.29,0.04,-191.1,-43.1,614.0,0.67,-0.55,3.04,3.49,1.2909686285886268,3.292962192312569,0.2806781662631588,0.28,0,1,3.0
4.949630463000176,189,4360.36,-91.2,1.6,-109.7,-1.26,1.08,-0.97,0.04,-1.18,0.0,-190.7,79.7,860.0,0.64,-3.11,3.3,3.49,1.1806777714516352,1.922212267154697,0.1669795629436439,0.28,0,1,3.0
4.957751904000361,190,4360.37,-91.3,1.7,-109.6,-0.15,1.25,-0.56,0.15,-1.09,-0.06,-189.4,137.8,519.0,0.6,-3.94,3.55,3.49,1.1019074371289088,1.377896948251211,0.08644504404849918,0.28,0,1,3.0
4.969647540000551,191,4360.38,-91.2,1.8,-109.5,0.13,1.75,-0.16,0.22,-1.02,-0.09,-188.0,134.4,40.0,0.57,-3.29,3.55,3.49,1.047329938462565,1.7621010186706096,0.03123019447451214,0.28,0,1,3.0
4.977762462000101,192,4360.39,-91.2,1.8,-109.3,-0.11,2.43,0.1,0.24,-0.99,-0.09,-186.9,102.9,-241.0,0.54,-2.22,3.61,3.49,1.0226436329435586,2.434543078279783,0.006413011176395811,0.28,0,1,3.0
4.989479482000206,193,4360.4,-91.3,1.7,-109.0,-0.55,3.23,0.26,0.22,-0.96,-0.08,-186.2,58.9,-357.0,0.53,-1.1,3.54,3.49,0.98812954616285,3.2867917488030787,0.027539054092226567,0.28,0,1,3.0
4.997788740000033,194,4360.41,-91.3,1.7,-108.6,-0.87,3.82,0.5,0.2,-0.93,-0.04,-185.9,19.7,-367.0,0.52,-0.09,3.71,3.49,0.9521029356114812,3.9495949159375825,0.062294351350723476,0.28,0,1,3.0
5.009654485000283,195,4360.42,-91.4,1.7,-108.2,-0.68,4.21,0.8,0.19,-0.91,0.0,-185.9,-3.5,-167.0,0.52,0.0,3.54,3.49,0.929623579735368,4.338951486246418,0.08307823308229989,0.28,0,1,3.0
5.01767757000016,196,4360.43,-91.4,1.6,-107.8,-0.31,4.63,1.09,0.2,-0.9,0.0,-185.9,0.8,-62.0,0.52,0.04,3.54,3.49,0.9219544457292888,4.766665501165359,0.08893241974661148,0.28,0,1,3.0
5.029590492000352,197,4360.44,-91.4,1.5,-107.3,-0.17,4.96,1.17,0.14,-0.92,0.02,-185.9,-0.6,-15.0,0.52,0.0,3.27,3.49,0.9308061022576076,5.098960678412808,0.07847914795392674,0.28,0,1,3.0
5.0377778410002065,198,4360.45,-91.4,1.4,-106.8,-0.29,5.25,1.15,0.05,-0.94,0.03,-185.9,-0.6,-12.0,0.52,0.03,3.67,3.49,0.9418067742376882,5.382295049511871,0.0661289064543692,0.28,0,1,3.0
5.0495970530000704,199,4360.46,-91.4,1.3,-106.2,-0.35,5.27,1.01,0.0,-0.97,0.08,-185.9,-0.8,-2.0,0.53,0.01,3.37,3.49,0.9732933781753578,5.377313455620752,0.03394945646636571,0.28,0,1,3.0
5.057796068000243,200,4360.47,-91.4,1.2,-105.7,-0.16,5.15,0.8,-0.07,-1.0,0.1,-185.9,-0.9,-1.0,0.53,0.02,3.3,3.49,1.007422453591342,5.214220938932297,0.00017602657062631977,0.28,0,1,3.0
5.069630159000553,201,4360.48,-91.4,1.2,-105.2,0.12,4.86,0.51,-0.14,-1.0,0.14,-185.9,-1.2,0.0,0.53,0.02,3.43,3.49,1.0194115949899727,4.88815916271146,0.011921864609871768,0.28,0,1,3.0
5.077781564000361,202,4360.49,-91.4,1.1,-104.7,0.49,4.39,0.21,-0.19,-0.98,0.17,-185.9,-0.8,-1.0,0.53,0.03,3.6,3.49,1.0126203632161461,4.422250558256509,0.005028020179324244,0.28,0,1,3.0
5.089527891000216,203,4360.5,-91.3,1.1,-104.3,0.63,3.86,-0.01,-0.23,-0.91,0.16,-185.9,-1.4,-5.0,0.53,0.05,3.45,3.49,0.9521554494934112,3.9110868054800316,0.054328155672542344,0.28,0,1,3.0
5.097869856000216,204,4360.51,-91.2,1.2,-104.0,0.4,3.32,-0.1,-0.23,-0.88,0.15,-185.9,-1.8,-2.0,0.53,0.04,3.58,3.49,0.921845974119321,3.345504446268156,0.08294487842569986,0.28,0,1,0.0
5.109621731000516,205,4360.52,-91.2,1.2,-103.7,0.05,2.84,-0.06,-0.2,-0.86,0.14,-185.9,-0.7,9.0,0.53,0.0,3.49,3.49,0.8939798655450804,2.841073740683265,0.10859476725994166,0.28,0,1,0.0
5.1177550160000465,206,4360.53,-91.2,1.2,-103.4,-0.38,2.59,0.11,-0.15,-0.9,0.12,-186.1,-32.7,-537.0,0.54,2.38,0.53,0.0,0.9202716990106781,2.6200381676609217,0.0806568751184571,0.28,0,1,0.0
5.129776806999871,207,4360.54,-91.3,1.2,-103.1,-0.75,2.53,0.19,-0.17,-0.99,0.14,-187.2,-149.4,-883.0,0.58,5.21,0.47,0.0,1.0141991914806479,2.6456568182589364,0.013005205004482434,0.28,0,1,0.0
5.137951028000316,208,4360.55,-91.3,1.2,-102.9,-0.67,2.1,0.23,-0.18,-0.99,0.17,-189.3,-229.9,-745.0,0.65,6.99,0.23,0.0,1.0204900783447137,2.216258107712186,0.018910170031177342,0.28,0,1,0.0
5.149415722999947,209,4360.56,-91.4,1.1,-102.7,-0.4,1.78,0.33,-0.12,-0.95,0.15,-192.0,-280.0,-526.0,0.73,8.04,0.25,0.0,0.9692264957170743,1.8539956850003725,0.03170634434453279,0.28,0,1,0.0
5.157827299000019,210,4360.57,-91.4,1.1,-102.5,-0.56,1.4,0.39,-0.07,-0.92,0.12,-195.0,-309.7,-337.0,0.81,8.66,-0.05,0.0,0.9304300081145277,1.5574658904772198,0.06909277530813784,0.28,0,1,0.0
5.169766927000637,211,4360.58,-91.5,1.1,-102.4,-1.13,1.15,0.38,-0.03,-0.92,0.09,-198.2,-323.3,-159.0,0.9,8.8,0.02,0.0,0.9248783703817492,1.6564419700067972,0.07315152478009801,0.28,0,1,0.0
5.177686839000671,212,4360.59,-91.6,1.0,-102.3,-1.86,1.0,0.32,-0.01,-0.96,0.05,-201.4,-316.1,45.0,0.99,8.33,-0.28,0.0,0.9613532129243653,2.1358838919754044,0.0359431485927324,0.28,0,1,0.0
5.189596561000144,213,4360.6,-91.8,1.0,-102.2,-2.34,0.9,0.33,-0.01,-1.02,0.02,-204.4,-294.2,163.0,1.06,7.72,-0.1,0.0,1.0202450685987166,2.528734861546382,0.022489732939986462,0.28,0,1,0.0
5.197613150000507,214,4360.61,-92.0,0.9,-102.1,-2.36,0.8,0.39,-0.02,-1.09,0.0,-207.2,-269.7,233.0,1.14,6.97,-0.22,0.0,1.0901834707974618,2.5222410669878483,0.09057957243595705,0.28,0,1,0.0
5.209327801000654,215,4360.62,-92.2,0.8,-102.1,-1.9,0.78,0.49,-0.03,-1.12,-0.02,-209.7,-237.4,307.0,1.2,6.02,-0.2,0.0,1.1205802068571442,2.111516043036377,0.11855678232572675,0.28,0,1,0.0
5.217731227000513,216,4360.63,-92.4,0.8,-102.0,-1.29,0.77,0.54,-0.03,-1.11,-0.03,-211.8,-199.5,365.0,1.25,4.93,-0.03,0.0,1.1108105148944172,1.596433525080202,0.10661134855573962,0.28,0,1,0.0
5.229769104000297,217,4360.64,-92.5,0.7,-101.9,-0.89,0.73,0.6,-0.03,-1.09,-0.03,-213.5,-160.5,381.0,1.29,3.87,-0.39,0.0,1.0908253755757609,1.298075498574717,0.08489368505234163,0.28,0,1,0.0
5.237672668000414,218,4360.65,-92.6,0.6,-101.8,-0.75,0.73,0.66,-0.03,-1.08,-0.05,-214.8,-120.8,387.0,1.33,2.81,0.03,0.0,1.0815729286552986,1.2373358476985947,0.0741284133692417,0.28,0,1,0.0
5.249621322000166,219,4360.66,-92.6,0.5,-101.7,-0.72,0.85,0.73,-0.03,-1.08,-0.07,-215.8,-82.3,390.0,1.35,1.75,-0.16,0.0,1.0826818553942796,1.3318408313308312,0.07373259330605819,0.28,0,1,0.0
5.257815981000022,220,4360.67,-92.7,0.4,-101.6,-0.46,1.02,0.85,-0.03,-1.08,-0.08,-216.3,-43.3,394.0,1.36,0.68,-0.11,0.0,1.0833743581975714,1.4051690289783645,0.07293659418716292,0.28,0,1,0.0
5.269610104000094,221,4360.68,-92.7,0.3,-101.5,0.06,1.19,0.96,-0.03,-1.08,-0.07,-216.5,-8.1,331.0,1.36,-0.09,-0.08,0.0,1.0826818553942796,1.530130713370593,0.07079920955619379,0.28,0,1,0.0
5.277689594000549,222,4360.69,-92.7,0.2,-101.4,0.66,1.3,1.02,-0.02,-1.06,-0.06,-216.5,10.0,189.0,1.36,-0.36,0.05,0.0,1.061885116196663,1.7793257149830664,0.0490024209514055,0.28,0,1,0.0
5.289866017999884,223,4360.7,-92.6,0.1,-101.2,1.07,1.41,1.03,-0.03,-1.01,-0.05,-216.3,14.9,81.0,1.35,-0.41,-0.03,0.0,1.0116817681464858,2.0479013648122804,0.0011769085567960857,0.28,0,1,0.0
5.2978376139999455,224,4360.71,-92.5,0.0,-101.1,1.27,1.52,1.01,-0.05,-0.97,-0.05,-216.2,13.7,2.0,1.35,-0.29,0.1,0.0,0.9725739046468396,2.2233758116881637,0.03947907661531347,0.28,0,1,0.0
5.309690101000342,225,4360.72,-92.4,-0.1,-100.9,1.2,1.6,0.95,-0.06,-0.94,-0.05,-216.1,4.8,-69.0,1.35,0.0,-0.02,0.0,0.9432391001225511,2.2141589825484527,0.06743760351680983,0.28,0,1,0.0
5.317787181000313,226,4360.73,-92.3,-0.2,-100.8,1.03,1.63,0.89,-0.07,-0.92,-0.05,-216.1,-1.5,-42.0,1.35,0.02,0.08,0.0,0.9240129869217207,2.1236525139485507,0.0849304423832874,0.28,0,1,0.0
5.329709065000316,227,4360.74,-92.2,-0.3,-100.6,0.88,1.63,0.85,-0.06,-0.92,-0.06,-216.1,0.6,-5.0,1.35,0.0,0.0,0.0,0.9239047569960879,2.0380873386584786,0.08333789886274179,0.28,0,1,0.0
5.337809571999969,228,4360.75,-92.2,-0.4,-100.4,0.81,1.64,0.83,-0.06,-0.93,-0.07,-216.1,-0.5,-7.0,1.35,0.01,-0.02,0.0,0.9345587193964862,2.008631374842084,0.07123025773309655,0.28,0,1,0.0
5.349865614000009,229,4360.76,-92.1,-0.5,-100.3,0.89,1.63,0.83,-0.05,-0.94,-0.08,-216.1,-0.3,-2.0,1.35,0.01,-0.08,0.0,0.9447221813845591,2.0341828826337123,0.05984545983012313,0.28,0,1,0.0
5.357794739000383,230,4360.77,-92.0,-0.6,-100.1,1.07,1.63,0.81,-0.05,-0.95,-0.09,-216.1,-1.3,-8.0,1.35,0.04,0.26,0.0,0.9555626614722866,2.111373960244845,0.04802488014754769,0.28,0,1,0.0
5.369607556000119,231,4360.78,-92.0,-0.7,-99.9,1.26,1.63,0.75,-0.05,-0.95,-0.1,-216.1,-1.6,0.0,1.35,0.03,-0.02,0.0,0.9565563234854495,2.1924871721403525,0.04609059377169711,0.28,0,1,0.0
5.377807691000271,232,4360.79,-91.9,-0.8,-99.8,1.43,1.63,0.67,-0.07,-0.96,-0.09,-216.1,-0.5,5.0,1.35,0.0,0.12,0.0,0.9667471230885561,2.2695153667688612,0.03518179828521861,0.28,0,1,0.0
5.389663568000287,233,4360.8,-91.8,-0.9,-99.6,1.58,1.58,0.55,-0.09,-0.96,-0.08,-216.1,-0.7,0.0,1.35,0.01,0.12,0.0,0.9675226095549395,2.3011518854695363,0.03371818558245854,0.28,0,1,0.0
5.397598737000408,234,4360.81,-91.6,-1.0,-99.5,1.7,1.44,0.38,-0.11,-0.98,-0.08,-216.2,-0.4,2.0,1.35,0.0,0.02,0.0,0.9893937537704591,2.2600884938426637,0.011610100539600099,0.28,0,1,0.0
5.409869591000643,235,4360.82,-91.4,-1.0,-99.3,1.8,1.32,0.11,-0.13,-0.98,-0.09,-216.2,-0.3,0.0,1.35,0.01,-0.01,0.0,0.9926731586982696,2.2348378017207424,0.008164081699553849,0.28,0,1,0.0
5.417796043000635,236,4360.83,-91.3,-1.0,-99.2,1.9,1.16,-0.2,-0.16,-0.95,-0.07,-216.2,-0.6,-1.0,1.35,0.02,0.12,0.0,0.96591925128346,2.2350838910430184,0.03421962933207623,0.28,0,1,0.0
5.429520558000149,237,4360.84,-91.1,-1.0,-99.1,1.91,0.9,-0.48,-0.17,-0.9,-0.05,-216.2,-0.2,0.0,1.35,0.0,-0.01,0.0,0.9172785836374902,2.1652944372532805,0.08120309103848522,0.28,0,1,0.0
5.43783834199985,238,4360.85,-90.9,-0.9,-99.0,1.63,0.62,-0.66,-0.17,-0.84,-0.05,-216.2,-0.3,-2.0,1.35,0.02,0.03,0.0,0.85848704125339,1.864644738281263,0.13719474075413363,0.28,0,1,0.0
5.449648404000072,239,4360.86,-90.8,-0.9,-99.0,1.0,0.34,-0.76,-0.18,-0.79,-0.07,-216.2,-0.7,-4.0,1.35,0.03,0.07,0.0,0.8132650244538985,1.3012301871690497,0.17876842240255264,0.28,0,1,0.0
5.457669055000224,240,4360.87,-90.7,-0.8,-98.9,-0.04,0.07,-0.7,-0.17,-0.76,-0.08,-216.2,-1.3,-6.0,1.35,0.05,0.07,0.0,0.7828793010419933,0.7046275611981127,0.2049710628981687,0.28,0,1,0.0
5.46965234199979,241,4360.88,-90.8,-0.7,-99.0,-0.96,-0.23,-0.62,-0.11,-0.81,-0.08,-216.2,-3.1,-20.0,1.35,0.12,-0.01,0.0,0.8213403679352428,1.1657186624567697,0.1631797960848208,0.28,0,1,0.0
5.477781387000505,242,4360.89,-90.9,-0.7,-99.0,-1.13,-0.51,-0.69,-0.09,-0.84,-0.11,-216.3,-8.1,-55.0,1.35,0.33,0.18,0.0,0.8519389649499546,1.4188375523646108,0.12992957508870684,0.28,0,1,0.0
5.489501387000018,243,4360.9,-91.0,-0.6,-99.1,-1.33,-0.67,-0.81,-0.08,-0.87,-0.13,-216.4,-18.1,-90.0,1.36,0.64,-0.01,0.0,0.8832893070789434,1.6952580924449234,0.09660764830052371,0.28,0,1,0.0
5.497775542000454,244,4360.91,-91.1,-0.5,-99.1,-1.49,-0.85,-0.98,-0.1,-0.88,-0.1,-216.7,-31.7,-123.0,1.37,1.04,0.24,0.0,0.8912911982062877,1.9756011743264377,0.08683364202971589,0.28,0,1,0.0
5.509894546000396,245,4360.92,-91.3,-0.4,-99.2,-1.78,-1.13,-1.13,-0.12,-0.91,-0.1,-217.1,-45.7,-140.0,1.38,1.44,0.09,0.0,0.9233092656309694,2.392112037509949,0.05371926311293351,0.28,0,1,0.0
5.517706579999867,246,4360.93,-91.5,-0.3,-99.4,-2.07,-1.61,-1.29,-0.12,-0.96,-0.08,-217.7,-62.1,-155.0,1.4,1.88,0.18,0.0,0.9707728879609278,2.922516039305858,0.006130527967315613,0.28,0,1,0.0
5.5295243130003655,247,4360.94,-91.7,-0.1,-99.6,-2.1,-2.06,-1.47,-0.11,-1.02,-0.02,-218.4,-79.5,-171.0,1.42,2.38,0.17,0.0,1.0261091559868276,3.2885407097981925,0.04822162525741258,0.28,0,1,0.0
5.537867375000133,248,4360.95,-91.9,-0.1,-99.8,-1.96,-2.62,-1.62,-0.08,-1.05,0.0,-219.3,-94.8,-139.0,1.45,2.7,0.18,0.0,1.0530432089900206,3.6510820313983636,0.07365256469539339,0.28,0,1,0.0
5.549660585999845,249,4360.96,-92.1,0.0,-100.1,-2.51,-3.1,-1.41,-0.01,-1.09,0.02,-220.3,-104.8,-113.0,1.48,2.98,0.19,0.0,1.0902293336725077,4.230626431156502,0.10862191559032297,0.28,0,1,0.0
5.557638674999907,250,4360.97,-92.4,0.1,-100.4,-3.43,-3.39,-0.92,0.06,-1.16,0.0,-221.5,-116.4,-119.0,1.51,3.3,0.14,0.0,1.1615506876585282,4.909521361599316,0.17634440418481656,0.28,0,1,0.0
5.569671344000199,251,4360.98,-92.7,0.2,-100.8,-3.94,-3.17,-0.32,0.12,-1.29,0.0,-222.7,-126.4,-97.0,1.54,3.53,0.02,0.0,1.295569372901351,5.067040556380025,0.30415582763908666,0.28,1,2,3.0
5.577743212999849,252,4360.99,-93.1,0.2,-101.1,-3.18,-2.79,0.29,0.17,-1.44,0.05,-224.0,-136.0,-108.0,1.58,3.85,0.07,0.0,1.4508618128546908,4.2403537588272044,0.45025930224057786,0.28,0,2,3.0
5.589576004000264,253,4361.0,-93.1,0.2,-101.1,-3.18,-2.79,0.29,0.17,-1.44,0.05,-224.9,-137.1,128.0,1.61,2.41,2.74,3.49,1.4508618128546908,4.2403537588272044,0.4412541161957664,0.28,0,2,3.0
5.597826181000528,254,4361.01,-93.3,0.0,-101.6,1.52,-2.76,0.93,0.14,-1.36,0.12,-225.9,-1.9,1033.0,1.61,-1.48,3.29,3.49,1.372443077143821,3.2852549368351918,0.3555786728751986,0.28,0,2,3.0
5.609631299999819,255,4361.02,-93.0,0.0,-101.9,2.66,-2.87,0.84,0.06,-1.18,0.13,-225.2,84.2,669.0,1.58,-2.59,3.32,3.49,1.1886547017532045,4.002261860498386,0.16835449153489046,0.28,0,2,3.0
5.617808714000603,256,4361.03,-92.8,-0.1,-102.2,2.49,-3.03,0.7,-0.03,-0.99,0.13,-224.3,97.8,270.0,1.56,-2.7,3.53,3.49,0.9989494481704267,3.9838423663593923,0.020923746806929544,0.28,0,2,3.0
5.629636938000658,257,4361.04,-92.6,-0.2,-102.5,1.38,-3.11,0.69,-0.13,-0.96,0.12,-223.4,86.4,-41.0,1.53,-2.08,3.47,3.49,0.9761659694949419,3.4716854696242283,0.04283308097276606,0.28,0,2,3.0
5.637784687000021,258,4361.05,-92.5,-0.3,-102.8,0.46,-3.21,0.58,-0.2,-1.0,0.12,-222.6,63.0,-199.0,1.52,-1.27,3.74,3.49,1.0268398122394748,3.294252570766243,0.007683946536331421,0.28,0,2,3.0
5.649575092999839,259,4361.06,-92.5,-0.3,-103.1,0.22,-3.54,0.49,-0.23,-1.07,0.18,-222.3,22.6,-355.0,1.51,-0.07,3.7,3.49,1.1091438139393828,3.580516722485737,0.08818818927151462,0.28,0,2,3.0
5.65788121300011,260,4361.07,-92.4,-0.4,-103.5,0.63,-4.23,0.36,-0.22,-1.08,0.2,-222.3,-3.5,-168.0,1.52,0.03,3.59,3.49,1.1201785571952358,4.291782846323891,0.09723847387682039,0.28,0,2,3.0
5.669691850000163,261,4361.08,-92.3,-0.5,-104.0,1.1,-4.8,0.38,-0.15,-1.04,0.14,-222.3,-0.9,-60.0,1.52,0.05,3.41,3.49,1.0600471687618434,4.939068738132726,0.03636494373455923,0.28,0,2,3.0
5.677764975000173,262,4361.09,-92.2,-0.5,-104.5,1.32,-5.06,0.5,-0.06,-1.04,0.11,-222.3,-3.6,-40.0,1.52,0.12,3.62,3.49,1.0475208828467335,5.253189507337423,0.02336188466306033,0.28,0,2,3.0
5.689650160000383,263,4361.1,-92.0,-0.6,-105.0,1.26,-5.19,0.58,0.0,-1.06,0.12,-222.4,-5.3,-19.0,1.52,0.14,3.49,3.49,1.066770828247567,5.372159714677143,0.04175959346261582,0.28,0,2,3.0
5.697704205999798,264,4361.11,-91.9,-0.7,-105.5,1.32,-5.25,0.57,0.03,-1.08,0.11,-222.4,-4.8,6.0,1.52,0.09,3.47,3.49,1.0860018416190647,5.4433261890134785,0.059770794697431295,0.28,0,2,3.0
5.709565627000302,265,4361.12,-91.8,-0.7,-106.0,1.48,-5.26,0.52,0.01,-1.06,0.11,-222.4,-0.5,25.0,1.52,0.0,3.55,3.49,1.0657391800998968,5.488934322798916,0.03871797051469805,0.28,0,2,3.0
5.717866044000402,266,4361.13,-91.6,-0.8,-106.5,1.45,-5.19,0.38,0.0,-1.03,0.09,-222.4,0.3,12.0,1.52,-0.02,3.45,3.49,1.0339245620450266,5.402129209857906,0.006765285410631261,0.28,0,2,3.0
5.7296859710004355,267,4361.14,-91.4,-0.8,-107.1,1.12,-5.11,0.05,0.0,-1.01,0.08,-222.4,0.7,4.0,1.52,-0.02,3.39,3.49,1.01316336293808,5.231538970513362,0.013715995422388882,0.28,0,2,3.0
5.737813604000621,268,4361.15,-91.2,-0.8,-107.6,0.65,-4.98,-0.3,0.02,-0.99,0.07,-222.4,4.2,45.0,1.52,-0.22,3.36,3.49,0.9926731586982696,5.0311927015370825,0.033522075668955376,0.28,0,2,3.0
5.749626822000209,269,4361.16,-91.1,-0.7,-108.1,0.23,-4.78,-0.68,0.04,-1.0,0.05,-222.3,16.1,110.0,1.51,-0.63,3.56,3.49,1.0020479030465559,4.833601142005824,0.02366438469425569,0.28,0,2,3.0
5.757815863999895,270,4361.17,-91.1,-0.6,-108.5,0.02,-4.38,-1.01,0.05,-1.01,0.0,-222.0,41.8,278.0,1.5,-1.69,3.21,3.49,1.011236866416568,4.494986095640341,0.014185912897758612,0.28,0,2,0.0
5.769666062000397,271,4361.18,-91.1,-0.5,-108.9,0.06,-3.94,-1.25,0.09,-1.01,0.01,-221.2,90.8,407.0,1.47,-2.99,3.2,3.49,1.014051280754578,4.1339690371361035,0.011144068588553546,0.28,0,2,0.0
5.777703563000614,272,4361.19,-91.0,-0.3,-109.3,0.21,-3.64,-1.44,0.13,-1.01,0.04,-220.1,105.0,-112.0,1.45,-1.77,0.39,0.0,1.0191172650877818,3.920114794237536,0.005956522570242928,0.28,0,2,0.0
5.789709382000183,273,4361.2,-91.0,-0.2,-109.7,0.03,-3.42,-1.75,0.07,-1.04,0.05,-219.7,11.8,-602.0,1.45,0.5,0.21,0.0,1.0435516278555652,3.8418485134112195,0.01810828339358972,0.28,0,2,0.0
5.797632937000344,274,4361.21,-91.0,0.0,-110.0,-0.02,-3.44,-2.0,0.02,-0.97,0.05,-219.9,-25.3,-281.0,1.45,0.67,-0.09,0.0,0.9714936952960631,3.9791958986709863,0.05287065618259423,0.28,0,2,0.0
5.809513475000131,275,4361.22,-90.9,0.1,-110.4,0.01,-3.34,-1.97,0.06,-0.89,0.03,-220.1,-19.1,-19.0,1.46,0.32,-0.12,0.0,0.8925245094673872,3.877705507126605,0.12920304517104475,0.28,0,2,0.0
5.817835369000022,276,4361.23,-90.9,0.4,-110.7,0.2,-3.43,-1.81,0.07,-0.85,0.03,-220.2,0.2,118.0,1.46,-0.2,-0.1,0.0,0.8534049449118513,3.8834263222056884,0.16495615753204906,0.28,0,2,0.0
5.829536674999872,277,4361.24,-90.9,0.6,-111.0,0.16,-3.43,-1.57,0.09,-0.83,0.0,-220.1,10.9,81.0,1.45,-0.34,0.02,0.0,0.8348652585896721,3.775632397360739,0.1798259269771436,0.28,0,2,0.0
5.837923864000004,278,4361.25,-90.9,0.8,-111.4,0.03,-3.29,-1.34,0.11,-0.84,-0.04,-219.9,18.4,104.0,1.45,-0.68,-0.04,0.0,0.8481155581640982,3.5525483810920857,0.16324411485466306,0.28,0,2,0.0
5.84966172500026,279,4361.26,-90.9,0.9,-111.7,0.01,-3.04,-1.14,0.12,-0.85,-0.08,-219.6,34.9,146.0,1.44,-1.14,-0.14,0.0,0.8621484790916236,3.2467368233350853,0.14622697004859497,0.28,0,2,0.0
5.857782759000656,280,4361.27,-90.9,1.0,-112.0,0.0,-2.78,-0.93,0.13,-0.88,-0.08,-219.2,56.0,208.0,1.42,-1.83,-0.04,0.0,0.8931405264570632,2.9314330966269724,0.11293022422949217,0.28,0,2,0.0
5.869550250999964,281,4361.28,-90.9,1.0,-112.3,0.09,-2.56,-0.74,0.14,-0.91,-0.08,-218.4,80.8,233.0,1.4,-2.5,-0.18,0.0,0.9241753080449617,2.666327061708672,0.08025753378876188,0.28,0,2,0.0
5.877880198000639,282,4361.29,-90.9,1.1,-112.5,0.26,-2.3,-0.58,0.15,-0.93,-0.09,-217.4,105.3,238.0,1.37,-3.15,-0.07,0.0,0.9463086177352503,2.3862103846894973,0.05696173961650375,0.28,0,2,0.0
5.8896242939999865,283,4361.3,-90.8,1.2,-112.7,0.3,-2.09,-0.48,0.15,-0.93,-0.09,-216.2,129.2,241.0,1.33,-3.82,-0.21,0.0,0.9463086177352503,2.16529443725328,0.055822504824173724,0.28,0,2,0.0
5.89776692400028,284,4361.31,-90.8,1.2,-112.9,0.24,-1.81,-0.4,0.13,-0.94,-0.1,-214.8,153.4,232.0,1.29,-4.43,-0.05,0.0,0.95420123663722,1.8691441891946163,0.04697128820375995,0.28,0,2,0.0
5.909842228000343,285,4361.32,-90.8,1.2,-113.1,0.08,-1.62,-0.35,0.12,-0.95,-0.1,-213.1,176.1,228.0,1.24,-5.05,-0.08,0.0,0.9627564593395361,1.6593070842975393,0.03764774419141492,0.28,0,2,0.0
5.917997497000215,286,4361.33,-90.8,1.3,-113.2,-0.01,-1.46,-0.3,0.1,-0.95,-0.1,-211.1,200.4,244.0,1.19,-5.76,-0.15,0.0,0.9604686356149273,1.4905368160498418,0.03913685655770327,0.28,0,2,0.0
5.92977538300056,287,4361.34,-90.8,1.3,-113.4,-0.07,-1.34,-0.2,0.09,-0.95,-0.11,-209.0,226.1,251.0,1.12,-6.45,0.07,0.0,0.9605727458136629,1.3566502865514016,0.038252091431788315,0.28,0,2,0.0
5.937808481000502,288,4361.35,-90.8,1.3,-113.5,-0.02,-1.23,-0.1,0.08,-0.95,-0.11,-206.5,247.8,210.0,1.06,-6.95,-0.09,0.0,0.9596874491208062,1.234220401711137,0.03835464036215219,0.28,0,2,0.0
5.94994889300051,289,4361.36,-90.8,1.3,-113.6,0.06,-1.16,0.01,0.08,-0.94,-0.11,-203.9,266.0,197.0,0.98,-7.48,-0.03,0.0,0.949789450352024,1.1615937327654622,0.04728758634831565,0.28,0,2,0.0
5.95782015199984,290,4361.37,-90.8,1.3,-113.7,0.11,-1.1,0.16,0.07,-0.94,-0.11,-201.1,289.8,241.0,0.9,-8.2,-0.1,0.0,0.9489994731294639,1.11700492389246,0.047116012299458276,0.28,0,2,0.0
5.969782398000461,291,4361.38,-90.8,1.3,-113.9,0.16,-1.04,0.33,0.07,-0.93,-0.11,-198.0,317.3,255.0,0.82,-8.92,-0.03,0.0,0.939095309327014,1.102769241500687,0.05587977257986998,0.28,0,2,0.0
5.977890644000581,292,4361.39,-90.8,1.2,-114.0,0.24,-0.99,0.51,0.07,-0.93,-0.1,-194.7,339.9,228.0,0.72,-9.5,-0.07,0.0,0.9379765455489812,1.1392102527628516,0.05585856563074465,0.28,0,2,0.0
5.989577319000091,293,4361.4,-90.8,1.2,-114.1,0.35,-0.96,0.68,0.07,-0.93,-0.09,-191.1,362.5,232.0,0.62,-10.14,-0.18,0.0,0.9369631796394137,1.2273956167430289,0.05573449290950594,0.28,0,2,0.0
5.997871039000529,294,4361.41,-90.8,1.1,-114.1,0.4,-0.95,0.85,0.07,-0.93,-0.09,-187.4,385.0,208.0,0.52,-10.68,0.19,0.0,0.9369631796394137,1.3360389215887387,0.05461980305131586,0.28,0,2,0.0
6.009806070000195,295,4361.42,-90.7,1.0,-114.2,0.5,-0.94,0.95,0.09,-0.93,-0.09,-183.4,401.1,171.0,0.41,-11.08,-0.14,0.0,0.938669270829721,1.4269197594819407,0.051855437623788414,0.28,0,2,0.0
6.0177490650003165,296,4361.43,-90.7,0.9,-114.3,0.54,-0.94,0.94,0.1,-0.94,-0.09,-179.3,406.1,13.0,0.3,-10.83,-0.12,0.0,0.9495788540189803,1.4348519087348353,0.0401269373458385,0.28,0,2,0.0
6.029659978000382,297,4361.44,-90.6,0.8,-114.4,0.48,-1.04,0.92,0.12,-0.93,-0.1,-175.4,378.8,-234.0,0.2,-9.78,0.32,0.0,0.9430270409696638,1.4691494137765568,0.04574517538725187,0.28,0,2,0.0
6.037799198000357,298,4361.45,-90.6,0.7,-114.5,0.51,-1.01,0.99,0.14,-0.94,-0.14,-172.0,327.3,-482.0,0.11,-8.06,0.23,0.0,0.9606247966818262,1.5034294130420622,0.027584471281587697,0.28,0,2,0.0
6.049516930000209,299,4361.46,-90.5,0.6,-114.6,0.44,-0.84,1.07,0.1,-0.97,-0.15,-169.2,253.8,-674.0,0.04,-5.94,0.47,0.0,0.986610358753647,1.4297202523570824,0.001566931025571594,0.28,0,2,0.0
6.057200236000426,300,4361.47,-90.5,0.5,-114.7,0.18,-0.7,1.1,0.03,-1.01,-0.14,-167.2,179.5,-685.0,0.0,-4.08,0.32,0.0,1.0200980345045274,1.3162066707018318,0.03128232983080259,0.28,0,2,0.0
6.069459346000258,301,4361.48,-90.6,0.4,-114.8,0.09,-0.75,1.1,-0.01,-1.01,-0.12,-165.8,119.7,-593.0,-0.02,-2.63,0.13,0.0,1.017152889196113,1.3343912469736903,0.02777044083194047,0.28,0,2,0.0
6.077704229000119,302,4361.49,-90.6,0.3,-114.9,0.25,-0.98,1.16,-0.02,-0.97,-0.11,-165.0,71.3,-501.0,-0.04,-1.41,0.33,0.0,0.9764220398987314,1.5389931773727914,0.012701200296132309,0.28,0,2,0.0
6.089625034000164,303,4361.5,-90.6,0.1,-115.0,0.37,-1.21,1.31,0.0,-0.93,-0.11,-164.5,31.9,-404.0,-0.05,-0.47,-0.11,0.0,0.9364827814754525,1.8212907510883594,0.05158764954502304,0.28,0,2,0.0
6.097749301000476,304,4361.51,-90.7,0.0,-115.1,0.33,-1.33,1.4,0.0,-0.91,-0.13,-164.4,2.8,-294.0,-0.05,0.15,0.1,0.0,0.9192388155425119,1.9590303724036542,0.06745498316840437,0.28,0,2,0.0
6.109673379000014,305,4361.52,-90.7,-0.1,-115.2,0.11,-1.37,1.48,0.03,-0.9,-0.14,-164.5,-5.6,-105.0,-0.05,0.12,0.1,0.0,0.9113177272499422,2.019752460080195,0.07386855003175452,0.28,0,2,0.0
6.117815246000646,306,4361.53,-90.7,-0.2,-115.4,-0.03,-1.32,1.55,0.07,-0.91,-0.16,-164.5,0.0,5.0,-0.05,-0.06,-0.31,0.0,0.92660671268883,2.0361237683402256,0.05740797330100944,0.28,0,2,0.0
6.129641690999961,307,4361.54,-90.7,-0.4,-115.5,-0.02,-1.16,1.6,0.1,-0.93,-0.16,-164.5,1.9,-1.0,-0.05,-0.03,0.0,0.0,0.9489467845985886,1.9763602910400726,0.03436654336342582,0.28,0,2,0.0
6.137781088999873,308,4361.55,-90.7,-0.5,-115.6,0.07,-0.94,1.61,0.12,-0.95,-0.17,-164.5,-0.7,-18.0,-0.05,0.04,0.0,0.0,0.9725224933131367,1.8656366205668242,0.010575017955900212,0.28,0,2,0.0
6.149670687000253,309,4361.56,-90.6,-0.7,-115.7,0.1,-0.66,1.54,0.13,-0.98,-0.18,-164.5,-1.6,-4.0,-0.05,0.03,-0.04,0.0,1.0048382954485762,1.6784516674602221,0.021305968495948457,0.28,0,2,0.0
6.157816333000483,310,4361.57,-90.6,-0.8,-115.7,0.01,-0.32,1.39,0.13,-0.98,-0.19,-164.5,-0.8,4.0,-0.05,0.01,0.0,0.0,1.006677704133751,1.4263940549511553,0.022682469637500757,0.28,0,2,0.0
6.169542991000526,311,4361.58,-90.6,-1.0,-115.7,-0.07,0.0,1.28,0.12,-0.97,-0.2,-164.5,-0.9,0.0,-0.05,0.02,0.0,0.0,0.9976472322419383,1.28191263352851,0.01337895779077436,0.28,0,2,0.0
6.17727369900058,312,4361.59,-90.6,-1.1,-115.7,-0.11,0.31,1.2,0.11,-0.94,-0.21,-164.5,-1.0,-6.0,-0.05,0.06,0.01,0.0,0.969432823871773,1.244266852407473,0.014538741567803104,0.28,0,2,0.0
6.189639567000086,313,4361.6,-90.7,-1.2,-115.7,-0.16,0.58,1.21,0.11,-0.92,-0.22,-164.6,-5.1,-47.0,-0.04,0.25,0.15,0.0,0.9523129737644027,1.3513326755466248,0.031025419841669954,0.28,0,2,0.0
6.197778950000611,314,4361.61,-90.7,-1.3,-115.6,-0.27,0.86,1.22,0.1,-0.92,-0.23,-164.7,-14.6,-82.0,-0.04,0.51,0.15,0.0,0.9535722311393091,1.5168717810019408,0.029170839217428246,0.28,0,2,0.0
6.209674951000125,315,4361.62,-90.7,-1.5,-115.5,-0.44,1.1,1.26,0.1,-0.93,-0.23,-164.9,-26.6,-118.0,-0.03,0.9,-0.04,0.0,0.9632237538599223,1.729508600730277,0.019128930166878777,0.28,0,2,0.0
6.217880178000087,316,4361.63,-90.8,-1.6,-115.4,-0.43,1.3,1.25,0.09,-0.95,-0.23,-165.3,-41.5,-143.0,-0.02,1.34,0.0,0.0,0.981580358401695,1.8540226535832836,0.0007568791126040253,0.28,0,2,0.0
6.229662918000031,317,4361.64,-90.8,-1.7,-115.2,-0.4,1.46,1.26,0.1,-0.94,-0.24,-165.8,-60.0,-183.0,0.0,1.89,0.17,0.0,0.9752948272189287,1.9695684806576288,0.006901562089462909,0.28,0,2,0.0
6.237750490000508,318,4361.65,-90.9,-1.8,-115.1,-0.42,1.65,1.31,0.1,-0.95,-0.24,-166.6,-80.8,-182.0,0.01,2.38,-0.08,0.0,0.9849365461794988,2.1482551058940835,0.0026853537336850586,0.28,0,2,0.0
6.249705344000176,319,4361.66,-90.9,-2.0,-114.9,-0.73,1.89,1.25,0.07,-1.03,-0.21,-167.4,-91.3,-105.0,0.04,2.54,0.0,0.0,1.0535179163165664,2.3806511714234824,0.06984138939333762,0.28,0,2,0.0
6.257865730000049,320,4361.67,-91.0,-2.1,-114.7,-1.3,2.06,0.85,0.04,-1.11,-0.15,-168.4,-96.5,-78.0,0.06,2.72,-0.05,0.0,1.120803283364213,2.579941859810023,0.13438422131216443,0.28,0,2,0.0
6.269523482000295,321,4361.68,-91.2,-2.1,-114.5,-1.7,2.01,0.38,0.04,-1.13,-0.09,-169.4,-109.7,-143.0,0.09,3.23,-0.15,0.0,1.134283915075939,2.6597932250458864,0.14490755596341265,0.28,0,2,0.0
6.277784316000179,322,4361.69,-91.4,-2.1,-114.3,-1.49,1.78,0.06,0.08,-1.13,-0.09,-170.7,-134.4,-228.0,0.13,3.99,0.16,0.0,1.136397817667739,2.3220895762222438,0.14408102938410838,0.28,0,2,0.0
6.289645429999837,323,4361.7,-91.5,-2.1,-114.1,-1.3,1.59,-0.19,0.06,-1.11,-0.11,-172.2,-161.4,-230.0,0.17,4.61,0.09,0.0,1.1170496855556606,2.062571210891881,0.1222382393265895,0.28,0,2,0.0
6.29774908499985,324,4361.71,-91.7,-2.0,-114.0,-1.63,1.56,-0.48,-0.02,-1.08,-0.09,-174.0,-175.1,-134.0,0.22,4.83,-0.15,0.0,1.0839280418920807,2.306707610426601,0.0873342637497494,0.28,0,2,0.0
6.309858473000531,325,4361.72,-91.9,-2.0,-113.8,-2.27,1.42,-0.83,-0.08,-1.09,0.01,-175.7,-178.8,-64.0,0.27,4.89,0.0,0.0,1.092977584399607,2.8032481160254084,0.09445613013213017,0.28,0,2,0.0
6.317822551000063,326,4361.73,-92.2,-1.9,-113.7,-2.74,0.94,-1.38,-0.13,-1.16,0.08,-177.5,-180.6,-30.0,0.32,4.92,0.0,0.0,1.17,3.208675739304301,0.16804897481787262,0.28,0,2,0.0
6.3296063930001765,327,4361.74,-92.5,-1.7,-113.6,-2.96,0.41,-1.91,-0.17,-1.22,0.11,-179.4,-180.7,-4.0,0.37,4.89,-0.08,0.0,1.2366891282775958,3.546519420502304,0.23004334103355917,0.28,0,2,0.0
6.33783290700012,328,4361.75,-92.8,-1.5,-113.6,-3.17,0.0,-2.62,-0.19,-1.34,0.16,-181.1,-176.8,33.0,0.42,4.73,-0.09,0.0,1.362827942184926,4.11257826673244,0.3490585118420717,0.28,1,3,3.0
6.349616684000466,329,4361.76,-93.1,-1.2,-113.7,-3.28,-0.57,-3.38,-0.23,-1.4,0.2,-182.9,-169.4,72.0,0.46,4.47,-0.07,0.0,1.4327944723511463,4.7442280720892835,0.4106445411681261,0.28,0,3,3.0
6.357875003000117,330,4361.77,-93.4,-0.8,-113.8,-3.09,-1.21,-3.82,-0.27,-1.38,0.17,-184.4,-135.2,586.0,0.5,1.97,2.84,3.49,1.416403897198818,5.06009881326442,0.38636888669548175,0.28,0,3,3.0
6.36966012799985,331,4361.78,-93.7,-0.4,-114.0,-1.64,-2.09,-3.66,-0.17,-1.21,0.08,-184.7,20.6,1220.0,0.48,-2.24,3.05,3.49,1.224499897917513,4.522532476389749,0.19057558966589316,0.28,0,3,3.0
6.377910735000114,332,4361.79,-93.7,-0.1,-114.2,0.24,-1.89,-2.83,0.07,-1.05,-0.1,-183.9,112.6,870.0,0.45,-3.7,3.33,3.49,1.057071426158138,3.4115392420430988,0.022684175548387753,0.28,0,3,3.0
6.389542947999871,333,4361.8,-93.6,0.0,-114.4,1.08,-1.08,-1.84,0.32,-0.9,-0.17,-182.4,133.9,261.0,0.41,-3.49,3.63,3.49,0.9702061636580135,2.39131762842162,0.06289746521270212,0.28,0,3,3.0
6.397865038999953,334,4361.81,-93.5,0.1,-114.4,0.58,0.14,-0.89,0.52,-0.87,-0.26,-181.2,102.0,-221.0,0.39,-2.11,3.59,3.49,1.0463746938836012,1.0714942836991712,0.013005643712627801,0.28,0,3,3.0
6.4098149770006785,335,4361.82,-93.5,0.2,-114.3,-0.71,1.63,-0.4,0.57,-0.96,-0.26,-180.6,45.8,-470.0,0.38,-0.45,3.54,3.49,1.1463420083029323,1.8223611058184928,0.1107134989693197,0.28,0,3,3.0
6.4177462880006715,336,4361.83,-93.7,0.2,-114.1,-1.61,2.95,-0.17,0.49,-1.04,-0.16,-180.5,-3.4,-332.0,0.38,0.15,3.45,3.49,1.1607325273291862,3.3650408615646854,0.12260193763566218,0.28,0,3,3.0
6.4297520019999865,337,4361.84,-93.8,0.3,-113.7,-1.16,3.94,0.21,0.4,-1.09,-0.07,-180.6,0.0,-88.0,0.38,0.02,3.45,3.49,1.1631852818876278,4.11257826673244,0.12255359835022173,0.28,0,3,3.0
6.437896966000153,338,4361.85,-93.9,0.2,-113.3,-0.05,4.59,0.58,0.29,-1.14,-0.02,-180.6,-0.5,-36.0,0.38,0.01,3.53,3.49,1.176477794095579,4.626769931604553,0.1331291883470096,0.28,0,3,3.0
6.4496883880001405,339,4361.86,-93.8,0.2,-112.8,0.92,5.12,0.78,0.12,-1.1,0.0,-180.6,-0.7,-13.0,0.38,0.02,3.64,3.49,1.1065260954898444,5.260152089055981,0.06191393994644945,0.28,0,3,3.0
6.457825509000031,340,4361.87,-93.7,0.2,-112.3,1.32,5.54,0.77,-0.03,-1.07,0.06,-180.6,-1.8,-14.0,0.38,0.07,3.53,3.49,1.072100741535048,5.74690351406738,0.0269388142718201,0.28,0,3,3.0
6.469919130000562,341,4361.88,-93.5,0.1,-111.7,1.52,5.78,0.61,-0.17,-1.03,0.1,-180.6,-1.9,0.0,0.38,0.03,3.44,3.49,1.0487134975769121,6.00757022430866,0.003480538907410402,0.28,0,3,3.0
6.477819313000509,342,4361.89,-93.3,0.1,-111.1,1.81,5.84,0.41,-0.28,-0.96,0.14,-180.6,-0.3,2.0,0.38,0.02,3.28,3.49,1.009752444909147,6.12778916086381,0.03477090348514755,0.28,0,3,3.0
6.489554952000617,343,4361.9,-93.1,0.1,-110.5,1.97,5.71,0.35,-0.3,-0.92,0.17,-180.6,0.0,5.0,0.38,0.0,3.35,3.49,0.982496819333274,6.050413209029611,0.06078599847980015,0.28,0,3,3.0
6.497664305000399,344,4361.91,-93.0,0.1,-110.0,1.95,5.39,0.26,-0.27,-0.91,0.18,-180.6,-0.2,-1.0,0.38,0.0,3.48,3.49,0.9661262857411551,5.737787029857417,0.07561340143048068,0.28,0,3,3.0
6.50980809200064,345,4361.92,-92.8,0.1,-109.5,1.82,4.98,0.16,-0.2,-0.88,0.16,-180.6,0.0,0.0,0.38,0.0,3.48,3.49,0.916515138991168,5.304564072569961,0.12272005721685841,0.28,0,3,3.0
6.5176783209999485,346,4361.93,-92.6,0.1,-109.0,1.54,4.63,0.1,-0.13,-0.86,0.13,-180.6,-0.3,-4.0,0.38,0.03,3.3,3.49,0.879431634636826,4.880420063887944,0.15660749033977628,0.28,0,3,3.0
6.529658762000508,347,4361.94,-92.5,0.1,-108.5,1.13,4.36,0.04,-0.07,-0.87,0.08,-180.6,-1.4,-9.0,0.38,0.05,3.61,3.49,0.8764701934464172,4.504231343969802,0.15637755289958144,0.28,0,3,0.0
6.537812737000422,348,4361.95,-92.4,0.2,-108.1,0.87,4.19,0.03,-0.01,-0.88,0.05,-180.6,-2.8,-17.0,0.38,0.11,3.49,3.49,0.8814760348415605,4.279474266776236,0.1483442772743495,0.28,0,3,0.0
6.5496034590005365,349,4361.96,-92.2,0.2,-107.7,0.32,3.91,0.05,-0.03,-0.93,0.27,-180.7,-21.2,-387.0,0.39,1.83,-0.13,0.0,0.9688653157173086,3.9233913901113664,0.05973589647062938,0.28,0,3,0.0
6.557806219000668,350,4361.97,-92.3,0.2,-107.3,-0.17,4.08,0.13,-0.02,-1.01,-0.05,-181.7,-140.8,-946.0,0.43,5.21,0.44,0.0,1.0114346246792225,4.085608889749483,0.016823255758541267,0.28,0,3,0.0
6.569956191000529,351,4361.98,-92.3,0.2,-107.0,-0.46,3.43,0.28,-0.13,-1.0,0.11,-183.9,-239.1,-871.0,0.5,7.41,0.39,0.0,1.0143963722332607,3.472016705028938,0.013584278040412956,0.28,0,3,0.0
6.577767941999809,352,4361.99,-92.3,0.1,-106.6,-0.3,3.05,0.7,-0.12,-0.94,0.1,-186.7,-303.7,-674.0,0.59,8.91,0.27,0.0,0.9528903399657276,3.1436443819236297,0.07358850410178719,0.28,0,3,0.0
6.589867747000426,353,4362.0,-92.3,0.1,-106.6,-0.3,3.05,0.7,-0.12,-0.94,0.1,-188.9,-334.3,-598.0,0.69,9.86,0.22,0.0,0.9528903399657276,3.1436443819236297,0.0721167340197515,0.28,0,3,0.0
6.597836855999958,354,4362.01,-92.4,0.0,-106.1,-0.64,2.27,1.28,-0.1,-0.93,0.05,-194.1,-370.5,-338.0,0.79,10.19,-0.11,0.0,0.9366963221877195,2.683449272857603,0.0865445367618044,0.28,0,3,0.0
6.609770441000364,355,4362.02,-92.5,-0.1,-105.9,-1.33,2.04,1.36,-0.09,-0.97,0.02,-197.9,-375.2,-111.0,0.9,10.13,-0.23,0.0,0.9743715923609432,2.7892830620071534,0.0478918812568091,0.28,0,3,0.0
6.617938215999857,356,4362.03,-92.6,-0.2,-105.7,-1.79,1.97,1.36,-0.08,-1.04,0.0,-201.5,-360.2,118.0,0.99,9.44,-0.16,0.0,1.043072384832424,2.9890801260588513,0.020392732990378137,0.28,0,3,0.0
6.6298919649998425,357,4362.04,-92.8,-0.4,-105.5,-1.66,1.87,1.21,-0.08,-1.09,0.0,-204.9,-331.8,217.0,1.08,8.71,0.02,0.0,1.092931836849856,2.7778768871208097,0.0688471413076539,0.28,0,3,0.0
6.637637756000004,358,4362.05,-92.9,-0.5,-105.3,-1.19,1.88,1.07,-0.06,-1.1,-0.02,-208.1,-303.5,284.0,1.16,7.82,-0.12,0.0,1.1018166816671457,2.468886388637598,0.07617734640244489,0.28,0,3,0.0
6.649895610000385,359,4362.06,-93.0,-0.7,-105.1,-0.78,1.9,0.92,-0.05,-1.08,-0.04,-210.8,-266.2,357.0,1.23,6.73,-0.19,0.0,1.0818964830333815,2.2505110530721684,0.055132004813307045,0.28,0,3,0.0
6.657899249000366,360,4362.07,-93.1,-0.8,-104.9,-0.44,2.02,0.75,-0.04,-1.06,-0.07,-213.2,-225.5,388.0,1.29,5.63,-0.08,0.0,1.0630616162763098,2.199204401596177,0.03557119529511055,0.28,0,3,0.0
6.669755057000657,361,4362.08,-93.1,-0.8,-104.7,-0.11,2.16,0.54,-0.05,-1.03,-0.07,-215.2,-184.5,400.0,1.34,4.53,-0.2,0.0,1.0335859906171327,2.229192678975956,0.00597365824321483,0.28,0,3,0.0
6.677881393000462,362,4362.09,-93.1,-0.9,-104.5,0.17,2.27,0.38,-0.06,-0.99,-0.07,-216.7,-143.2,415.0,1.38,3.37,-0.29,0.0,0.9942836617384397,2.3078561480300284,0.03266209722276858,0.28,0,3,0.0
6.689875682000093,363,4362.1,-93.1,-0.9,-104.2,0.39,2.34,0.28,-0.07,-0.96,-0.06,-217.9,-100.7,420.0,1.41,2.22,-0.1,0.0,0.9644169222903547,2.388744440077255,0.06127825993743663,0.28,0,3,0.0
6.697818403000383,364,4362.11,-93.0,-1.0,-104.0,0.64,2.36,0.28,-0.08,-0.94,-0.06,-218.6,-58.0,431.0,1.42,1.03,-0.17,0.0,0.9453041838477179,2.4612192100664254,0.07878317841247195,0.28,0,3,0.0
6.710332168000605,365,4362.12,-93.0,-1.0,-103.7,0.89,2.34,0.37,-0.08,-0.92,-0.06,-218.9,-15.0,421.0,1.42,-0.08,-0.03,0.0,0.9254188241007419,2.5307311196569264,0.09669516739625883,0.28,0,3,0.0
6.717909222000344,366,4362.13,-92.9,-1.1,-103.5,1.11,2.34,0.51,-0.08,-0.9,-0.07,-218.8,17.2,296.0,1.42,-0.67,-0.03,0.0,0.9062560344626678,2.639659068895072,0.11354079789364624,0.28,0,3,0.0
6.730082929000673,367,4362.14,-92.8,-1.2,-103.3,1.17,2.35,0.65,-0.08,-0.89,-0.07,-218.5,31.2,170.0,1.41,-0.94,-0.01,0.0,0.8963258336118624,2.704422304300865,0.12100157876956252,0.28,0,3,0.0
6.73782359300003,368,4362.15,-92.7,-1.3,-103.0,1.2,2.42,0.75,-0.07,-0.89,-0.09,-218.2,36.3,72.0,1.4,-0.98,-0.01,0.0,0.8972736483370054,2.8033729684078783,0.11765268876353119,0.28,0,3,0.0
6.749859597000068,369,4362.16,-92.6,-1.4,-102.8,1.2,2.5,0.75,-0.06,-0.91,-0.09,-217.8,32.9,-3.0,1.39,-0.86,-0.04,0.0,0.9164060235506967,2.872716484444645,0.09654990727884305,0.28,0,3,0.0
6.757953961000567,370,4362.17,-92.6,-1.5,-102.5,1.21,2.58,0.67,-0.06,-0.91,-0.09,-217.5,26.3,-59.0,1.38,-0.58,-0.05,0.0,0.9164060235506967,2.927353753819309,0.0946189091332662,0.28,0,3,0.0
6.769742039000448,371,4362.18,-92.5,-1.6,-102.3,1.27,2.64,0.54,-0.07,-0.92,-0.07,-217.3,15.0,-83.0,1.38,-0.32,-1.27,0.0,0.9253107586103169,2.9789427654790552,0.08399989059217305,0.28,0,3,0.0
6.777848476000145,372,4362.19,-92.4,-1.6,-102.0,1.29,2.62,0.38,-0.08,-0.92,-0.07,-217.2,8.6,-77.0,1.38,-0.12,-0.14,0.0,0.9261209424259879,2.9449787775126666,0.08152591264097209,0.28,0,3,0.0
6.7898618230001375,373,4362.2,-92.3,-1.7,-101.7,1.2,2.55,0.14,-0.09,-0.93,-0.08,-217.2,-0.7,-80.0,1.38,0.09,0.11,0.0,0.9377632963600143,2.821719334023141,0.06848588753280682,0.28,0,3,0.0
6.797778756000298,374,4362.21,-92.2,-1.7,-101.5,1.04,2.4,-0.09,-0.11,-0.94,-0.08,-217.3,-4.0,-21.0,1.38,0.05,-0.05,0.0,0.949789450352024,2.6171931529789694,0.055330538869981294,0.28,0,3,0.0
6.810109447999821,375,4362.22,-92.1,-1.7,-101.3,0.97,2.19,-0.35,-0.12,-0.95,-0.09,-217.3,1.5,32.0,1.38,-0.11,0.1,0.0,0.9617692030835672,2.4206404111309054,0.04248377041566931,0.28,0,3,0.0
6.817881515999943,376,4362.23,-92.0,-1.7,-101.0,0.92,1.99,-0.57,-0.13,-0.96,-0.1,-217.2,1.9,-14.0,1.38,0.01,0.18,0.0,0.973909646733207,2.2652593670482855,0.029736460230708972,0.28,0,3,0.0
6.8297366599999805,377,4362.24,-91.9,-1.6,-100.9,0.87,1.76,-0.75,-0.13,-0.97,-0.1,-217.3,-4.5,-38.0,1.38,0.16,0.02,0.0,0.9837682653958706,2.101666005815386,0.019480284736684395,0.28,0,3,0.0
6.837936560999879,378,4362.25,-91.9,-1.5,-100.7,0.86,1.58,-0.86,-0.13,-0.97,-0.1,-217.3,-5.8,-17.0,1.38,0.17,0.0,0.0,0.9837682653958706,1.9938906690187403,0.01909067904195072,0.28,0,3,0.0
6.849859310999818,379,4362.26,-91.8,-1.4,-100.6,0.91,1.36,-0.91,-0.12,-0.98,-0.08,-217.4,-10.0,-55.0,1.38,0.38,0.07,0.0,0.9905553997631833,1.872378166931029,0.01205747378114519,0.28,0,3,0.0
6.857857979000073,380,4362.27,-91.7,-1.3,-100.4,1.01,1.14,-0.94,-0.12,-0.98,-0.08,-217.6,-18.9,-72.0,1.39,0.61,0.03,0.0,0.9905553997631833,1.7897765223624988,0.011816324305522263,0.28,0,3,0.0
6.869867830000658,381,4362.28,-91.6,-1.2,-100.3,1.19,0.89,-1.01,-0.12,-0.97,-0.08,-217.8,-24.3,-49.0,1.4,0.7,0.01,0.0,0.9806630410084801,1.7967470606626854,0.02127450939902087,0.28,0,3,0.0
6.8778707689998555,382,4362.29,-91.5,-1.1,-100.3,1.24,0.61,-1.09,-0.12,-0.94,-0.08,-218.1,-30.7,-73.0,1.4,0.94,0.28,0.0,0.9509994742374992,1.7600568172647155,0.04991931464660171,0.28,0,3,0.0
6.889816964000602,383,4362.3,-91.3,-1.0,-100.2,1.12,0.35,-1.11,-0.12,-0.91,-0.1,-218.4,-38.9,-80.0,1.42,1.16,0.2,0.0,0.9233092656309694,1.6152399202595262,0.07605733278806892,0.28,0,3,0.0
6.897808179000094,384,4362.31,-91.2,-0.9,-100.2,0.82,0.14,-1.13,-0.12,-0.9,-0.11,-218.9,-47.3,-79.0,1.43,1.38,0.0,0.0,0.9146037393319579,1.403174971270511,0.0830676019053388,0.28,0,3,0.0
6.910106035999888,385,4362.32,-91.2,-0.8,-100.2,0.5,-0.04,-1.14,-0.1,-0.9,-0.12,-219.4,-54.1,-72.0,1.44,1.57,0.19,0.0,0.913454979733539,1.2454717981552212,0.08253203427368261,0.28,0,3,0.0
6.91783249800028,386,4362.33,-91.1,-0.7,-100.2,0.25,-0.17,-1.14,-0.08,-0.91,-0.14,-220.0,-64.0,-98.0,1.46,1.88,0.02,0.0,0.9241753080449617,1.1794066304714417,0.07037547184301463,0.28,0,3,0.0
6.929821663999974,387,4362.34,-91.1,-0.5,-100.2,0.06,-0.25,-1.13,-0.06,-0.93,-0.14,-220.7,-75.9,-111.0,1.48,2.2,-0.16,0.0,0.9423905772024677,1.1588787684654507,0.05111699863179853,0.28,0,3,0.0
6.93787858900032,388,4362.35,-91.1,-0.4,-100.3,-0.02,-0.27,-1.12,-0.05,-0.95,-0.14,-221.6,-88.1,-115.0,1.51,2.52,0.2,0.0,0.9615612304996494,1.1522586515188333,0.031307418427924505,0.28,0,3,0.0
6.94969207000031,389,4362.36,-91.1,-0.3,-100.3,0.0,-0.3,-1.08,-0.05,-0.95,-0.14,-222.5,-98.8,-119.0,1.53,2.86,-0.07,0.0,0.9615612304996494,1.1208925015361644,0.03068127005936605,0.28,0,3,0.0
6.957994651000263,390,4362.37,-91.1,-0.2,-100.3,0.0,-0.32,-1.0,-0.04,-0.93,-0.15,-223.6,-110.8,-113.0,1.57,3.14,0.03,0.0,0.9428679653058535,1.049952379872535,0.04838704454809872,0.28,0,3,0.0
6.969783356999869,391,4362.38,-91.1,-0.1,-100.4,-0.08,-0.33,-0.88,-0.04,-0.94,-0.15,-224.8,-121.2,-101.0,1.6,3.4,0.16,0.0,0.952732911156112,0.9432391001225511,0.037751656723883364,0.28,0,3,0.0
6.9778753020000295,392,4362.39,-91.1,0.0,-100.4,-0.17,-0.35,-0.79,-0.04,-0.94,-0.15,-226.1,-131.2,-101.0,1.63,3.68,0.02,0.0,0.952732911156112,0.8806247782114697,0.0369966235894057,0.28,0,3,0.0
6.989856922000399,393,4362.4,-91.2,0.0,-100.4,-0.41,-0.38,-0.7,-0.06,-0.95,-0.17,-227.5,-140.2,-81.0,1.67,3.87,0.02,0.0,0.9669539802906858,0.8958236433584459,0.02232004336573523,0.28,0,3,0.0
6.997826030999931,394,4362.41,-91.2,0.0,-100.5,-0.61,-0.51,-0.69,-0.07,-1.0,-0.17,-228.9,-147.5,-85.0,1.71,4.12,-0.09,0.0,1.0167595585978033,1.0527582818482122,0.026935824242554585,0.28,0,3,0.0
7.009960192000108,395,4362.42,-91.3,0.1,-100.6,-0.38,-0.75,-0.72,-0.09,-0.98,-0.15,-230.4,-154.9,-74.0,1.76,4.3,-0.08,0.0,0.9954898291795853,1.1069326989478627,0.005552772927849836,0.28,0,3,0.0
7.017661726999904,396,4362.43,-91.3,0.1,-100.6,-0.74,-1.07,-0.58,-0.09,-0.96,-0.17,-232.0,-162.3,-79.0,1.8,4.52,-0.08,0.0,0.979081201943945,1.4243946082459031,0.010638737221634664,0.28,0,3,0.0
7.029820374000337,397,4362.44,-91.4,0.2,-100.8,-1.28,-1.36,-0.39,-0.06,-1.0,-0.17,-233.7,-169.5,-68.0,1.85,4.68,-0.02,0.0,1.0161200716450787,1.907904609774818,0.025872129829909052,0.28,0,3,0.0
7.037913363000371,398,4362.45,-91.6,0.2,-100.9,-1.33,-1.55,-0.16,-0.04,-1.04,-0.16,-235.4,-175.4,-60.0,1.89,4.83,0.03,0.0,1.0529957264870549,2.048658097389606,0.061492828978447545,0.28,0,3,0.0
7.050040211000123,399,4362.46,-91.7,0.2,-101.1,-1.23,-1.77,0.16,-0.03,-1.07,-0.15,-237.2,-180.0,-46.0,1.94,4.93,0.1,0.0,1.0808792717042917,2.161342175593675,0.0875888467117707,0.28,0,3,0.0
7.057928326000365,400,4362.47,-91.9,0.1,-101.3,-0.95,-1.97,0.36,-0.03,-1.12,-0.12,-239.0,-181.8,-17.0,1.99,4.94,-0.05,0.0,1.1268096556206821,2.2165288177689004,0.13084884601559799,0.28,0,3,0.0
7.069903132000036,401,4362.48,-92.0,0.1,-101.5,-0.52,-2.29,0.33,-0.02,-1.13,-0.09,-240.9,-183.2,-22.0,2.04,5.01,0.0,0.0,1.1337548235840056,2.3713709115193264,0.13503813369934303,0.28,0,3,0.0
7.0776648560004105,402,4362.49,-92.0,0.0,-101.7,-0.38,-2.65,0.23,-0.01,-1.1,-0.07,-242.7,-187.9,-43.0,2.09,5.17,-0.2,0.0,1.1022703842524302,2.6869685521047693,0.10148262048041223,0.28,0,3,0.0
7.089850308000678,403,4362.5,-92.1,0.0,-102.0,-0.47,-2.9,0.25,0.01,-1.12,-0.03,-244.6,-191.9,-36.0,2.15,5.26,-0.06,0.0,1.120446339634344,2.948457223701914,0.1172654043450796,0.28,0,3,0.0
7.0978628240000035,404,4362.51,-92.1,0.0,-102.3,-0.6,-3.1,0.37,0.02,-1.17,0.0,-246.6,-194.0,-24.0,2.2,5.3,0.06,0.0,1.1701709276853531,3.179135102508228,0.16365019254816682,0.28,0,3,0.0
7.10996832300043,405,4362.52,-92.2,0.0,-102.6,-0.65,-3.14,0.78,0.02,-1.24,0.08,-248.5,-196.0,-22.0,2.25,5.36,0.19,0.0,1.2427389106324787,3.3000757567062,0.23149381198538643,0.28,0,3,0.0
7.117913980000594,406,4362.53,-92.2,-0.1,-102.9,-0.32,-3.11,1.5,0.04,-1.27,0.13,-250.5,-198.7,-31.0,2.31,5.46,-0.13,0.0,1.277262698116562,3.4676360824054187,0.2606972474800804,0.28,0,3,0.0
7.12977680899985,407,4362.54,-92.2,-0.3,-103.2,0.4,-3.0,2.33,0.1,-1.31,0.15,-252.5,-204.2,-49.0,2.36,5.62,-0.09,0.0,1.3223463993976767,3.8195418573436264,0.29966532978597127,0.28,1,4,3.0
7.1378731419999895,408,4362.55,-92.1,-0.6,-103.5,1.66,-2.96,2.85,0.06,-1.3,0.17,-254.6,-209.7,-48.0,2.42,5.75,0.16,0.0,1.3124404748406688,4.431670114076633,0.28396421712438413,0.28,0,4,3.0
7.14985743699981,409,4362.56,-91.8,-0.9,-103.8,2.44,-3.24,2.96,-0.05,-1.18,0.23,-256.7,-194.9,371.0,2.47,3.94,2.75,3.49,1.203245610837621,5.021234907868781,0.17127396605890954,0.28,0,4,3.0
7.157899947999795,410,4362.57,-91.6,-1.2,-104.2,2.67,-3.8,2.83,-0.16,-1.03,0.27,-257.7,-47.9,1194.0,2.48,-0.54,3.06,3.49,1.0767543823918249,5.438547600232988,0.04388708286085108,0.28,0,4,3.0
7.169866858000205,411,4362.58,-91.3,-1.5,-104.6,2.1,-4.42,2.48,-0.23,-1.0,0.28,-257.3,67.1,945.0,2.46,-2.6,3.23,3.49,1.0636258740741502,5.486055048939994,0.03014340305231289,0.28,0,4,3.0
7.177857125000628,412,4362.59,-91.1,-1.7,-105.0,1.76,-5.09,1.99,-0.26,-0.98,0.27,-256.3,105.9,435.0,2.43,-2.95,3.51,3.49,1.049237818609299,5.7415851469781405,0.015440240635712366,0.28,0,4,3.0
7.1898563989998365,413,4362.6,-91.0,-1.9,-105.6,1.59,-5.55,1.63,-0.28,-1.01,0.24,-255.2,106.4,83.0,2.4,-2.63,3.57,3.49,1.0752209075348191,5.998958242895178,0.04059486297000792,0.28,0,4,3.0
7.19770718700056,414,4362.61,-90.8,-2.1,-106.1,1.73,-5.75,1.43,-0.27,-1.04,0.21,-254.3,84.1,-129.0,2.38,-1.96,3.81,3.49,1.094805918873295,6.172544046015386,0.0589762768223141,0.28,0,4,3.0
7.210074264000468,415,4362.62,-90.6,-2.2,-106.7,2.13,-5.92,1.37,-0.21,-1.03,0.23,-253.7,51.2,-275.0,2.36,-0.98,3.59,3.49,1.076057619275102,6.438959543280265,0.03942341767963864,0.28,0,4,3.0
7.217677827000443,416,4362.63,-90.3,-2.3,-107.3,2.34,-6.26,1.36,-0.12,-0.99,0.25,-253.3,27.7,-191.0,2.36,-0.62,3.6,3.49,1.02810505299799,6.820029325450148,0.00835856562552384,0.28,0,4,3.0
7.229512091999823,417,4362.64,-90.0,-2.5,-108.0,2.3,-6.53,1.38,-0.03,-0.94,0.2,-253.1,18.8,-100.0,2.35,-0.49,3.52,3.49,0.9615092303249095,7.059412156830057,0.07345530053263216,0.28,0,4,3.0
7.2373167249998005,418,4362.65,-89.8,-2.6,-108.6,1.76,-6.4,1.31,-0.01,-0.94,0.14,-252.9,27.1,77.0,2.34,-0.99,3.61,3.49,0.9504209593648489,6.765626356812797,0.08285270006283896,0.28,0,4,3.0
7.249476648000382,419,4362.66,-89.6,-2.7,-109.3,0.8,-6.09,0.99,-0.01,-1.0,0.12,-252.5,48.3,167.0,2.33,-1.58,3.26,3.49,1.0072239075796403,6.221591436280592,0.025528756811086684,0.28,0,4,3.0
7.257879640999818,420,4362.67,-89.6,-2.8,-109.9,0.23,-5.79,0.55,0.02,-1.03,0.13,-251.8,78.6,298.0,2.31,-2.6,3.47,3.49,1.0383640979926068,5.820609933675336,0.0054992049298421275,0.28,0,4,3.0
7.26984570500008,421,4362.68,-89.5,-2.8,-110.4,0.17,-5.53,0.15,0.05,-1.05,0.14,-250.8,114.8,358.0,2.27,-3.69,3.54,3.49,1.0604715932074749,5.5346454267640315,0.027054566141816005,0.28,0,4,3.0
7.277898188000108,422,4362.69,-89.5,-2.8,-111.0,0.41,-5.15,-0.18,0.07,-1.02,0.08,-249.3,161.2,434.0,2.23,-4.96,3.31,3.49,1.0255242561733973,5.169429368895566,0.007734915474416404,0.28,0,4,3.0
7.289897849000226,423,4362.7,-89.4,-2.8,-111.4,0.46,-4.51,-0.41,0.1,-0.97,0.04,-247.4,204.2,416.0,2.17,-6.03,3.52,3.49,0.9759610647971567,4.551900701904645,0.056152144713643826,0.28,0,4,3.0
7.297810445000323,424,4362.71,-89.4,-2.7,-111.9,0.09,-4.04,-0.66,0.12,-0.96,0.09,-245.1,240.9,356.0,2.1,-6.91,3.46,3.49,0.9716480844420988,4.094545151784262,0.059255822567327754,0.28,0,4,3.0
7.310029665000002,425,4362.72,-89.3,-2.6,-112.2,-0.12,-3.83,-0.91,0.12,-0.94,0.1,-242.5,265.5,255.0,2.03,-7.43,3.47,3.49,0.9528903399657276,3.938451472342906,0.076453295702825,0.28,0,4,0.0
7.317676220000067,426,4362.73,-89.3,-2.5,-112.6,-0.13,-3.58,-1.08,0.11,-0.92,0.08,-239.7,284.9,218.0,1.95,-8.01,3.6,3.49,0.93,3.7416172973728887,0.09735676295518159,0.28,0,4,0.0
7.329896881999957,427,4362.74,-89.3,-2.4,-113.0,0.0,-3.23,-1.07,0.1,-0.9,0.04,-236.7,291.2,-168.0,1.88,-6.84,0.69,0.0,0.9064215354899728,3.402616640175616,0.11851652291590453,0.28,0,4,0.0
7.337886402000549,428,4362.75,-89.3,-2.3,-113.3,-0.19,-2.79,-1.15,0.05,-0.96,0.04,-234.5,180.3,-843.0,1.83,-3.55,0.39,0.0,0.9621330469326994,3.023689798904643,0.06154891124371442,0.28,0,4,0.0
7.3497974720003185,429,4362.76,-89.3,-2.1,-113.5,-0.41,-2.73,-1.37,-0.01,-0.96,0.07,-233.4,89.5,-757.0,1.81,-1.7,0.01,0.0,0.9626006440887104,3.0818663176718095,0.0598596878059493,0.28,0,4,0.0
7.3576849299997775,430,4362.77,-89.3,-2.0,-113.8,-0.61,-2.71,-1.46,0.01,-0.91,0.03,-232.9,42.8,-493.0,1.8,-0.8,-0.08,0.0,0.9105492847726586,3.138120456579065,0.10967282617956098,0.28,0,4,0.0
7.369924458000241,431,4362.78,-89.3,-1.8,-114.1,-0.66,-2.71,-1.47,0.04,-0.89,0.04,-232.6,20.6,-257.0,1.79,-0.48,0.07,0.0,0.8917959407846618,3.152871706872958,0.12585764676420652,0.28,0,4,0.0
7.377834507000443,432,4362.79,-89.4,-1.6,-114.3,-0.88,-2.66,-1.35,0.08,-0.87,0.0,-232.4,19.1,-63.0,1.79,-0.61,-0.12,0.0,0.8736704184073076,3.1100643080167973,0.14110350575872954,0.28,0,4,0.0
7.389876889000334,433,4362.8,-89.5,-1.4,-114.6,-1.26,-2.42,-1.17,0.1,-0.87,-0.02,-232.2,28.8,61.0,1.78,-0.96,-0.06,0.0,0.875956619930462,2.968652893148675,0.1360409581508637,0.28,0,4,0.0
7.397825093000392,434,4362.81,-89.6,-1.3,-114.8,-1.55,-2.08,-1.03,0.12,-0.88,-0.06,-231.8,45.3,127.0,1.77,-1.41,0.08,0.0,0.8901685233707155,2.7910213184424086,0.11939247361639804,0.28,0,4,0.0
7.410099202999845,435,4362.82,-89.8,-1.2,-115.0,-1.73,-1.66,-0.91,0.13,-0.9,-0.07,-231.3,62.9,189.0,1.75,-2.06,0.0,0.0,0.9120307012376283,2.56448825304387,0.09557968983449561,0.28,0,4,0.0
7.417866710000453,436,4362.83,-90.0,-1.1,-115.1,-1.73,-1.29,-0.83,0.14,-0.92,-0.09,-230.4,89.8,228.0,1.72,-2.74,0.0,0.0,0.9349331526906082,2.3121202390879243,0.07122369361388547,0.28,0,4,0.0
7.429850450000231,437,4362.84,-90.1,-1.1,-115.3,-1.6,-0.91,-0.78,0.14,-0.94,-0.13,-229.3,114.9,243.0,1.69,-3.42,-0.09,0.0,0.959218431849597,1.999124808509964,0.04599964616579866,0.28,0,4,0.0
7.437879756999791,438,4362.85,-90.3,-1.0,-115.3,-1.39,-0.56,-0.72,0.14,-0.95,-0.16,-228.0,138.5,236.0,1.65,-4.05,-0.24,0.0,0.973498844375277,1.662558269655533,0.031084848967316336,0.28,0,4,0.0
7.4497664079999595,439,4362.86,-90.4,-0.9,-115.4,-1.2,-0.23,-0.65,0.13,-0.97,-0.16,-226.4,162.9,249.0,1.61,-4.77,-0.1,0.0,0.9916652661054535,1.3839797686382558,0.012660058692397058,0.28,0,4,0.0
7.457897897999828,440,4362.87,-90.5,-0.9,-115.4,-1.05,0.03,-0.57,0.12,-1.0,-0.15,-224.6,188.7,253.0,1.55,-5.44,-0.17,0.0,1.0182828683622247,1.1951150572225253,0.013678392693086794,0.28,0,4,0.0
7.469890759000009,441,4362.88,-90.6,-0.8,-115.4,-0.86,0.2,-0.48,0.11,-1.02,-0.14,-222.6,214.5,259.0,1.5,-6.16,-0.08,0.0,1.0354226190305098,1.004987562112089,0.03020178049414457,0.28,0,4,0.0
7.477688071000557,442,4362.89,-90.7,-0.8,-115.3,-0.55,0.36,-0.35,0.1,-1.02,-0.14,-220.2,240.9,266.0,1.43,-6.9,-0.18,0.0,1.03440804327886,0.7447147104764347,0.02860346064764485,0.28,0,4,0.0
7.489926695000577,443,4362.9,-90.7,-0.7,-115.3,-0.19,0.52,-0.2,0.09,-1.01,-0.14,-217.6,268.8,260.0,1.35,-7.58,-0.08,0.0,1.0236210236215355,0.5886425061104575,0.017460112170513797,0.28,0,4,0.0
7.497867281999788,444,4362.91,-90.7,-0.7,-115.2,0.06,0.67,-0.07,0.08,-0.99,-0.14,-214.8,291.4,231.0,1.27,-8.18,0.02,0.0,1.0030453628824572,0.6763135367564367,0.0030532375971932257,0.28,0,4,0.0
7.50966505300039,445,4362.92,-90.7,-0.7,-115.2,0.21,0.79,0.0,0.07,-0.96,-0.14,-211.7,313.6,241.0,1.19,-8.85,-0.15,0.0,0.9726767191621274,0.8174350127074324,0.03275344369117261,0.28,0,4,0.0
7.517910758000653,446,4362.93,-90.7,-0.7,-115.1,0.21,0.87,0.08,0.06,-0.93,-0.14,-208.4,340.0,250.0,1.09,-9.54,-0.22,0.0,0.9423905772024677,0.8985543945694106,0.0617787939378156,0.28,0,4,0.0
7.529860503000236,447,4362.94,-90.7,-0.7,-115.0,0.19,0.92,0.17,0.05,-0.91,-0.13,-204.8,359.9,197.0,1.0,-9.99,-0.11,0.0,0.9205976319760985,0.9546727187890099,0.08190030438090101,0.28,0,4,0.0
7.537857652000639,448,4362.95,-90.7,-0.8,-114.9,0.21,0.99,0.29,0.04,-0.9,-0.13,-201.1,382.2,252.0,0.89,-10.78,-0.08,0.0,0.9102197536858888,1.0527582818482124,0.0904326190176884,0.28,0,4,0.0
7.549875163999786,449,4362.96,-90.6,-0.8,-114.8,0.27,1.07,0.41,0.04,-0.89,-0.13,-197.1,409.6,236.0,0.78,-11.37,-0.06,0.0,0.9003332716277901,1.1772425408555367,0.09831271905427141,0.28,0,4,0.0
7.557890765000593,450,4362.97,-90.6,-0.8,-114.7,0.3,1.16,0.51,0.05,-0.89,-0.14,-192.9,428.5,212.0,0.66,-11.91,0.06,0.0,0.9023303164584463,1.3021904622596496,0.09438936073914295,0.28,0,4,0.0
7.569896281000183,451,4362.98,-90.6,-0.9,-114.5,0.32,1.27,0.58,0.06,-0.89,-0.14,-188.4,451.2,223.0,0.54,-12.54,-0.02,0.0,0.9029396436085858,1.4323756490529989,0.09190443291722339,0.28,0,4,0.0
7.577935207999872,452,4362.99,-90.5,-1.0,-114.4,0.4,1.4,0.69,0.08,-0.86,-0.16,-183.8,471.0,194.0,0.41,-13.01,-0.14,0.0,0.8784076502399099,1.6112417571550208,0.11410769776018137,0.28,0,4,0.0
7.5899042070004725,453,4363.0,-90.5,-1.0,-114.3,0.65,1.61,0.84,0.13,-0.83,-0.18,-180.5,476.1,58.0,0.28,-12.72,0.1,0.0,0.8591856609604236,1.92878199908647,0.13066309329887427,0.28,0,4,0.0
7.597664521999832,454,4363.01,-90.4,-1.1,-114.1,0.64,1.84,0.95,0.14,-0.82,-0.2,-174.4,449.2,-208.0,0.16,-11.74,0.27,0.0,0.8555699854482974,2.1674178185112347,0.13159319343478038,0.28,0,4,0.0
7.609834089999822,455,4363.02,-90.4,-1.2,-113.9,0.56,2.16,1.0,0.17,-0.82,-0.23,-170.2,397.1,-506.0,0.05,-9.86,0.42,0.0,0.8684468895678077,2.445240274492468,0.11634196352896475,0.28,0,4,0.0
7.617909262000467,456,4363.03,-90.3,-1.3,-113.6,0.3,2.51,0.96,0.13,-0.87,-0.25,-166.8,318.5,-669.0,-0.02,-7.81,0.42,0.0,0.9144943958275523,2.704015532499767,0.0688885681238357,0.28,0,4,0.0
7.629863883000326,457,4363.04,-90.3,-1.4,-113.4,-0.5,2.8,0.7,0.03,-0.94,-0.2,-164.1,252.4,-658.0,-0.09,-6.04,0.47,0.0,0.9615092303249095,2.929163703175362,0.02143625895394896,0.28,0,4,0.0
7.637830106000365,458,4363.05,-90.4,-1.5,-113.1,-0.85,2.84,0.46,0.0,-0.93,-0.19,-162.0,186.3,-651.0,-0.13,-4.28,0.22,0.0,0.9492101980067429,2.9999499995833263,0.03306058544667334,0.28,0,4,0.0
7.65011134300039,459,4363.06,-90.5,-1.5,-112.8,-1.04,2.75,0.36,-0.05,-0.96,-0.15,-160.6,127.0,-601.0,-0.17,-2.73,0.09,0.0,0.9729337079164232,2.9620432137293338,0.009150334026253204,0.28,0,4,0.0
7.657815950999975,460,4363.07,-90.6,-1.5,-112.5,-1.03,2.57,0.39,-0.06,-0.92,-0.15,-159.7,74.2,-538.0,-0.18,-1.39,0.0,0.0,0.9340770846134703,2.7960507863771,0.04704681818262202,0.28,0,4,0.0
7.67020133799997,461,4363.08,-90.7,-1.6,-112.3,-0.8,2.41,0.55,-0.06,-0.88,-0.15,-159.3,29.5,-459.0,-0.19,-0.31,0.14,0.0,0.8947066558375432,2.5981916788412667,0.08468890201937818,0.28,0,4,0.0
7.677836505000414,462,4363.09,-90.8,-1.6,-112.1,-0.65,2.26,0.83,-0.05,-0.83,-0.17,-159.2,-3.6,-310.0,-0.19,0.27,-0.09,0.0,0.8487048957087499,2.4937922928744487,0.1280768489052081,0.28,0,4,0.0
7.689906176000477,463,4363.1,-90.9,-1.7,-111.8,-0.54,2.21,1.16,-0.03,-0.81,-0.18,-159.3,-11.4,-124.0,-0.19,0.32,-0.16,0.0,0.8303011501858829,2.5536836139193126,0.14355098253951348,0.28,0,4,0.0
7.697737794000204,464,4363.11,-91.0,-1.9,-111.6,-0.55,2.22,1.46,0.0,-0.83,-0.2,-159.4,-10.1,-20.0,-0.18,0.21,-0.08,0.0,0.8537564055396598,2.7133927102430273,0.11769381264202183,0.28,0,4,0.0
7.709889468000256,465,4363.12,-91.0,-2.0,-111.4,-0.52,2.3,1.64,0.02,-0.85,-0.22,-159.5,-9.6,-36.0,-0.18,0.36,-0.4,0.0,0.8782368700982668,2.8722813232690143,0.09134908112174656,0.28,0,4,0.0
7.719844791000469,466,4363.13,-91.1,-2.2,-111.1,-0.54,2.45,1.71,0.05,-0.89,-0.26,-159.7,-21.3,-113.0,-0.17,0.8,-0.08,0.0,0.9285472524325297,3.036148876455172,0.04021792481173403,0.28,0,4,0.0
7.729987693000112,467,4363.14,-91.1,-2.3,-110.9,-0.67,2.74,1.62,0.05,-0.93,-0.32,-160.0,-37.2,-147.0,-0.16,1.25,-0.09,0.0,0.9847842403288144,3.25282953749501,0.015698681822859717,0.28,0,4,0.0
7.7378254659997765,468,4363.15,-91.2,-2.5,-110.6,-0.76,3.17,1.64,0.04,-0.94,-0.35,-160.5,-57.0,-185.0,-0.15,1.8,0.25,0.0,1.0038426171467318,3.649123182354906,0.03406191746796161,0.28,0,4,0.0
7.750092402000519,469,4363.16,-91.3,-2.7,-110.2,-0.94,3.59,1.54,0.02,-1.05,-0.27,-161.2,-77.9,-203.0,-0.12,2.38,-0.01,0.0,1.0843431191278894,4.017872571398948,0.11227117106013673,0.28,0,4,0.0
7.75790002299982,470,4363.17,-91.4,-2.8,-109.9,-1.21,3.8,1.08,0.02,-1.16,-0.24,-162.2,-102.1,-237.0,-0.1,3.08,0.06,0.0,1.1847362575695908,4.131646161035574,0.2084110233118014,0.28,0,4,0.0
7.769942126000387,471,4363.18,-91.6,-2.8,-109.5,-1.97,3.98,0.42,-0.02,-1.27,-0.21,-163.4,-133.4,-324.0,-0.06,4.11,0.21,0.0,1.2874004815907132,4.46068380408206,0.3048537423862653,0.28,1,5,3.0
7.777857711999786,472,4363.19,-91.9,-2.8,-109.1,-2.36,4.09,-0.32,-0.06,-1.36,-0.15,-165.0,-174.8,-387.0,-0.01,5.27,0.31,0.0,1.3695619737711764,4.732874390896086,0.3792749298753939,0.28,0,5,3.0
7.789953887000593,473,4363.2,-92.2,-2.7,-108.7,-2.4,3.89,-1.09,-0.15,-1.38,-0.07,-167.0,-203.4,-64.0,0.04,4.79,2.78,3.49,1.3898920821416314,4.69895733115337,0.39161293748093196,0.28,0,5,3.0
7.797825050000029,474,4363.21,-92.4,-2.6,-108.3,-1.98,3.3,-1.6,-0.22,-1.31,0.01,-168.4,-95.3,858.0,0.06,0.99,3.07,3.49,1.3283824750424857,4.167781184275393,0.32350126377415056,0.28,0,5,3.0
7.809944119000647,475,4363.22,-92.6,-2.4,-108.0,-1.83,2.78,-1.96,-0.18,-1.32,0.01,-168.5,17.0,849.0,0.05,-1.19,3.3,3.49,1.3322537295875738,3.8624991909384265,0.3208250679528539,0.28,0,5,3.0
7.8178222850001475,476,4363.23,-92.9,-2.2,-107.8,-2.2,2.36,-2.7,-0.26,-1.48,0.07,-168.1,48.3,349.0,0.04,-1.31,3.67,3.49,1.5042938542718307,4.207089255055092,0.4830078887843685,0.28,0,5,3.0
7.830185372999949,477,4363.24,-93.1,-1.8,-107.6,-2.44,1.74,-3.92,-0.35,-1.67,0.19,-167.7,36.5,-33.0,0.03,-0.6,3.68,3.49,1.7168284713389395,4.934328728408759,0.6816316557344477,0.28,0,5,3.0
7.837824893000288,478,4363.25,-93.4,-1.4,-107.5,-2.35,0.97,-5.39,-0.42,-1.87,0.21,-167.5,2.4,-195.0,0.03,0.13,3.4,3.49,1.928056015783774,5.959488233061627,0.8750020161756966,0.28,0,5,3.0
7.85028032199989,479,4363.26,-93.5,-0.8,-107.5,-1.16,0.0,-6.29,-0.45,-1.72,0.24,-167.5,0.3,-44.0,0.03,0.0,3.64,3.49,1.794017837146554,6.396069105317734,0.7261445607877071,0.28,0,5,3.0
7.857879068000329,480,4363.27,-93.6,-0.1,-107.6,0.44,-1.37,-5.81,-0.24,-1.34,0.22,-167.6,-1.7,-30.0,0.03,0.06,3.68,3.49,1.378985134075056,5.985532557759585,0.30488962056188496,0.28,0,5,3.0
7.870350598000186,481,4363.28,-93.4,0.2,-107.8,2.01,-1.57,-4.04,0.13,-0.95,0.06,-167.6,-3.5,-31.0,0.03,0.15,3.44,3.49,0.960728889958036,4.777719121086965,0.11109929108403249,0.28,0,5,3.0
7.877779088000352,482,4363.29,-93.2,0.5,-107.9,2.6,-0.84,-2.14,0.47,-0.78,-0.04,-167.7,-9.2,-57.0,0.03,0.35,3.51,3.49,0.9115371632577577,3.470619541234677,0.1570851974286246,0.28,0,5,3.0
7.890006835999884,483,4363.3,-93.0,0.6,-107.9,1.34,0.4,-0.64,0.7,-0.75,-0.12,-167.8,-16.7,-63.0,0.04,0.53,3.56,3.49,1.0329085148259742,1.5379206741571558,0.03499956894319989,0.28,0,5,3.0
7.897896682999999,484,4363.31,-92.9,0.7,-107.8,-0.3,1.92,0.01,0.71,-0.87,-0.09,-168.0,-25.6,-93.0,0.04,0.85,3.38,3.49,1.1265433857601757,1.9433218981939147,0.05746259595118142,0.28,0,5,3.0
7.910039088999838,485,4363.32,-93.0,0.7,-107.5,-0.9,4.13,0.25,0.55,-0.99,-0.04,-168.4,-44.9,-197.0,0.06,1.57,3.61,3.49,1.133225485064645,4.234312222781877,0.06286180135053776,0.28,0,5,3.0
7.91789223700016,486,4363.33,-93.1,0.7,-107.0,-0.24,5.45,0.33,0.33,-1.03,0.05,-169.0,-67.3,-148.0,0.08,1.86,3.59,3.49,1.082728036027515,5.465253882483411,0.012117065267139626,0.28,0,5,3.0
7.930068880000363,487,4363.34,-93.0,0.7,-106.4,0.86,6.09,0.38,0.12,-1.05,0.16,-169.7,-65.3,-41.0,0.09,1.81,3.23,3.49,1.0688779163215976,6.162150598614091,0.0016983933500023252,0.28,0,5,3.0
7.939709006000157,488,4363.35,-92.9,0.7,-105.8,1.61,6.46,0.08,-0.02,-1.07,0.18,-170.4,-65.1,34.0,0.11,1.58,3.37,3.49,1.0852188719332152,6.658085310357626,0.014349711016383049,0.28,0,5,3.0
7.9496601330001795,489,4363.36,-92.7,0.7,-105.1,2.09,6.27,-0.27,-0.14,-1.0,0.23,-170.9,-50.2,88.0,0.12,1.28,3.55,3.49,1.035615758860399,6.614673083380613,0.03454833401530455,0.28,0,5,3.0
7.957484292000117,490,4363.37,-92.5,0.8,-104.5,2.35,5.94,-0.38,-0.18,-0.91,0.22,-171.4,-48.2,31.0,0.14,1.28,3.35,3.49,0.9533624704172071,6.399257769460456,0.11446559000932643,0.28,0,5,0.0
7.969827230000192,491,4363.38,-92.2,0.8,-104.0,2.3,5.47,-0.31,-0.22,-0.86,0.21,-171.8,-37.7,138.0,0.15,0.72,3.37,3.49,0.9121951545584969,5.941969370503352,0.15252024775067585,0.28,0,5,0.0
7.9818040400004975,492,4363.39,-92.0,0.9,-103.5,2.02,4.94,-0.12,-0.18,-0.84,0.17,-172.2,-64.4,-578.0,0.17,3.54,0.61,0.0,0.875728268357257,5.3383892701825335,0.18520739127287744,0.28,0,5,0.0
7.989713962000678,493,4363.4,-91.8,0.9,-103.0,1.39,4.48,-0.11,-0.25,-0.86,0.19,-173.9,-205.0,-1043.0,0.23,6.99,0.72,0.0,0.9155326318597279,4.69197186692333,0.14249496721499844,0.28,0,5,0.0
7.997800269999971,494,4363.41,-91.7,0.9,-102.6,0.65,3.44,0.02,-0.26,-0.77,0.24,-176.7,-307.7,-951.0,0.32,9.39,0.23,0.0,0.8474078120952154,3.5009284482833976,0.20640739123992058,0.28,0,5,0.0
8.010062135000226,495,4363.42,-91.7,0.9,-102.3,-0.06,2.55,0.41,-0.16,-0.74,0.18,-180.3,-382.5,-753.0,0.42,11.09,0.14,0.0,0.7782030583337487,2.583447309313662,0.2700999021013595,0.28,0,5,0.0
8.017916212000273,496,4363.43,-91.7,0.9,-102.1,-0.9,1.72,0.74,-0.1,-0.77,0.14,-184.4,-425.1,-452.0,0.54,11.83,0.06,0.0,0.788986691902975,2.0774984957876623,0.2541299431614906,0.28,0,5,0.0
8.030189645000064,497,4363.44,-91.9,0.8,-101.9,-1.85,1.17,1.01,-0.05,-0.84,0.11,-188.8,-443.2,-242.0,0.66,12.16,0.14,0.0,0.848645980371085,2.4107052909885107,0.19058124159951306,0.28,0,5,0.0
8.03965577300005,498,4363.45,-92.1,0.7,-101.8,-2.24,0.8,1.14,-0.03,-0.94,0.09,-193.3,-446.5,-76.0,0.78,12.1,-0.16,0.0,0.9447751055145346,2.6376504696414953,0.09256307412694209,0.28,0,5,0.0
8.05003129600027,499,4363.46,-92.3,0.6,-101.8,-2.08,0.47,1.2,-0.04,-0.99,0.08,-197.7,-440.6,43.0,0.9,11.8,0.0,0.0,0.9940321926376429,2.446895992885681,0.042439867263757036,0.28,0,5,0.0
8.05789894100053,500,4363.47,-92.5,0.4,-101.7,-1.65,0.18,1.21,-0.03,-1.01,0.06,-202.0,-414.6,243.0,1.01,10.79,-0.06,0.0,1.0122252713699653,2.0540204478047435,0.02376185276080589,0.28,0,5,0.0
8.06988364100016,501,4363.48,-92.6,0.3,-101.7,-1.08,-0.06,1.15,-0.03,-1.0,0.03,-205.9,-380.2,279.0,1.11,10.0,-0.19,0.0,1.0008995953640905,1.5787653403846944,0.03438577819134725,0.28,0,5,0.0
8.077913660000377,502,4363.49,-92.6,0.2,-101.7,-0.78,-0.11,1.08,-0.02,-0.97,0.0,-209.4,-347.1,345.0,1.21,8.94,-0.2,0.0,0.9702061636580134,1.3367497896016294,0.06377762569947587,0.28,0,5,0.0
8.090264653000304,503,4363.5,-92.7,0.0,-101.7,-0.7,-0.1,1.01,-0.03,-0.93,-0.02,-212.6,-305.0,398.0,1.29,7.77,-0.14,0.0,0.9306986622962343,1.232923355282071,0.10121942452002974,0.28,0,5,0.0
8.097871551000026,504,4363.51,-92.7,0.0,-101.7,-0.73,-0.05,0.97,-0.04,-0.9,-0.02,-215.4,-263.8,405.0,1.36,6.66,-0.13,0.0,0.9011104260855048,1.2150308638055247,0.12819150751614405,0.28,0,5,0.0
8.110266714999852,505,4363.52,-92.8,-0.1,-101.7,-0.72,0.08,0.96,-0.03,-0.88,-0.05,-217.7,-220.7,431.0,1.42,5.44,-0.12,0.0,0.8819297024139735,1.2026637102698325,0.144424786563922,0.28,0,5,0.0
8.117889529999957,506,4363.53,-92.9,-0.2,-101.7,-0.87,0.2,1.0,-0.02,-0.87,-0.06,-219.6,-175.6,449.0,1.46,4.19,-0.07,0.0,0.8722958213817146,1.3404849868610986,0.15097749424425733,0.28,0,5,0.0
8.129883481999968,507,4363.54,-93.0,-0.3,-101.7,-0.92,0.36,1.07,-0.01,-0.88,-0.08,-221.1,-128.1,458.0,1.5,2.93,-0.13,0.0,0.8836854644046149,1.456331006330635,0.13679609419692984,0.28,0,5,0.0
8.137882357999842,508,4363.55,-93.1,-0.4,-101.6,-0.75,0.55,1.16,0.0,-0.9,-0.1,-222.0,-83.4,452.0,1.52,1.71,-0.15,0.0,0.9055385138137417,1.486808662874951,0.11264418389204689,0.28,0,5,0.0
8.15000702100042,509,4363.56,-93.2,-0.6,-101.6,-0.49,0.69,1.22,0.0,-0.92,-0.13,-222.5,-38.6,446.0,1.53,0.51,-0.23,0.0,0.9291393867445293,1.4847895473770012,0.08726244474203415,0.28,0,5,0.0
8.15782273700006,510,4363.57,-93.3,-0.7,-101.5,-0.2,0.87,1.24,0.01,-0.91,-0.16,-222.7,-0.4,365.0,1.52,-0.32,-0.22,0.0,0.9240129869217207,1.5279070652366262,0.09054106767354597,0.28,0,5,0.0
8.17005165699993,511,4363.58,-93.3,-0.8,-101.4,-0.04,1.01,1.16,0.02,-0.91,-0.17,-222.5,20.3,214.0,1.52,-0.66,0.0,0.0,0.9259589623736033,1.5386032627028972,0.08682319037723008,0.28,0,5,0.0
8.177912253000613,512,4363.59,-93.3,-0.9,-101.3,0.08,1.12,1.05,0.0,-0.9,-0.18,-222.3,25.0,75.0,1.51,-0.65,-0.04,0.0,0.9178235124467012,1.537302832886221,0.0930594674980495,0.28,0,5,0.0
8.189912839000499,513,4363.6,-93.4,-1.0,-101.1,0.25,1.21,0.89,-0.01,-0.9,-0.18,-222.0,21.0,-12.0,1.51,-0.48,0.11,0.0,0.917877987534291,1.5227278154680173,0.09114489256225056,0.28,0,5,0.0
8.197911293000288,514,4363.61,-93.3,-1.0,-101.0,0.49,1.31,0.63,-0.05,-0.91,-0.17,-221.9,10.5,-92.0,1.5,-0.09,0.17,0.0,0.9270922284217467,1.5339817469578967,0.08029203864129886,0.28,0,5,0.0
8.210239538000678,515,4363.62,-93.3,-1.1,-100.9,0.83,1.28,0.31,-0.1,-0.9,-0.14,-221.9,-2.9,-95.0,1.5,0.14,-0.01,0.0,0.9162968951164246,1.5567273364337122,0.08926562450768849,0.28,0,5,0.0
8.221698443000605,516,4363.63,-93.2,-1.1,-100.7,1.15,1.05,0.0,-0.15,-0.89,-0.1,-221.9,-4.4,-23.0,1.51,0.09,-0.14,0.0,0.9080748867797193,1.5572411502397436,0.09553788018750597,0.28,0,5,0.0
8.229844174000391,517,4363.64,-93.1,-1.1,-100.7,1.2,0.66,-0.34,-0.18,-0.88,-0.09,-222.0,-2.5,-1.0,1.51,0.06,0.07,0.0,0.9027181176868003,1.4110988625890108,0.0988767562948164,0.28,0,5,0.0
8.237826700999904,518,4363.65,-93.0,-1.0,-100.6,0.83,0.24,-0.57,-0.19,-0.88,-0.1,-222.0,-3.7,-15.0,1.51,0.14,0.14,0.0,0.9058145505565695,1.0350845376103344,0.0938647169565463,0.28,0,5,0.0
8.249925124000583,519,4363.66,-92.9,-0.9,-100.6,0.18,-0.22,-0.73,-0.2,-0.91,-0.09,-222.1,-9.0,-53.0,1.51,0.35,0.15,0.0,0.936055553906925,0.7833900688673554,0.062351239334066944,0.28,0,5,0.0
8.257844194000427,520,4363.67,-92.9,-0.9,-100.7,-0.08,-0.64,-0.86,-0.18,-0.96,-0.08,-222.2,-17.0,-72.0,1.52,0.58,0.12,0.0,0.98,1.074988372030135,0.01803865737617205,0.28,0,5,0.0
8.270029780000186,521,4363.68,-92.9,-0.8,-100.8,0.21,-1.05,-1.01,-0.16,-0.98,-0.09,-222.4,-27.6,-94.0,1.52,0.87,0.08,0.0,0.9970456358662826,1.4719714671147672,0.0009731610796916979,0.28,0,5,0.0
8.277853798999786,522,4363.69,-92.8,-0.7,-100.9,0.63,-1.51,-1.16,-0.15,-0.96,-0.1,-222.8,-38.6,-105.0,1.53,1.18,0.09,0.0,0.9767804256842988,2.005642041840966,0.02081360383644193,0.28,0,5,0.0
8.289891516999887,523,4363.7,-92.8,-0.6,-101.1,0.94,-1.92,-1.29,-0.13,-0.91,-0.13,-223.3,-48.7,-100.0,1.55,1.44,0.29,0.0,0.9283856957105706,2.496817974943308,0.06782416713396666,0.28,0,5,0.0
8.29790743400008,524,4363.71,-92.7,-0.4,-101.3,0.92,-2.16,-1.39,-0.12,-0.83,-0.13,-223.8,-59.5,-110.0,1.56,1.77,0.05,0.0,0.848645980371085,2.728387802347753,0.1446126048239833,0.28,0,5,0.0
8.309887463999985,525,4363.72,-92.6,-0.3,-101.5,0.47,-2.47,-1.28,-0.06,-0.83,-0.18,-224.5,-73.2,-126.0,1.58,2.14,0.05,0.0,0.8514105942493316,2.8213826397707917,0.1390110311268219,0.28,0,5,0.0
8.317837520000467,526,4363.73,-92.6,-0.2,-101.8,-0.61,-2.36,-0.99,-0.03,-0.84,-0.18,-225.3,-86.9,-139.0,1.61,2.54,0.02,0.0,0.8595929269136641,2.630931394012394,0.1282121244932397,0.28,0,5,0.0
8.329955694000091,527,4363.74,-92.7,-0.1,-102.0,-1.48,-2.3,-0.81,0.01,-0.9,-0.21,-226.3,-102.3,-150.0,1.64,2.98,0.21,0.0,0.9242294087508793,2.852455082906653,0.06230412980290401,0.28,0,5,0.0
8.337902109000424,528,4363.75,-92.9,-0.1,-102.2,-1.49,-1.9,-0.6,0.06,-0.99,-0.24,-227.4,-119.3,-165.0,1.67,3.46,0.04,0.0,1.020441081101697,2.487991157540557,0.03322939169695549,0.28,0,5,0.0
8.349942890999955,529,4363.76,-93.0,0.0,-102.4,-0.86,-1.49,-0.52,0.07,-1.02,-0.25,-228.6,-135.3,-174.0,1.71,3.94,0.21,0.0,1.0525207836427743,1.7972478960900191,0.06400291235327216,0.28,0,5,0.0
8.357911695000439,530,4363.77,-93.0,0.0,-102.5,-0.24,-1.14,-0.4,0.07,-1.0,-0.26,-230.2,-153.3,-161.0,1.75,4.36,0.19,0.0,1.035615758860399,1.2317467272130256,0.0461559298194788,0.28,0,5,0.0
8.369993645999784,531,4363.78,-93.0,0.0,-102.6,0.23,-0.9,-0.44,0.05,-0.99,-0.26,-231.9,-168.7,-153.0,1.8,4.76,0.0,0.0,1.024792661956554,1.027861858422619,0.03462617625732112,0.28,0,5,0.0
8.377726202999838,532,4363.79,-93.0,0.0,-102.7,0.0,-1.04,-0.44,0.01,-0.94,-0.21,-233.7,-182.0,-135.0,1.85,5.1,-0.02,0.0,0.9632237538599222,1.1292475370794484,0.02640387720252435,0.28,0,5,0.0
8.39000461500018,533,4363.8,-93.1,0.0,-102.9,-1.52,-1.2,-0.1,0.01,-0.98,-0.22,-235.6,-193.9,-116.0,1.9,5.39,0.0,0.0,1.0044401425669924,1.9391750823481617,0.014516261274454934,0.28,0,5,0.0
8.397907681000106,534,4363.81,-93.3,0.0,-103.0,-2.49,-1.22,0.32,0.02,-1.07,-0.24,-237.6,-204.0,-106.0,1.96,5.66,0.27,0.0,1.0967679791095288,2.791218371965906,0.10470721586065146,0.28,0,5,0.0
8.410092937000627,535,4363.82,-93.6,0.0,-103.1,-2.81,-1.09,0.93,0.06,-1.18,-0.28,-239.7,-214.3,-113.0,2.02,5.98,0.18,0.0,1.2142487389328431,3.154219396300771,0.2177442161702864,0.28,0,5,0.0
8.417903141999886,536,4363.83,-93.8,-0.1,-103.2,-1.86,-0.84,1.39,0.08,-1.3,-0.3,-241.9,-229.0,-148.0,2.08,6.44,0.17,0.0,1.3365627557282898,2.4692711475251157,0.33325706830641844,0.28,1,6,3.0
8.429949413000031,537,4363.84,-93.9,-0.3,-103.2,0.15,-0.43,1.41,0.02,-1.39,-0.28,-244.4,-247.5,-174.0,2.15,6.96,0.12,0.0,1.4180620578804015,1.4817219712213219,0.4064612430493595,0.28,0,6,3.0
8.439921782000056,538,4363.85,-93.8,-0.4,-103.3,1.64,-0.37,0.98,-0.04,-1.32,-0.15,-246.8,-225.9,495.0,2.2,4.48,2.91,3.49,1.3290974381135494,1.9459958889987408,0.3111466908168572,0.28,0,6,3.0
8.450004936999903,539,4363.86,-93.7,-0.5,-103.3,1.48,-0.81,0.71,-0.03,-1.24,-0.04,-248.1,-85.3,1091.0,2.22,0.68,2.96,3.49,1.2410076550932312,1.83046442194324,0.21859576964060823,0.28,0,6,3.0
8.457909038999787,540,4363.87,-93.5,-0.5,-103.4,0.51,-1.1,0.48,0.01,-1.26,0.0,-248.2,16.0,806.0,2.22,-0.92,3.44,3.49,1.2600396819148196,1.3040322081911935,0.23287524053295283,0.28,0,6,3.0
8.47005321800043,541,4363.88,-93.5,-0.6,-103.5,-0.1,-1.11,0.58,0.02,-1.33,0.09,-247.9,26.9,184.0,2.21,-0.39,3.76,3.49,1.3331916591398252,1.2563836993530282,0.2999066734027993,0.28,0,6,3.0
8.477927871999782,542,4363.89,-93.5,-0.7,-103.6,0.14,-1.23,0.99,-0.02,-1.41,0.13,-247.8,-0.2,-52.0,2.21,0.06,3.51,3.49,1.4161214637170074,1.5851182921157652,0.3751797484203818,0.28,0,6,3.0
8.489938366000388,543,4363.9,-93.4,-0.8,-103.7,0.68,-1.16,1.83,-0.03,-1.43,0.19,-247.8,0.0,-6.0,2.21,0.0,3.53,3.49,1.4428790663115185,2.2708808863522543,0.3938986039945951,0.28,0,6,3.0
8.497768479000115,544,4363.91,-93.3,-1.1,-103.9,1.72,-1.58,2.61,-0.07,-1.46,0.32,-247.8,0.2,-15.0,2.21,0.05,3.48,3.49,1.4962954253756173,3.502413453605956,0.43836866379751993,0.28,0,6,3.0
8.510183178999796,545,4363.92,-93.1,-1.4,-104.0,3.37,-2.49,2.87,-0.18,-1.32,0.39,-247.9,-7.6,-81.0,2.21,0.38,3.48,3.49,1.3881282361511131,5.078769536019527,0.3235974450815555,0.28,0,6,3.0
8.517890252000143,546,4363.93,-92.7,-1.7,-104.3,4.19,-3.31,2.98,-0.18,-1.12,0.37,-248.0,-21.7,-123.0,2.22,0.77,3.58,3.49,1.1931890043073645,6.114948895943449,0.12608504897305073,0.28,0,6,3.0
8.529517482000301,547,4363.94,-92.2,-2.0,-104.7,3.83,-4.29,2.54,-0.22,-1.12,0.34,-248.4,-41.7,-208.0,2.23,1.49,3.77,3.49,1.1909659944767526,6.286859311293677,0.12138479835958993,0.28,0,6,3.0
8.537836049999896,548,4363.95,-91.9,-2.2,-105.2,2.71,-5.02,1.98,-0.3,-1.04,0.38,-249.0,-72.4,-242.0,2.25,2.18,3.6,3.49,1.147170431975999,6.038617391423305,0.07603745114165972,0.28,0,6,3.0
8.549952373000451,549,4363.96,-91.7,-2.4,-105.7,2.01,-6.17,1.56,-0.3,-1.0,0.43,-249.8,-80.3,-109.0,2.27,2.26,3.37,3.49,1.1291146974510606,6.674024273255229,0.05682208228438701,0.28,0,6,3.0
8.557872549000422,550,4363.97,-91.4,-2.6,-106.4,2.51,-6.95,1.46,-0.21,-0.93,0.3,-250.6,-80.5,39.0,2.29,1.89,3.39,3.49,0.999499874937461,7.5322108308251705,0.07133688542462846,0.28,0,6,3.0
8.569938921000357,551,4363.98,-91.1,-2.7,-107.1,2.67,-7.17,1.42,-0.1,-0.88,0.19,-251.3,-61.8,106.0,2.31,1.54,3.21,3.49,0.9058145505565695,7.781657921034565,0.16172176560940954,0.28,0,6,3.0
8.577865987000223,552,4363.99,-90.8,-2.9,-107.8,2.05,-6.92,1.27,-0.05,-0.86,0.11,-251.8,-36.4,310.0,2.32,0.32,3.21,3.49,0.8684468895678077,7.328151199313508,0.1951076380662078,0.28,0,6,3.0
8.589871146000405,553,4364.0,-90.7,-3.0,-108.5,0.85,-6.48,0.88,-0.07,-0.96,0.11,-251.8,-4.5,389.0,2.32,-0.34,3.5,3.49,0.9688137075826291,6.594490124338652,0.09284600365035867,0.28,0,6,3.0
8.597743659000116,554,4364.01,-90.5,-3.0,-109.1,0.03,-6.08,0.21,-0.04,-1.03,0.07,-251.7,10.0,149.0,2.31,-0.33,3.21,3.49,1.0331505214633538,6.083699532356936,0.02793900597424126,0.28,0,6,3.0
8.610380840999824,555,4364.02,-90.5,-3.0,-109.7,-0.27,-5.67,-0.36,0.0,-1.05,0.09,-251.5,22.1,170.0,2.31,-0.85,3.57,3.49,1.0538500842150178,5.687829111356986,0.00709465435812584,0.28,0,6,0.0
8.61786170600044,556,4364.03,-90.5,-3.0,-110.2,-0.34,-5.56,-0.88,0.02,-1.02,0.08,-251.1,50.1,296.0,2.29,-1.88,3.22,3.49,1.0233279044372825,5.639468060021263,0.03686449745314402,0.28,0,6,0.0
8.629907905999971,557,4364.04,-90.5,-2.9,-110.8,-0.21,-5.35,-1.25,0.05,-0.95,0.05,-250.3,92.4,179.0,2.27,-2.08,0.32,0.0,0.9526279441628824,5.49809967170476,0.1054131685729931,0.28,0,6,0.0
8.637858289000178,558,4364.05,-90.5,-2.7,-111.3,-0.55,-5.12,-1.57,0.06,-0.92,0.03,-249.8,25.1,-479.0,2.26,0.21,0.12,0.0,0.9224424101265076,5.383474714345745,0.13288672855718064,0.28,0,6,0.0
8.649819977999869,559,4364.06,-90.5,-2.5,-111.8,-0.79,-5.11,-1.9,0.01,-0.87,0.06,-249.9,-19.1,-270.0,2.27,0.52,-0.03,0.0,0.8721238444166058,5.5087385125816235,0.1795411883817407,0.28,0,6,0.0
8.657813423000334,560,4364.07,-90.6,-2.3,-112.3,-0.93,-5.1,-2.03,0.03,-0.78,0.04,-250.0,-10.8,9.0,2.27,0.06,0.0,0.0,0.7816009211867653,5.567387178919748,0.2646628293793497,0.28,0,6,0.0
8.669941174000087,561,4364.08,-90.6,-2.1,-112.9,-0.81,-5.04,-1.93,0.06,-0.76,0.01,-250.0,6.1,90.0,2.27,-0.29,0.08,0.0,0.7624303246854758,5.457343676185329,0.27815675736302636,0.28,0,6,0.0
8.677937843000109,562,4364.09,-90.7,-1.8,-113.4,-0.46,-4.92,-1.76,0.07,-0.74,-0.01,-249.9,16.6,107.0,2.26,-0.61,0.17,0.0,0.743370701601832,5.245531431609194,0.2912720528377366,0.28,0,6,0.0
8.689960510000674,563,4364.1,-90.7,-1.7,-113.8,-0.19,-4.67,-1.53,0.1,-0.73,-0.03,-249.6,30.1,131.0,2.25,-0.99,-0.03,0.0,0.7374279625834648,4.917916225394654,0.2912704960189818,0.28,0,6,0.0
8.69784900400009,564,4364.11,-90.7,-1.5,-114.3,-0.18,-4.38,-1.24,0.14,-0.76,-0.08,-249.2,47.7,178.0,2.24,-1.57,-0.08,0.0,0.7769169839822012,4.555699726715974,0.24674584512784037,0.28,0,6,0.0
8.71039310300057,565,4364.12,-90.7,-1.4,-114.7,-0.14,-3.8,-0.99,0.17,-0.81,-0.11,-248.6,68.7,199.0,2.22,-2.13,-0.19,0.0,0.8349251463454674,3.9293383666973756,0.1849629291092827,0.28,0,6,0.0
8.71768907400019,566,4364.13,-90.7,-1.4,-115.0,-0.14,-3.2,-0.8,0.19,-0.86,-0.13,-247.7,92.5,233.0,2.19,-2.83,-0.23,0.0,0.8902808545621994,3.3014542250347807,0.12701507647469978,0.28,0,6,0.0
8.730300605000593,567,4364.14,-90.7,-1.3,-115.3,-0.06,-2.59,-0.65,0.21,-0.91,-0.13,-246.6,117.3,244.0,2.16,-3.5,-0.39,0.0,0.9429209935090003,2.6709923249608933,0.07288743877734094,0.28,0,6,0.0
8.737902146000124,568,4364.15,-90.7,-1.2,-115.6,0.05,-1.99,-0.57,0.22,-0.94,-0.13,-245.3,141.8,245.0,2.12,-4.16,0.09,0.0,0.9741149829460586,2.0706279240848655,0.04085958035347692,0.28,0,6,0.0
8.750103297999885,569,4364.16,-90.7,-1.2,-115.7,0.17,-1.38,-0.52,0.22,-0.95,-0.15,-243.7,165.4,229.0,2.08,-4.76,-0.03,0.0,0.986610358753647,1.4844864431849822,0.02779692045497084,0.28,0,6,0.0
8.757925552000415,570,4364.17,-90.7,-1.1,-115.8,0.04,-0.87,-0.52,0.18,-0.93,-0.14,-241.9,187.9,222.0,2.02,-5.36,-0.06,0.0,0.9575489543621256,1.0143470806385753,0.05572115834956248,0.28,0,6,0.0
8.770327232999989,571,4364.18,-90.7,-1.1,-115.9,-0.27,-0.52,-0.55,0.13,-0.91,-0.12,-239.9,210.7,239.0,1.97,-6.05,0.04,0.0,0.9270382947861432,0.8036168241145777,0.08450718156703407,0.28,0,6,0.0
8.779955744999825,572,4364.19,-90.7,-1.0,-115.9,-0.64,-0.33,-0.61,0.07,-0.89,-0.1,-237.6,238.2,274.0,1.9,-6.85,-0.07,0.0,0.8983317872590283,0.9437160589923221,0.11094941531226599,0.28,0,6,0.0
8.789977362000172,573,4364.2,-90.8,-1.0,-116.0,-0.93,-0.27,-0.61,0.03,-0.89,-0.12,-235.0,266.4,265.0,1.83,-7.55,0.0,0.0,0.8985543945694106,1.1445086281894077,0.10851227184184609,0.28,0,6,0.0
8.797874640999908,574,4364.21,-90.9,-0.9,-116.0,-0.98,-0.22,-0.56,0.01,-0.89,-0.14,-232.2,289.6,237.0,1.75,-8.14,-0.08,0.0,0.9009994450608724,1.149956520917204,0.10394587692337665,0.28,0,6,0.0
8.810155523000503,575,4364.22,-91.0,-0.8,-116.0,-0.8,-0.21,-0.48,0.01,-0.89,-0.16,-229.1,313.0,239.0,1.66,-8.8,-0.2,0.0,0.9043229511629128,0.9562949335848225,0.09860992340490948,0.28,0,6,0.0
8.817737359000603,576,4364.23,-91.1,-0.8,-116.0,-0.55,-0.22,-0.37,0.03,-0.89,-0.17,-225.8,338.9,257.0,1.57,-9.53,-0.01,0.0,0.9065870063044142,0.6984268036093689,0.09441895089814001,0.28,0,6,0.0
8.829972630000157,577,4364.24,-91.1,-0.8,-116.1,-0.31,-0.21,-0.21,0.05,-0.87,-0.18,-222.2,364.6,257.0,1.47,-10.23,-0.09,0.0,0.889831444712986,0.4293017586733136,0.10895102223977682,0.28,0,6,0.0
8.837869986999976,578,4364.25,-91.1,-0.8,-116.1,-0.15,-0.15,0.0,0.08,-0.85,-0.19,-218.4,393.8,284.0,1.36,-11.05,-0.14,0.0,0.874642784226795,0.21213203435596426,0.12165688907144856,0.28,0,6,0.0
8.849967443999958,579,4364.26,-91.1,-0.8,-116.1,-0.04,-0.03,0.29,0.1,-0.83,-0.22,-214.3,416.2,218.0,1.25,-11.54,0.02,0.0,0.8644651525654461,0.2942787793912432,0.12919783031814147,0.28,0,6,0.0
8.857927345999997,580,4364.27,-91.1,-0.8,-116.1,-0.05,0.18,0.64,0.12,-0.81,-0.25,-210.0,439.6,255.0,1.12,-12.3,-0.07,0.0,0.8561541917201597,0.6667083320313314,0.13475861534015932,0.28,0,6,0.0
8.86987440700068,581,4364.28,-91.1,-0.9,-116.1,-0.14,0.44,0.86,0.15,-0.86,-0.27,-205.4,461.8,193.0,1.0,-12.71,-0.21,0.0,0.9137833441248532,0.9761147473529943,0.07558687367675654,0.28,0,6,0.0
8.877847929000382,582,4364.29,-91.2,-1.0,-116.0,-0.18,0.71,0.83,0.14,-0.9,-0.26,-200.6,483.9,270.0,0.87,-13.6,0.0,0.0,0.9472064188971694,1.1069778678907722,0.04132052292635158,0.28,0,6,0.0
8.88984352100033,583,4364.3,-91.2,-1.1,-115.9,-0.14,0.85,0.75,0.12,-0.89,-0.24,-195.6,510.8,221.0,0.73,-14.09,-0.12,0.0,0.929569792968769,1.1421908772179892,0.05777800587765691,0.28,0,6,0.0
8.8978171079998,584,4364.31,-91.2,-1.1,-115.8,-0.22,1.05,0.7,0.11,-0.88,-0.22,-190.4,530.1,222.0,0.58,-14.7,-0.07,0.0,0.9137286249209883,1.2809761902549166,0.07214679044692884,0.28,0,6,0.0
8.91021569700024,585,4364.32,-91.2,-1.2,-115.7,-0.34,1.31,0.7,0.1,-0.86,-0.21,-184.9,552.1,231.0,0.43,-15.35,-0.12,0.0,0.8908984229416954,1.5237125713204573,0.09307745257769728,0.28,0,6,0.0
8.91789982299997,586,4364.33,-91.3,-1.3,-115.5,-0.52,1.59,0.71,0.1,-0.85,-0.2,-179.2,576.3,186.0,0.27,-15.76,-0.33,0.0,0.8789197915623472,1.8173056980046038,0.10295496227790457,0.28,0,6,0.0
8.929881288000615,587,4364.34,-91.3,-1.3,-115.4,-0.84,1.81,0.65,0.1,-0.87,-0.18,-173.4,589.1,189.0,0.11,-16.29,-0.03,0.0,0.8940357934669059,2.0986185932655794,0.08608218116587896,0.28,0,6,0.0
8.937743449000664,588,4364.35,-91.5,-1.4,-115.2,-1.29,1.82,0.46,0.1,-0.88,-0.14,-167.4,597.6,31.0,-0.04,-16.1,0.08,0.0,0.8966604708583957,2.277740108089595,0.08178835369890136,0.28,0,6,0.0
8.94997505900028,589,4364.36,-91.6,-1.4,-115.0,-1.47,1.71,0.3,0.15,-0.86,-0.13,-161.5,576.8,-262.0,-0.2,-14.88,0.32,0.0,0.8826097665446491,2.274862633215465,0.09392227685239507,0.28,0,6,0.0
8.957949939000173,590,4364.37,-91.8,-1.4,-114.8,-1.33,1.66,0.32,0.21,-0.85,-0.16,-156.3,481.9,-863.0,-0.32,-11.55,0.4,0.0,0.8900561780022651,2.1510230124292025,0.08474634808688342,0.28,0,6,0.0
8.96993600299993,591,4364.38,-91.9,-1.5,-114.7,-1.58,1.78,0.29,0.16,-0.95,-0.2,-152.5,344.0,-1272.0,-0.41,-7.43,0.39,0.0,0.9839207285142436,2.3976863848301764,0.008935838376593175,0.28,0,6,0.0
8.977865552000367,592,4364.39,-92.1,-1.5,-114.5,-1.78,1.97,0.1,0.07,-1.02,-0.28,-150.2,173.0,-1625.0,-0.45,-2.44,0.79,0.0,1.0600471687618434,2.6569343236143417,0.08336103305170905,0.28,0,6,0.0
8.989920535999772,593,4364.4,-92.3,-1.5,-114.3,-1.58,2.24,-0.02,0.0,-1.08,-0.32,-149.7,5.1,-1479.0,-0.45,1.23,0.16,0.0,1.126410227226298,2.741240595059106,0.14672960968584037,0.28,0,6,0.0
9.000025633000405,594,4364.41,-92.4,-1.5,-114.0,-1.01,2.19,-0.08,-0.07,-1.08,-0.31,-150.2,-77.9,-910.0,-0.42,2.78,0.15,0.0,1.1257886124845997,2.413006423530613,0.14318583504525928,0.28,0,6,0.0
9.01030648699998,595,4364.42,-92.5,-1.5,-113.8,-0.64,2.19,0.19,-0.04,-1.06,-0.28,-151.4,-129.3,-638.0,-0.38,4.11,0.16,0.0,1.0970870521521983,2.2894977615188883,0.1121945892186007,0.28,0,6,0.0
9.017916099000104,596,4364.43,-92.5,-1.5,-113.6,-0.4,2.18,0.34,0.05,-1.13,-0.23,-152.8,-173.8,-540.0,-0.33,5.39,0.0,0.0,1.1542530051942683,2.242320226907834,0.16597333141545734,0.28,0,6,0.0
9.029860366999856,597,4364.44,-92.6,-1.5,-113.4,-1.05,2.08,-0.05,0.03,-1.23,-0.19,-155.1,-223.0,-480.0,-0.27,6.62,0.23,0.0,1.2449497981846496,2.330536418938782,0.2515367219177218,0.28,0,6,0.0
9.037913853000646,598,4364.45,-92.8,-1.4,-113.2,-1.9,2.03,-0.55,0.04,-1.21,-0.17,-157.7,-269.8,-481.0,-0.2,7.95,-0.07,0.0,1.2225383429569805,2.8343253165436035,0.22454276135625173,0.28,0,6,0.0
9.04998549100037,599,4364.46,-93.0,-1.4,-113.0,-2.42,1.92,-0.88,0.06,-1.19,-0.17,-160.7,-319.9,-490.0,-0.11,9.29,0.21,0.0,1.203577999134248,3.212039850313193,0.20147076918284879,0.28,0,6,0.0
9.057900660000087,600,4364.47,-93.3,-1.2,-112.8,-3.02,1.86,-1.03,0.0,-1.16,-0.18,-164.2,-357.8,-353.0,-0.01,9.99,0.14,0.0,1.173882447266335,3.69335890484529,0.16833971296863703,0.28,0,6,0.0
9.070013174999985,601,4364.48,-93.7,-1.1,-112.6,-3.74,1.83,-1.19,-0.03,-1.24,-0.13,-167.9,-376.3,-228.0,0.08,10.42,0.04,0.0,1.247156766409099,4.330427230655193,0.23678175146917302,0.28,0,6,0.0
9.077913821000038,602,4364.49,-94.1,-1.0,-112.5,-4.34,1.63,-1.54,-0.08,-1.38,0.0,-171.8,-387.1,-103.0,0.19,10.49,-0.18,0.0,1.3823168956501977,4.88508955905621,0.3645030430960663,0.28,1,7,3.0
9.08995976300048,603,4364.5,-94.5,-0.8,-112.3,-4.56,1.3,-2.13,-0.09,-1.58,0.13,-175.6,-378.0,56.0,0.29,10.09,0.06,0.0,1.5878916839633617,5.1981246618371895,0.5586762747810456,0.28,0,7,3.0
9.09782359700057,604,4364.51,-95.0,-0.5,-112.3,-4.48,0.98,-3.14,-0.19,-1.8,0.2,-179.1,-333.1,701.0,0.38,7.04,2.47,3.49,1.8210161998181125,5.557913277481037,0.7759647748230805,0.28,0,7,3.0
9.110200265999993,605,4364.52,-95.4,-0.2,-112.2,-3.81,0.51,-3.83,-0.28,-1.81,0.24,-181.2,-140.5,1630.0,0.41,1.22,2.84,3.49,1.847187050625897,5.426333937383507,0.7860929131182477,0.28,0,7,3.0
9.117729089000022,606,4364.53,-95.7,0.1,-112.2,-1.82,0.21,-3.79,-0.15,-1.64,0.17,-181.3,41.5,1520.0,0.39,-2.59,3.23,3.49,1.6555965692160635,4.2095843025172925,0.582612383074246,0.28,0,7,3.0
9.130047708000347,607,4364.54,-95.7,0.5,-112.2,0.62,0.52,-2.98,0.06,-1.38,0.04,-180.2,125.1,830.0,0.35,-3.7,3.45,3.49,1.381882773609976,3.08791191584216,0.3027206157187954,0.28,0,7,3.0
9.137902616999781,608,4364.55,-95.6,0.7,-112.1,2.46,1.54,-1.85,0.27,-1.14,-0.06,-178.8,136.3,225.0,0.32,-3.38,3.83,3.49,1.173072887761029,3.4417582715815476,0.09203251527245149,0.28,0,7,3.0
9.149880081999981,609,4364.56,-95.3,0.9,-111.9,3.07,3.11,-1.0,0.4,-0.99,-0.12,-177.7,95.5,-287.0,0.29,-1.82,3.56,3.49,1.0744766167767448,4.482967767004354,0.006432480597596157,0.28,0,7,3.0
9.157661048000591,610,4364.57,-95.0,1.0,-111.5,2.69,4.59,-0.48,0.4,-0.87,-0.05,-177.2,40.9,-392.0,0.28,-0.64,3.4,3.49,0.9588534820294495,5.341778729973752,0.11961450303799348,0.28,0,7,3.0
9.170031637000648,611,4364.58,-94.7,1.0,-111.0,2.15,5.66,-0.17,0.38,-0.81,0.09,-177.0,7.4,-311.0,0.28,0.05,3.4,3.49,0.8992218858546538,6.056979445235059,0.17566117722853336,0.28,0,7,3.0
9.177900325000337,612,4364.59,-94.5,1.1,-110.4,1.84,6.36,0.02,0.33,-0.81,0.14,-177.0,-0.5,-105.0,0.28,0.0,3.48,3.49,0.8857764955111419,6.620845867409995,0.18532443622060424,0.28,0,7,3.0
9.189969551000104,613,4364.6,-94.3,1.2,-109.8,1.7,6.62,-0.11,0.21,-0.87,0.15,-177.0,-0.1,-37.0,0.28,0.0,3.49,3.49,0.9074690077352504,6.83567845937768,0.16035928551656575,0.28,0,7,3.0
9.197819977000108,614,4364.61,-94.1,1.2,-109.1,1.97,6.48,-0.4,0.06,-0.88,0.19,-177.0,0.0,-11.0,0.28,0.0,3.49,3.49,0.9022749026765623,6.784637057352442,0.16224232276374873,0.28,0,7,3.0
9.210199191000356,615,4364.62,-93.9,1.3,-108.5,2.18,6.08,-0.52,-0.05,-0.87,0.21,-177.0,0.0,-4.0,0.28,0.0,3.5,3.49,0.8963816151617569,6.4799074067458715,0.16477289807298312,0.28,0,7,3.0
9.217698292000023,616,4364.63,-93.7,1.4,-107.9,1.88,5.61,-0.5,-0.17,-0.89,0.18,-177.0,0.0,-1.0,0.28,0.0,3.5,3.49,0.9237965143904798,5.937718417035284,0.13461083886737502,0.28,0,7,3.0
9.229961295000066,617,4364.64,-93.5,1.5,-107.4,1.69,5.12,-0.35,-0.26,-0.93,0.16,-177.0,0.0,1.0,0.28,0.0,3.51,3.49,0.9788258272031853,5.403054691561062,0.07798989553357605,0.28,0,7,3.0
9.239772066000114,618,4364.65,-93.3,1.5,-106.9,1.83,4.55,-0.12,-0.29,-0.95,0.14,-177.0,0.0,-1.0,0.28,0.0,3.49,3.49,1.0030952098380292,4.9056905732016975,0.05264610264075742,0.28,0,7,3.0
9.249639161000232,619,4364.66,-93.1,1.6,-106.5,2.08,3.94,0.21,-0.26,-0.94,0.11,-177.0,0.0,2.0,0.28,-0.01,3.59,3.49,0.9814784765851974,4.460280260252712,0.07277757917571748,0.28,0,7,3.0
9.257432162999976,620,4364.67,-92.9,1.5,-106.1,2.11,3.42,0.51,-0.21,-0.92,0.07,-177.0,-0.1,-2.0,0.28,0.0,3.59,3.49,0.946255779374689,4.05075301641559,0.10584027085850145,0.28,0,7,3.0
9.270116061999943,621,4364.68,-92.7,1.5,-105.8,1.9,2.98,0.75,-0.16,-0.89,0.05,-177.0,-0.3,-3.0,0.28,0.02,3.59,3.49,0.9056489386070079,3.6128797378268764,0.1435181693936589,0.28,0,7,0.0
9.277891835000446,622,4364.69,-92.5,1.4,-105.5,1.74,2.7,0.87,-0.11,-0.9,0.03,-177.0,-0.8,-4.0,0.28,0.03,3.49,3.49,0.9071934744033381,3.3278371354379708,0.13913416092538222,0.28,0,7,0.0
9.290210395000031,623,4364.7,-92.3,1.3,-105.2,1.85,2.5,0.84,-0.08,-0.9,0.02,-177.1,-14.5,-331.0,0.29,1.57,0.69,0.0,0.9037698822156003,3.2215058590665326,0.13970659805085772,0.28,0,7,0.0
9.297885892000522,624,4364.71,-92.1,1.3,-105.0,1.76,2.41,0.68,-0.09,-0.92,0.01,-178.0,-138.7,-1006.0,0.33,5.32,0.66,0.0,0.9244457799135654,3.06073520579615,0.11665008634583474,0.28,0,7,0.0
9.309932361000392,625,4364.72,-91.9,1.2,-104.8,1.55,2.04,0.49,-0.16,-0.88,0.09,-180.2,-248.4,-962.0,0.4,7.79,0.48,0.0,0.898943824718764,2.6084861510078983,0.13930900070982344,0.28,0,7,0.0
9.317925764999927,626,4364.73,-91.8,1.2,-104.6,1.27,1.46,0.42,-0.14,-0.8,0.09,-183.2,-318.6,-702.0,0.49,9.25,0.22,0.0,0.817129120763665,1.9801262586006982,0.21670123057162394,0.28,0,7,0.0
9.32983910800067,627,4364.74,-91.7,1.1,-104.5,0.72,0.86,0.49,-0.12,-0.79,0.07,-186.7,-358.2,-454.0,0.59,10.09,0.13,0.0,0.8021221852062191,1.223968953854631,0.22707400280648826,0.28,0,7,0.0
9.337868479000463,628,4364.75,-91.6,1.1,-104.4,-0.21,0.37,0.64,-0.07,-0.79,0.02,-190.4,-380.2,-254.0,0.7,10.45,0.04,0.0,0.7933473388119482,0.768505042273634,0.23113187221674403,0.28,0,7,0.0
9.350003786999878,629,4364.76,-91.7,1.0,-104.4,-0.96,0.12,0.76,-0.03,-0.85,-0.02,-194.3,-384.8,-93.0,0.8,10.45,0.03,0.0,0.850764362206128,1.2302845199383758,0.17024055184611298,0.28,0,7,0.0
9.35796880199996,630,4364.77,-91.8,0.9,-104.4,-1.38,0.04,0.93,-0.01,-0.91,-0.06,-198.1,-379.8,40.0,0.9,10.12,-0.01,0.0,0.9120307012376283,1.6646020545463711,0.1067947285583204,0.28,0,7,0.0
9.369996763000017,631,4364.78,-92.0,0.8,-104.4,-1.52,0.02,1.09,0.0,-0.98,-0.08,-201.7,-353.8,230.0,1.0,9.17,-0.03,0.0,0.9832598842625483,1.870534682918229,0.034854234622732405,0.28,0,7,0.0
9.377896949000387,632,4364.79,-92.2,0.6,-104.4,-1.24,0.03,1.22,0.03,-1.01,-0.1,-205.0,-320.4,280.0,1.08,8.36,-0.02,0.0,1.0153817016275208,1.739798838946618,0.002677768912604739,0.28,0,7,0.0
9.389988855999945,633,4364.8,-92.3,0.5,-104.3,-0.68,0.2,1.26,0.05,-1.02,-0.14,-208.0,-288.8,322.0,1.16,7.4,-0.05,0.0,1.0307764064044151,1.445683229480096,0.012462597147003818,0.28,0,7,0.0
