host_time_s,seq,device_time_s,roll,pitch,yaw,gyro_x,gyro_y,gyro_z,accel_x,accel_y,accel_z,belt_length,belt_velocity,belt_acceleration,motor_pos,motor_vel,motor_iq_meas,motor_iq_set,acc_mag,gyro_mag,gyro_corrected,gyro_side_score,gyro_side_separation,dynamic_refractory_s,step_period_s,gait_cycle_s,cadence_spm,gait_speed_ratio,assist_pulse_s,acc_residual,threshold,gyro_threshold,belt_threshold,belt_ok,belt_ready,calibrated,imu_side,imu_heel_strike,heel_strike,hs_count,left_hs_count,right_hs_count,torque_cmd_nm
0.0047945610003807815,2,35.63,95.2,6.4,2.2,1.5,1.38,-0.13,0.15,1.04,-0.11,-122.1,-93.1,58.0,-1.18,2.27,-0.04,0.0,1.0565036677645754,2.0423760672314977,0.0,0.0,2.0,0.45,0.6,1.2,100.0,1.0,0.18,0.0,0.2,1.0,-160.0,0,1,0,calibrating,0,0,0,0,0,0.0
0.011770225999498507,3,35.64,95.3,6.4,2.1,1.44,1.28,-0.03,0.13,1.07,-0.1,-123.3,-87.1,-10.0,-1.15,2.48,-0.09,0.0,1.0824971131601229,1.9268886838631856,0.0,0.0,2.0,0.45,0.6,1.2,100.0,1.0,0.18,0.025473576487636596,0.2,1.0,-160.0,0,1,0,calibrating,0,0,0,0,0,0.0
0.019549417998860008,4,35.65,95.4,6.4,1.9,1.33,1.27,0.07,0.11,1.09,-0.08,-124.2,-98.4,-76.0,-1.13,2.79,-0.03,0.0,1.098453458276681,1.8402988887678002,0.0,0.0,2.0,0.45,0.6,1.2,100.0,1.0,0.18,0.04060132317211074,0.2,1.0,-160.0,0,1,0,calibrating,0,0,0,0,0,0.0
0.03154575000007753,5,35.66,95.5,6.4,1.8,1.08,1.26,0.17,0.11,1.12,-0.06,-125.3,-109.1,-101.0,-1.1,3.11,0.03,0.0,1.1269871339105875,1.6682026255823963,0.0,0.0,2.0,0.45,0.6,1.2,100.0,1.0,0.18,0.06775229882989686,0.2,1.0,-160.0,0,1,0,calibrating,0,0,0,0,0,0.0
0.03956450300029246,6,35.67,95.6,6.5,1.7,0.91,1.24,0.33,0.11,1.14,-0.02,-126.5,-121.4,-118.0,-1.06,3.46,0.02,0.0,1.145469336123844,1.5730861387730808,0.0,0.0,2.0,0.45,0.6,1.2,100.0,1.0,0.18,0.08450981102229016,0.2,1.0,-160.0,0,1,0,calibrating,0,0,0,0,0,0.0
0.051683331999811344,7,35.68,95.6,6.5,1.6,0.77,1.08,0.52,0.1,1.11,-0.02,-127.8,-132.7,-106.0,-1.02,3.73,0.03,0.0,1.1146748404803977,1.42467540162663,0.0,0.0,2.0,0.45,0.6,1.2,100.0,1.0,0.18,0.05264100907126701,0.2,1.0,-160.0,0,1,0,calibrating,0,0,0,0,0,0.0
0.05976056899999094,8,35.69,95.6,6.6,1.5,0.69,0.95,0.61,0.08,1.06,-0.01,-129.2,-141.6,-98.0,-0.99,3.97,0.0,0.0,1.0630616162763098,1.3231402042111786,0.0,0.0,2.0,0.45,0.6,1.2,100.0,1.0,0.18,0.001007229169835533,0.2,1.0,-160.0,0,1,0,calibrating,0,0,0,0,0,0.0
0.0719294609989447,9,35.7,95.6,6.6,1.4,0.7,0.82,0.58,0.07,1.02,-0.02,-130.7,-152.0,-107.0,-0.94,4.29,0.01,0.0,1.0225947388873071,1.2242548754242313,0.0,0.0,2.0,0.45,0.6,1.2,100.0,1.0,0.18,0.03867045525478363,0.2,1.0,-160.0,0,1,0,calibrating,0,0,0,0,0,0.0
0.07986049999999523,10,35.71,95.7,6.7,1.3,0.77,0.77,0.58,0.09,1.01,-0.03,-132.3,-163.3,-117.0,-0.9,4.61,-0.06,0.0,1.0144456614328832,1.233774695801466,0.0,0.0,2.0,0.45,0.6,1.2,100.0,1.0,0.18,0.04588314205502364,0.2,1.0,-160.0,0,1,0,calibrating,0,0,0,0,0,0.0
0.09164750299896696,11,35.72,95.7,6.7,1.2,0.9,0.75,0.6,0.11,1.01,-0.03,-134.0,-175.4,-125.0,-0.85,4.96,-0.03,0.0,1.0164152694642086,1.3162446581088183,0.0,0.0,2.0,0.45,0.6,1.2,100.0,1.0,0.18,0.04303526334322427,0.2,1.0,-160.0,0,1,0,calibrating,0,0,0,0,0,0.0
0.09944358000029752,12,35.73,95.7,6.8,1.2,0.95,0.87,0.58,0.13,1.0,-0.03,-135.8,-187.8,-121.0,-0.8,5.27,-0.06,0.0,1.008860743611327,1.4127278577277367,0.0,0.0,2.0,0.45,0.6,1.2,100.0,1.0,0.18,0.049577993412183385,0.2,1.0,-160.0,0,1,0,calibrating,0,0,0,0,0,0.0
0.11167880599896307,13,35.74,95.8,6.9,1.1,0.98,1.11,0.48,0.16,1.01,-0.04,-137.8,-198.1,-103.0,-0.74,5.5,0.09,0.0,1.023376763464952,1.5565667348366403,0.0,0.0,2.0,0.45,0.6,1.2,100.0,1.0,0.18,0.03436073408738771,0.2,1.0,-160.0,0,1,0,calibrating,0,0,0,0,0,0.0
0.1196961410005315,14,35.75,95.8,7.0,0.9,0.9,1.45,0.37,0.19,1.02,-0.04,-140.0,-208.0,-99.0,-0.68,5.76,0.02,0.0,1.038315944209661,1.7462531317080006,0.0,0.0,2.0,0.45,0.6,1.2,100.0,1.0,0.18,0.019033122275824876,0.2,1.0,-160.0,0,1,0,calibrating,0,0,0,0,0,0.0
0.13170669999999518,15,35.76,95.9,7.0,0.8,0.73,1.81,0.23,0.19,1.02,-0.01,-142.1,-216.9,-86.0,-0.63,5.98,0.07,0.0,1.0375933692926145,1.9651717482194782,0.0,0.0,2.0,0.45,0.6,1.2,100.0,1.0,0.18,0.01936058324901402,0.2,1.0,-160.0,0,1,0,calibrating,0,0,0,0,0,0.0
0.13965938199908123,16,35.77,95.9,7.1,0.6,0.52,2.18,0.08,0.19,1.03,0.0,-144.4,-222.2,-49.0,-0.57,6.05,0.0,0.0,1.047377677822093,2.2425877909236913,0.0,0.0,2.0,0.45,0.6,1.2,100.0,1.0,0.18,0.009384749225144873,0.2,1.0,-160.0,0,1,0,calibrating,0,0,0,0,0,0.0
0.1516749130005337,17,35.78,95.9,7.1,0.3,0.34,2.46,-0.01,0.18,1.05,0.01,-146.6,-220.6,12.0,-0.51,5.92,0.08,0.0,1.065363787633126,2.4834049206683955,0.0,0.0,2.0,0.45,0.6,1.2,100.0,1.0,0.18,0.00842933337417029,0.2,1.0,-160.0,0,1,0,calibrating,0,0,0,0,0,0.0
0.159654158000194,18,35.79,95.9,7.1,0.1,0.12,2.69,-0.11,0.18,1.05,0.03,-148.7,-214.4,45.0,-0.45,5.75,-0.01,0.0,1.0657391800998965,2.6949211491247755,0.0,0.0,2.0,0.45,0.6,1.2,100.0,1.0,0.18,0.008628631324122393,0.2,1.0,-160.0,0,1,0,calibrating,0,0,0,0,0,0.0
0.17197469100028684,19,35.8,95.9,7.1,-0.1,-0.05,2.88,-0.21,0.16,1.04,0.03,-150.8,-207.3,71.0,-0.39,5.51,0.04,0.0,1.0526632889960588,2.8880789462893843,0.0,0.0,2.0,0.45,0.6,1.2,100.0,1.0,0.18,0.004358314584121281,0.2,1.0,-160.0,0,1,0,calibrating,0,0,0,0,0,0.0
0.17964385000050243,20,35.81,95.8,7.1,-0.4,-0.21,3.01,-0.35,0.13,1.02,0.04,-152.8,-197.0,100.0,-0.34,5.2,0.0,0.0,1.0290286682109493,3.0375483535245986,0.0,0.0,2.0,0.45,0.6,1.2,100.0,1.0,0.18,0.027433076661846245,0.2,1.0,-160.0,0,1,0,calibrating,0,0,0,0,0,0.0
0.1915817449989845,21,35.82,95.8,7.1,-0.7,-0.28,3.06,-0.51,0.1,1.0,0.05,-154.5,-184.9,125.0,-0.29,4.85,0.0,0.0,1.0062305898749053,3.1148194169164927,0.0,0.0,2.0,0.45,0.6,1.2,100.0,1.0,0.18,0.04922653189793236,0.2,1.0,-160.0,0,1,0,calibrating,0,0,0,0,0,0.0
0.1994405799996457,22,35.83,95.7,7.1,-1.0,-0.41,3.09,-0.68,0.07,1.0,0.05,-156.3,-170.6,139.0,-0.25,4.45,-0.03,0.0,1.0036931802099682,3.190391825465957,0.0,0.0,2.0,0.45,0.6,1.2,100.0,1.0,0.18,0.05072866273161192,0.2,1.0,-160.0,0,1,0,calibrating,0,0,0,0,0,0.0
0.21171467400017718,23,35.84,95.6,7.0,-1.4,-0.64,3.12,-0.84,0.04,0.98,0.05,-157.9,-158.1,119.0,-0.2,4.17,-0.09,0.0,0.982089608946149,3.293873100166429,0.0,0.0,2.0,0.45,0.6,1.2,100.0,1.0,0.18,0.07088558931552269,0.2,1.0,-160.0,0,1,0,calibrating,0,0,0,0,0,0.0
0.21978562000003876,24,35.85,95.5,7.0,-1.7,-0.87,3.14,-0.93,0.01,0.97,0.06,-159.4,-146.0,122.0,-0.17,3.82,0.04,0.0,0.9719053451854249,3.388421461388769,0.0,0.0,2.0,0.45,0.6,1.2,100.0,1.0,0.18,0.07944845601472195,0.2,1.0,-160.0,0,1,0,calibrating,0,0,0,0,0,0.0
0.23149284799910674,25,35.86,95.3,6.9,-2.0,-1.04,3.15,-0.96,0.0,0.95,0.05,-160.8,-134.6,116.0,-0.13,3.51,-0.13,0.0,0.9513148795220223,3.453360682002388,0.0,0.0,2.0,0.45,0.6,1.2,100.0,1.0,0.18,0.09803814324456206,0.2,1.0,-160.0,0,1,0,calibrating,0,0,0,0,0,0.0
0.23971422199974768,26,35.87,95.2,6.8,-2.3,-1.14,3.14,-0.95,0.0,0.94,0.05,-162.0,-122.5,116.0,-0.1,3.2,0.07,0.0,0.9413288479590965,3.472995824932705,0.0,0.0,2.0,0.45,0.6,1.2,100.0,1.0,0.18,0.1058636913113381,0.2,1.0,-160.0,0,1,0,calibrating,0,0,0,0,0,0.0
0.2522072659994592,27,35.88,95.0,6.8,-2.7,-1.16,3.1,-0.89,-0.01,0.93,0.04,-163.2,-110.6,123.0,-0.07,2.84,-0.1,0.0,0.9309135298189624,3.4274917943008996,0.0,0.0,2.0,0.45,0.6,1.2,100.0,1.0,0.18,0.1139534292624429,0.2,1.0,-160.0,0,1,0,calibrating,0,0,0,0,0,0.0
0.2594842679991416,28,35.89,94.9,6.7,-3.0,-1.12,3.05,-0.83,-0.01,0.94,0.04,-164.2,-98.0,122.0,-0.04,2.52,0.12,0.0,0.9409038208021051,3.353475808769164,0.0,0.0,2.0,0.45,0.6,1.2,100.0,1.0,0.18,0.10188387551371425,0.2,1.0,-160.0,0,1,0,calibrating,0,0,0,0,0,0.0
0.2719396020002023,29,35.9,94.7,6.7,-3.3,-1.05,3.0,-0.77,0.0,0.94,0.03,-165.1,-85.5,124.0,-0.02,2.17,0.08,0.0,0.9404786015641184,3.2703822406562812,0.0,0.0,2.0,0.45,0.6,1.2,100.0,1.0,0.18,0.100262912856667,0.2,1.0,-160.0,0,1,0,calibrating,0,0,0,0,0,0.0
0.27972716399926867,30,35.91,94.6,6.6,-3.6,-0.94,2.92,-0.74,0.01,0.95,0.02,-165.9,-73.3,121.0,0.0,1.84,-0.14,0.0,0.9502631214563679,3.155566510153129,0.0,0.0,2.0,0.45,0.6,1.2,100.0,1.0,0.18,0.08866882510512908,0.2,1.0,-160.0,0,1,0,calibrating,0,0,0,0,0,0.0
0.2916655720000563,31,35.92,94.5,6.6,-3.9,-0.78,2.88,-0.72,0.03,0.96,0.01,-166.5,-60.3,134.0,0.01,1.45,-0.23,0.0,0.9605206921248495,3.0693973349828787,0.0,0.0,2.0,0.45,0.6,1.2,100.0,1.0,0.18,0.07684302934791454,0.2,1.0,-160.0,0,1,0,calibrating,0,0,0,0,0,0.0
0.29947550100041553,32,35.93,94.4,6.5,-4.2,-0.65,2.86,-0.76,0.05,0.97,0.0,-167.0,-44.2,163.0,0.02,0.96,-0.21,0.0,0.9712878049270462,3.029801973726996,0.0,0.0,2.0,0.45,0.6,1.2,100.0,1.0,0.18,0.06475439821480344,0.2,1.0,-160.0,0,1,0,calibrating,0,0,0,0,0,0.0
0.31169232100000954,33,35.94,94.2,6.4,-4.5,-0.51,2.89,-0.84,0.07,0.98,0.0,-167.3,-24.4,184.0,0.02,0.43,0.04,0.0,0.9824968193332739,3.052507166248754,0.0,0.0,2.0,0.45,0.6,1.2,100.0,1.0,0.18,0.0524744761324043,0.2,1.0,-160.0,0,1,0,calibrating,0,0,0,0,0,0.0
0.31982252299894753,34,35.95,94.1,6.3,-4.8,-0.41,2.92,-0.93,0.08,0.99,0.0,-167.4,-7.2,171.0,0.03,0.0,-0.17,0.0,0.9932270636667125,3.0918279382915212,0.0,0.0,2.0,0.45,0.6,1.2,100.0,1.0,0.18,0.04090934716298633,0.2,1.0,-160.0,0,1,0,calibrating,0,0,0,0,0,0.0
0.3316677279999567,35,35.96,94.0,6.2,-5.1,-0.37,2.95,-1.03,0.07,0.99,-0.01,-167.4,3.8,96.0,0.02,-0.12,-0.08,0.0,0.9925220400575495,3.1464742172787625,0.0,0.0,2.0,0.45,0.6,1.2,100.0,1.0,0.18,0.04078208335670641,0.2,1.0,-160.0,0,1,0,calibrating,0,0,0,0,0,0.0
0.33959294499982207,36,35.97,93.9,6.1,-5.4,-0.27,2.99,-1.1,0.06,0.99,-0.01,-167.4,5.8,47.0,0.02,-0.19,-0.05,0.0,0.9918669265581951,3.1973426466364225,0.0,0.0,2.0,0.45,0.6,1.2,100.0,1.0,0.18,0.04060845291893955,0.2,1.0,-160.0,0,1,0,calibrating,0,0,0,0,0,0.0
0.351594452999052,37,35.98,93.8,6.0,-5.7,-0.12,3.03,-1.15,0.05,1.0,-0.02,-167.3,12.0,82.0,0.02,-0.48,-0.04,0.0,1.0014489502715553,3.2431157857837882,0.0,0.0,2.0,0.45,0.6,1.2,100.0,1.0,0.18,0.03040590062146764,0.2,1.0,-160.0,0,1,0,calibrating,0,0,0,0,0,0.0
0.359663608000119,38,35.99,93.8,5.9,-6.0,-0.04,3.03,-1.16,0.03,1.01,-0.03,-167.1,25.8,125.0,0.01,-0.88,0.16,0.0,1.0108906963663282,3.2447033762733994,0.0,0.0,2.0,0.45,0.6,1.2,100.0,1.0,0.18,0.020544871436160905,0.2,1.0,-160.0,0,1,0,calibrating,0,0,0,0,0,0.0
0.3719474009994883,39,36.0,93.7,5.7,-6.3,-0.02,2.97,-1.16,0.02,1.03,-0.04,-166.8,37.8,179.0,0.0,-1.3,-0.04,0.0,1.030970416646375,3.1885576676610383,0.0,0.0,2.0,0.45,0.6,1.2,100.0,1.0,0.18,0.0004558481329919317,0.2,1.0,-160.0,0,1,0,calibrating,0,0,0,0,0,0.0
0.37983344299937016,40,36.01,93.7,5.6,-6.6,-0.08,2.89,-1.15,0.01,1.04,-0.05,-166.2,58.8,187.0,-0.01,-1.82,-0.04,0.0,1.0412492496996097,3.1114305391571895,0.0,0.0,2.0,0.45,0.6,1.2,100.0,1.0,0.18,0.009626525221838156,0.2,1.0,-160.0,0,1,0,calibrating,0,0,0,0,0,0.0
0.3916747849998501,41,36.02,93.6,5.4,-6.9,-0.19,2.8,-1.12,0.0,1.04,-0.05,-165.5,76.8,182.0,-0.03,-2.31,-0.1,0.0,1.0412012293500235,3.021671722738921,0.0,0.0,2.0,0.45,0.6,1.2,100.0,1.0,0.18,0.009386934774806788,0.2,1.0,-160.0,0,1,0,calibrating,0,0,0,0,0,0.0
0.39973169199947733,42,36.03,93.6,5.3,-7.2,-0.25,2.67,-1.09,0.01,1.02,-0.05,-164.6,96.6,204.0,-0.06,-2.91,-0.03,0.0,1.0212737145349429,2.8947366028708035,0.0,0.0,2.0,0.45,0.6,1.2,100.0,1.0,0.18,0.010329768439468312,0.2,1.0,-160.0,0,1,0,calibrating,0,0,0,0,0,0.0
0.41173829400031536,43,36.04,93.5,5.2,-7.5,-0.25,2.57,-1.07,0.02,1.0,-0.06,-163.4,119.2,214.0,-0.09,-3.5,-0.06,0.0,1.0019980039900278,2.7950491945581204,0.0,0.0,2.0,0.45,0.6,1.2,100.0,1.0,0.18,0.029013369404695677,0.2,1.0,-160.0,0,1,0,calibrating,0,0,0,0,0,0.0
0.419495456999357,44,36.05,93.5,5.0,-7.7,-0.19,2.47,-1.04,0.04,0.99,-0.05,-162.1,141.7,226.0,-0.13,-4.13,-0.03,0.0,0.9920685460188726,2.686745242854261,0.0,0.0,2.0,0.45,0.6,1.2,100.0,1.0,0.18,0.03816397082833378,0.2,1.0,-160.0,0,1,0,calibrating,0,0,0,0,0,0.0
0.4316691259991785,45,36.06,93.4,4.9,-8.0,-0.13,2.35,-1.02,0.05,0.98,-0.05,-160.7,161.9,224.0,-0.18,-4.79,-0.1,0.0,0.98254770876533,2.5651120833211167,0.0,0.0,2.0,0.45,0.6,1.2,100.0,1.0,0.18,0.04673111192023893,0.2,1.0,-160.0,0,1,0,calibrating,0,0,0,0,0,0.0
0.43971919199975673,46,36.07,93.4,4.8,-8.2,-0.07,2.3,-1.0,0.05,0.97,-0.05,-158.9,184.1,215.0,-0.23,-5.37,-0.14,0.0,0.9725739046468396,2.508963929593249,0.0,0.0,2.0,0.45,0.6,1.2,100.0,1.0,0.18,0.05557081771795469,0.2,1.0,-160.0,0,1,0,calibrating,0,0,0,0,0,0.0
0.4516864019988134,47,36.08,93.4,4.7,-8.5,-0.06,2.24,-0.98,0.05,0.97,-0.05,-156.7,207.7,226.0,-0.29,-5.97,-0.05,0.0,0.9725739046468396,2.4457309745759037,0.0,0.0,2.0,0.45,0.6,1.2,100.0,1.0,0.18,0.054459401363595616,0.2,1.0,-160.0,0,1,0,calibrating,0,0,0,0,0,0.0
0.45957882099901326,48,36.09,93.3,4.6,-8.7,-0.02,2.16,-0.95,0.03,0.96,-0.06,-154.5,229.3,217.0,-0.35,-6.49,-0.02,0.0,0.9623408959407265,2.3597669376444785,0.0,0.0,2.0,0.45,0.6,1.2,100.0,1.0,0.18,0.06339856186831472,0.2,1.0,-160.0,0,1,0,calibrating,0,0,0,0,0,0.0
0.4719504650001909,49,36.1,93.3,4.5,-8.9,0.02,2.05,-0.94,0.01,0.96,-0.07,-152.0,249.5,203.0,-0.41,-7.01,-0.12,0.0,0.9626006440887104,2.255327027284513,0.0,0.0,2.0,0.45,0.6,1.2,100.0,1.0,0.18,0.06187603744592407,0.2,1.0,-160.0,0,1,0,calibrating,0,0,0,0,0,0.0
0.479793217000406,50,36.11,93.3,4.4,-9.1,0.0,1.97,-0.93,0.0,0.98,-0.08,-149.4,268.2,191.0,-0.49,-7.52,0.02,0.0,0.9832598842625483,2.1784857125994654,0.0,0.0,2.0,0.45,0.6,1.2,100.0,1.0,0.18,0.040392461326644535,0.2,1.0,-160.0,0,1,0,calibrating,0,0,0,0,0,0.0
0.491651420999915,51,36.12,93.3,4.3,-9.3,-0.11,1.86,-0.92,-0.01,0.98,-0.08,-146.6,288.1,202.0,-0.57,-8.09,-0.08,0.0,0.9833107342035883,2.078003849852064,0.0,0.0,2.0,0.45,0.6,1.2,100.0,1.0,0.18,0.039534779157892386,0.2,1.0,-160.0,0,1,0,calibrating,0,0,0,0,0,0.0
0.4997105789989291,52,36.13,93.3,4.1,-9.5,-0.25,1.8,-0.93,-0.02,0.97,-0.09,-143.6,306.1,163.0,-0.65,-8.46,0.07,0.0,0.9743715923609432,2.041421073664128,0.0,0.0,2.0,0.45,0.6,1.2,100.0,1.0,0.18,0.04750444258052677,0.2,1.0,-160.0,0,1,0,calibrating,0,0,0,0,0,0.0
0.5116471259989339,53,36.14,93.3,4.0,-9.7,-0.39,1.68,-0.93,-0.02,0.98,-0.1,-140.5,315.3,105.0,-0.74,-8.66,0.0,0.0,0.985291834940288,1.9594386951369516,0.0,0.0,2.0,0.45,0.6,1.2,100.0,1.0,0.18,0.03585251600115835,0.2,1.0,-160.0,0,1,0,calibrating,0,0,0,0,0,0.0
0.5196979849988566,54,36.15,93.2,3.9,-9.9,-0.49,1.6,-0.89,-0.02,0.99,-0.1,-137.2,324.4,105.0,-0.83,-8.95,0.11,0.0,0.995238664843765,1.8953100010288555,0.0,0.0,2.0,0.45,0.6,1.2,100.0,1.0,0.18,0.02538757237572775,0.2,1.0,-160.0,0,1,0,calibrating,0,0,0,0,0,0.0
0.5316930320004758,55,36.16,93.2,3.8,-10.0,-0.65,1.55,-0.82,-0.02,1.0,-0.1,-133.9,332.3,56.0,-0.92,-9.01,-0.08,0.0,1.005186549850325,1.870133685061044,0.0,0.0,2.0,0.45,0.6,1.2,100.0,1.0,0.18,0.015130893621784436,0.2,1.0,-160.0,0,1,0,calibrating,0,0,0,0,0,0.0
0.5397704449987941,56,36.17,93.1,3.7,-10.2,-0.85,1.5,-0.68,-0.01,1.0,-0.1,-130.6,326.6,-33.0,-1.0,-8.78,0.04,0.0,1.0050373127401788,1.8533483212823219,0.0,0.0,2.0,0.45,0.6,1.2,100.0,1.0,0.18,0.014974528117291941,0.2,1.0,-160.0,0,1,0,calibrating,0,0,0,0,0,0.0
0.5515672050005378,57,36.18,93.0,3.6,-10.3,-1.05,1.42,-0.54,-0.01,1.0,-0.1,-127.4,319.7,-49.0,-1.09,-8.62,0.02,0.0,1.0050373127401788,1.8467539088898661,0.0,0.0,2.0,0.45,0.6,1.2,100.0,1.0,0.18,0.014675037554946035,0.2,1.0,-160.0,0,1,0,calibrating,0,0,0,0,0,0.0
0.5596632399992814,58,36.19,92.9,3.5,-10.5,-1.2,1.34,-0.4,0.0,0.99,-0.09,-124.3,310.2,-107.0,-1.18,-8.23,0.2,0.0,0.9940824915468535,1.8427153876819937,0.0,0.0,2.0,0.45,0.6,1.2,100.0,1.0,0.18,0.02511726157330607,0.2,1.0,-160.0,0,1,0,calibrating,0,0,0,0,0,0.0
0.5719990359993972,59,36.2,92.8,3.4,-10.6,-1.23,1.22,-0.27,0.0,0.98,-0.08,-121.3,290.0,-185.0,-1.25,-7.59,0.11,0.0,0.9832598842625483,1.7533396704574957,0.0,0.0,2.0,0.45,0.6,1.2,100.0,1.0,0.18,0.03522107148045894,0.2,1.0,-160.0,0,1,0,calibrating,0,0,0,0,0,0.0
0.5794751369994628,60,36.21,92.7,3.4,-10.7,-1.22,1.09,-0.16,0.0,0.97,-0.08,-118.6,266.1,-221.0,-1.32,-6.94,-0.03,0.0,0.9732933781753578,1.643806557962341,0.0,0.0,2.0,0.45,0.6,1.2,100.0,1.0,0.18,0.044283826016296435,0.2,1.0,-160.0,0,1,0,calibrating,0,0,0,0,0,0.0
0.5916984759987827,61,36.22,92.6,3.4,-10.8,-1.19,0.95,-0.06,0.0,0.98,-0.08,-116.1,241.4,-242.0,-1.39,-6.24,0.17,0.0,0.9832598842625483,1.523876635426897,0.0,0.0,2.0,0.45,0.6,1.2,100.0,1.0,0.18,0.03363097353052369,0.2,1.0,-160.0,0,1,0,calibrating,0,0,0,0,0,0.0
0.5995532180004375,62,36.23,92.5,3.3,-10.9,-1.19,0.8,0.03,0.0,0.99,-0.07,-113.9,213.6,-265.0,-1.45,-5.48,0.24,0.0,0.9924716620639604,1.4342245291445828,0.0,0.0,2.0,0.45,0.6,1.2,100.0,1.0,0.18,0.023930811814529385,0.2,1.0,-160.0,0,1,0,calibrating,0,0,0,0,0,0.0
0.6116247879999719,63,36.24,92.4,3.3,-11.0,-1.22,0.66,0.14,0.0,0.99,-0.07,-111.9,189.4,-234.0,-1.5,-4.91,0.15,0.0,0.9924716620639604,1.3941305534274757,0.0,0.0,2.0,0.45,0.6,1.2,100.0,1.0,0.18,0.023452195578238744,0.2,1.0,-160.0,0,1,0,calibrating,0,0,0,0,0,0.0
0.6195653949998814,64,36.25,92.3,3.3,-11.0,-1.23,0.51,0.24,0.0,0.98,-0.07,-110.1,170.4,-193.0,-1.54,-4.44,0.18,0.0,0.9824968193332739,1.3529966740535617,0.0,0.0,2.0,0.45,0.6,1.2,100.0,1.0,0.18,0.032758497542746845,0.2,1.0,-160.0,0,1,0,calibrating,0,0,0,0,0,0.0
0.6317320149992156,65,36.26,92.2,3.3,-11.1,-1.16,0.35,0.35,0.0,0.97,-0.07,-108.6,155.1,-159.0,-1.58,-4.05,0.27,0.0,0.9725224933131367,1.2611899143269423,0.0,0.0,2.0,0.45,0.6,1.2,100.0,1.0,0.18,0.041878167091626395,0.2,1.0,-160.0,0,1,0,calibrating,0,0,0,0,0,0.0
0.6395902179992845,66,36.27,92.1,3.3,-11.1,-1.07,0.18,0.44,0.0,0.96,-0.07,-107.1,142.9,-129.0,-1.62,-3.75,-0.17,0.0,0.9625487000666512,1.1708543888972702,0.0,0.0,2.0,0.45,0.6,1.2,100.0,1.0,0.18,0.050814921131349666,0.2,1.0,-160.0,0,1,0,calibrating,0,0,0,0,0,0.0
0.6515867059988523,67,36.28,92.0,3.3,-11.1,-1.0,0.03,0.54,0.0,0.96,-0.07,-105.7,132.1,-112.0,-1.66,-3.47,0.27,0.0,0.9625487000666512,1.1368817000902072,0.0,0.0,2.0,0.45,0.6,1.2,100.0,1.0,0.18,0.049798622708722706,0.2,1.0,-160.0,0,1,0,calibrating,0,0,0,0,0,0.0
0.6596569069988618,68,36.29,91.9,3.3,-11.1,-1.0,-0.11,0.66,0.0,0.96,-0.07,-104.5,123.3,-90.0,-1.69,-3.26,0.09,0.0,0.9625487000666512,1.2032040558442278,0.0,0.0,2.0,0.45,0.6,1.2,100.0,1.0,0.18,0.04880265025454833,0.2,1.0,-160.0,0,1,0,calibrating,0,0,0,0,0,0.0
0.6719112689988833,69,36.3,91.9,3.4,-11.0,-1.08,-0.32,0.77,0.0,0.96,-0.07,-103.3,118.0,-54.0,-1.72,-3.17,-0.05,0.0,0.9625487000666512,1.36444127759314,0.0,0.0,2.0,0.45,0.6,1.2,100.0,1.0,0.18,0.04782659724945726,0.2,1.0,-160.0,0,1,0,calibrating,0,0,0,0,0,0.0
0.6796277889989142,70,36.31,91.8,3.4,-11.0,-1.09,-0.55,0.84,0.0,0.95,-0.07,-102.1,117.0,-15.0,-1.76,-3.2,-0.19,0.0,0.9525754563287887,1.4819581640518737,0.0,0.0,2.0,0.45,0.6,1.2,100.0,1.0,0.18,0.0566438441675734,0.2,1.0,-160.0,0,1,0,calibrating,0,0,0,0,0,0.0
0.6916978909994214,71,36.32,91.7,3.5,-10.9,-1.01,-0.77,0.89,0.0,0.95,-0.07,-100.9,120.9,34.0,-1.79,-3.37,-0.11,0.0,0.9525754563287887,1.5508384828859516,0.0,0.0,2.0,0.45,0.6,1.2,100.0,1.0,0.18,0.055510967284222,0.2,1.0,-160.0,0,1,0,calibrating,0,0,0,0,0,0.0
0.6996735880002234,72,36.33,91.7,3.5,-10.8,-0.97,-0.94,0.93,0.0,0.95,-0.07,-99.7,128.2,63.0,-1.82,-3.58,-0.26,0.0,0.9525754563287887,1.6399390232566575,0.0,0.0,2.0,0.45,0.6,1.2,100.0,1.0,0.18,0.05440074793853755,0.2,1.0,-160.0,0,1,0,calibrating,0,0,0,0,0,0.0
0.7117744269999093,73,36.34,91.6,3.6,-10.7,-0.91,-1.1,0.98,0.0,0.94,-0.07,-98.3,137.5,85.0,-1.86,-3.86,-0.19,0.0,0.9426027795418386,1.7316177407268614,0.0,0.0,2.0,0.45,0.6,1.2,100.0,1.0,0.18,0.06308595623097801,0.2,1.0,-160.0,0,1,0,calibrating,0,0,0,0,0,0.0
0.7198408799995377,74,36.35,91.5,3.7,-10.6,-0.84,-1.28,1.04,0.0,0.92,-0.07,-96.9,146.1,75.0,-1.9,-4.04,-0.03,0.0,0.9226592003551474,1.8508376482014839,0.0,0.0,2.0,0.45,0.6,1.2,100.0,1.0,0.18,0.08136894470931588,0.2,1.0,-160.0,0,1,0,calibrating,0,0,0,0,0,0.0
0.7316916649997438,75,36.36,91.5,3.7,-10.5,-0.6,-1.49,1.11,0.0,0.9,-0.08,-95.4,151.0,49.0,-1.94,-4.14,0.06,0.0,0.9035485598461214,1.9524855953373894,0.0,0.0,2.0,0.45,0.6,1.2,100.0,1.0,0.18,0.09846999351397512,0.2,1.0,-160.0,0,1,0,calibrating,0,0,0,0,0,0.0
0.739493835999383,76,36.37,91.5,3.8,-10.3,-0.3,-1.73,1.19,0.0,0.9,-0.07,-93.9,150.7,-5.0,-1.98,-4.03,0.01,0.0,0.9027181176868004,2.1210846282032216,0.0,0.0,2.0,0.45,0.6,1.2,100.0,1.0,0.18,0.09731442695983006,0.2,1.0,-160.0,0,1,0,calibrating,0,0,0,0,0,0.0
0.7517285060002905,77,36.38,91.5,3.9,-10.1,-0.04,-1.95,1.27,0.0,0.9,-0.08,-92.4,141.5,-89.0,-2.02,-3.65,-0.05,0.0,0.9035485598461214,2.3274449510138795,0.0,0.0,2.0,0.45,0.6,1.2,100.0,1.0,0.18,0.09455430510449891,0.2,1.0,-160.0,0,1,0,calibrating,0,0,0,0,0,0.0
0.7597781479998957,78,36.39,91.6,4.0,-9.9,0.15,-2.11,1.34,0.0,0.9,-0.09,-91.1,121.2,-193.0,-2.05,-2.94,-0.07,0.0,0.9044888059008801,2.5040367409445095,0.0,0.0,2.0,0.45,0.6,1.2,100.0,1.0,0.18,0.09174177786874538,0.2,1.0,-160.0,0,1,0,calibrating,0,0,0,0,0,0.0
0.7717219160003879,79,36.4,91.6,4.1,-9.7,0.33,-2.28,1.41,0.0,0.91,-0.11,-90.1,87.9,-315.0,-2.08,-1.88,0.12,0.0,0.916624241442479,2.70099981488337,0.0,0.0,2.0,0.45,0.6,1.2,100.0,1.0,0.18,0.0780142154806035,0.2,1.0,-160.0,0,1,0,calibrating,0,0,0,0,0,0.0
0.7798444010004459,80,36.41,91.7,4.2,-9.4,0.52,-2.44,1.48,0.02,0.91,-0.12,-89.6,43.4,-422.0,-2.09,-0.57,0.16,0.0,0.9180958555619342,2.900758521490543,0.0,0.0,2.0,0.45,0.6,1.2,100.0,1.0,0.18,0.07501174933392529,0.2,1.0,-160.0,0,1,0,calibrating,0,0,0,0,0,0.0
0.7916407590000745,81,36.42,91.8,4.4,-9.2,0.76,-2.62,1.53,0.03,0.93,-0.12,-89.4,-2.6,-404.0,-2.08,0.46,0.21,0.0,0.9381897462667134,3.1277627787285915,0.0,0.0,2.0,0.45,0.6,1.2,100.0,1.0,0.18,0.053819501456563335,0.2,1.0,-160.0,0,1,0,calibrating,0,0,0,0,0,0.0
0.7992834349988698,82,36.43,91.9,4.5,-8.9,1.05,-2.68,1.51,0.03,0.97,-0.13,-89.7,-27.6,-259.0,-2.08,0.93,-0.02,0.0,0.9791322688993556,3.250384592629002,0.0,0.0,2.0,0.45,0.6,1.2,100.0,1.0,0.18,0.012619439247442688,0.2,1.0,-160.0,0,1,0,calibrating,0,0,0,0,0,0.0
0.8115136519991211,83,36.44,92.0,4.7,-8.6,1.04,-2.71,1.49,0.04,1.0,-0.14,-90.0,-40.9,-169.0,-2.06,1.25,0.1,0.0,1.0105444077327825,3.2627902169768745,0.0,0.0,2.0,0.45,0.6,1.2,100.0,1.0,0.18,0.018416845594264597,0.2,1.0,-160.0,0,1,0,calibrating,0,0,0,0,0,0.0
0.8198473680004099,84,36.45,92.2,4.8,-8.3,1.25,-2.74,1.37,0.07,1.01,-0.12,-90.5,-50.7,-114.0,-2.05,1.48,0.0,0.0,1.0195096860746344,3.3086250920888576,0.0,0.0,2.0,0.45,0.6,1.2,100.0,1.0,0.18,0.02683448145739442,0.2,1.0,-160.0,0,1,0,calibrating,0,0,0,0,0,0.0
0.8316752959999576,85,36.46,92.4,4.9,-8.0,1.45,-2.79,1.16,0.09,1.03,-0.12,-91.1,-63.1,-141.0,-2.03,1.93,0.08,0.0,1.0408650248711404,3.3514474484914722,0.0,0.0,2.0,0.45,0.6,1.2,100.0,1.0,0.18,0.04722602384882213,0.2,1.0,-160.0,0,1,0,calibrating,0,0,0,0,0,0.0
0.8394513559996994,86,36.47,92.7,5.0,-7.8,1.4,-2.72,0.95,0.07,1.03,-0.14,-91.9,-81.8,-178.0,-2.01,2.47,0.35,0.0,1.0418253212511202,3.2032639604003914,0.0,0.0,2.0,0.45,0.6,1.2,100.0,1.0,0.18,0.04722259382422589,0.2,1.0,-160.0,0,1,0,calibrating,0,0,0,0,0,0.0
0.8516397299990786,87,36.48,92.9,5.0,-7.5,1.36,-2.66,0.77,0.06,1.02,-0.09,-92.8,-102.5,-188.0,-1.98,3.0,-0.1,0.0,1.0257192598367255,3.0851418119755856,0.0,0.0,2.0,0.45,0.6,1.2,100.0,1.0,0.18,0.030494201761634643,0.2,1.0,-160.0,0,1,0,calibrating,0,0,0,0,0,0.0
0.8596904730002279,88,36.49,93.0,5.1,-7.2,1.74,-2.71,0.58,0.08,1.0,-0.05,-94.0,-120.1,-179.0,-1.95,3.47,-0.1,0.0,1.0044401425669924,3.2723233336576016,0.0,0.0,2.0,0.45,0.6,1.2,100.0,1.0,0.18,0.009030782802063486,0.2,1.0,-160.0,0,1,0,calibrating,0,0,0,0,0,0.0
0.8717907360005483,89,36.5,93.3,5.1,-6.9,2.36,-2.85,0.36,0.12,1.01,-0.04,-95.3,-133.7,-133.0,-1.91,3.74,0.06,0.0,1.0178899744078433,3.7177546987395496,0.0,0.0,2.0,0.45,0.6,1.2,100.0,1.0,0.18,0.02203100235005606,0.2,1.0,-160.0,0,1,0,calibrating,0,0,0,0,0,0.0
0.8798415479996038,90,36.51,93.6,5.2,-6.6,2.79,-2.79,0.1,0.15,1.04,-0.03,-96.7,-139.1,-61.0,-1.87,3.79,0.1,0.0,1.0511898020814319,3.946922852045629,0.0,0.0,2.0,0.45,0.6,1.2,100.0,1.0,0.18,0.05422421342317196,0.2,1.0,-160.0,0,1,0,calibrating,0,0,0,0,0,0.0
0.891664253998897,91,36.52,93.9,5.2,-6.4,3.13,-2.55,-0.25,0.17,1.08,-0.02,-98.0,-135.0,24.0,-1.84,3.57,0.05,0.0,1.0934806811279292,4.0449845487962,0.0,0.0,2.0,0.45,0.6,1.2,100.0,1.0,0.18,0.09458479062027592,0.2,1.0,-160.0,0,1,0,calibrating,0,0,0,0,0,0.0
0.8994336269988707,92,36.53,94.2,5.1,-6.1,3.39,-2.16,-0.72,0.18,1.13,-0.02,-99.3,-125.7,76.0,-1.8,3.28,0.02,0.0,1.1444212511134175,4.083638083865905,0.0,0.0,2.0,0.45,0.6,1.2,100.0,1.0,0.18,0.14261485339364866,0.2,1.0,-160.0,0,1,0,calibrating,0,0,0,0,0,0.0
0.9116716039989115,93,36.54,94.5,5.1,-6.0,3.36,-1.67,-1.16,0.19,1.21,-0.03,-100.5,-115.0,96.0,-1.77,2.99,0.11,0.0,1.2251938622112013,3.927352798005292,0.0,0.0,2.0,0.45,0.6,1.2,100.0,1.0,0.18,0.2189197152016038,0.2,1.0,-160.0,0,1,0,calibrating,0,0,0,0,0,0.0
0.9197596129997692,94,36.55,94.8,5.0,-5.8,2.67,-1.04,-1.41,0.17,1.27,-0.04,-101.6,-104.7,91.0,-1.74,2.75,-0.03,0.0,1.2819516371532897,3.1935246985110353,0.0,0.0,2.0,0.45,0.6,1.2,100.0,1.0,0.18,0.2701639403408185,0.2,1.0,-160.0,0,1,0,calibrating,0,0,0,0,0,0.0
0.9316446739994717,95,36.56,95.0,4.8,-5.8,1.59,-0.67,-1.36,0.06,1.26,-0.02,-102.6,-99.6,50.0,-1.72,2.69,-0.03,0.0,1.2615863030328127,2.196952434623927,0.0,0.0,2.0,0.45,0.6,1.2,100.0,1.0,0.18,0.2448026340959346,0.2,1.0,-160.0,0,1,0,calibrating,0,0,0,0,0,0.0
0.9395997709998483,96,36.57,95.1,4.7,-5.7,0.63,-0.61,-1.04,-0.06,1.2,0.01,-103.6,-102.9,-17.0,-1.69,2.86,0.13,0.0,1.2015406776301834,1.360367597379473,0.0,0.0,2.0,0.45,0.6,1.2,100.0,1.0,0.18,0.18106186851943917,0.2,1.0,-160.0,0,1,0,calibrating,0,0,0,0,0,0.0
0.9517161149997264,97,36.58,95.1,4.6,-5.6,0.3,-1.04,-0.54,-0.18,1.12,0.06,-104.7,-110.1,-64.0,-1.66,3.11,0.03,0.0,1.1359577456930343,1.2096280420029955,0.0,0.0,2.0,0.45,0.6,1.2,100.0,1.0,0.18,0.1131693578506443,0.2,1.0,-160.0,0,1,0,calibrating,0,0,0,0,0,0.0
0.9598226369998883,98,36.59,95.2,4.6,-5.5,0.52,-1.92,0.0,-0.24,1.08,0.1,-105.8,-119.1,-81.0,-1.62,3.34,-0.03,0.0,1.1108555261599053,1.989170681465017,0.0,0.0,2.0,0.45,0.6,1.2,100.0,1.0,0.18,0.08630579555116502,0.2,1.0,-160.0,0,1,0,calibrating,0,0,0,0,0,0.0
0.9713654739989579,99,36.6,95.3,4.6,-5.2,0.9,-3.04,0.56,-0.26,1.06,0.11,-107.1,-125.5,-52.0,-1.59,3.44,-0.05,0.0,1.0969503179269333,3.2195030672450056,0.0,0.0,2.0,0.45,0.6,1.2,100.0,1.0,0.18,0.07095257557182921,0.2,1.0,-160.0,0,1,0,calibrating,0,0,0,0,0,0.0
0.9796990859995276,100,36.61,95.4,4.6,-4.9,1.12,-4.06,0.95,-0.24,1.06,0.14,-108.3,-126.8,-13.0,-1.56,3.41,0.0,0.0,1.095810202544218,4.317464533728099,0.0,0.0,2.0,0.45,0.6,1.2,100.0,1.0,0.18,0.06841621098533168,0.2,1.0,-160.0,0,1,0,calibrating,0,0,0,0,0,0.0
0.9918210489995545,101,36.62,95.6,4.7,-4.4,1.16,-5.03,1.16,-0.18,1.07,0.12,-109.6,-122.3,32.0,-1.52,3.25,0.03,0.0,1.0916501271011698,5.290756089634071,0.0,0.0,2.0,0.45,0.6,1.2,100.0,1.0,0.18,0.0629710128314378,0.2,1.0,-160.0,0,1,0,calibrating,0,0,0,0,0,0.0
0.9994523049990676,102,36.63,95.7,4.7,-3.8,1.01,-5.69,1.22,-0.1,1.06,0.11,-110.8,-114.2,75.0,-1.49,2.97,-0.05,0.0,1.0703737664946764,5.906318650394677,0.0,0.0,2.0,0.45,0.6,1.2,100.0,1.0,0.18,0.040860759180445516,0.2,1.0,-160.0,0,1,0,calibrating,0,0,0,0,0,0.0
1.0119701829989936,103,36.64,95.8,4.8,-3.2,0.72,-6.15,1.15,-0.03,1.04,0.1,-111.8,-102.9,101.0,-1.46,2.66,-0.16,0.0,1.0452272480183435,6.297888535056809,0.0,0.0,2.0,0.45,0.6,1.2,100.0,1.0,0.18,0.015399955890030403,0.2,1.0,-160.0,0,1,0,calibrating,0,0,0,0,0,0.0
1.0196446270001616,104,36.65,96.0,4.8,-2.6,0.37,-6.35,0.99,0.03,0.99,0.09,-112.8,-92.1,111.0,-1.44,2.34,0.09,0.0,0.9945350672550466,6.437351940044913,0.0,0.0,2.0,0.45,0.6,1.2,100.0,1.0,0.18,0.03458638037580131,0.2,1.0,-160.0,0,1,0,calibrating,0,0,0,0,0,0.0
1.031598244999259,105,36.66,96.0,4.9,-2.0,0.13,-6.41,0.81,0.1,0.94,0.09,-113.6,-78.5,132.0,-1.42,1.94,-0.19,0.0,0.9495788540189803,6.462282878364271,0.0,0.0,2.0,0.45,0.6,1.2,100.0,1.0,0.18,0.07795174173963015,0.2,1.0,-160.0,0,1,0,calibrating,0,0,0,0,0,0.0
1.039407594000295,106,36.67,96.1,4.9,-1.3,0.01,-6.33,0.61,0.16,0.9,0.1,-114.3,-61.5,167.0,-1.4,1.44,-0.13,0.0,0.9195651146058119,6.3593317258969915,0.0,0.0,2.0,0.45,0.6,1.2,100.0,1.0,0.18,0.1058061715297427,0.2,1.0,-160.0,0,1,0,calibrating,0,0,0,0,0,0.0
1.0516886549994524,107,36.68,96.1,4.8,-0.7,-0.12,-6.23,0.44,0.21,0.88,0.09,-114.8,-42.7,175.0,-1.39,0.95,-0.3,0.0,0.9091754506144565,6.246671113481164,0.0,0.0,2.0,0.45,0.6,1.2,100.0,1.0,0.18,0.11387191881067626,0.2,1.0,-160.0,0,1,0,calibrating,0,0,0,0,0,0.0
1.0595728299995244,108,36.69,96.2,4.8,-0.1,-0.3,-5.94,0.33,0.23,0.87,0.07,-115.1,-25.0,183.0,-1.39,0.44,0.05,0.0,0.9026073343375846,5.956718895499435,0.0,0.0,2.0,0.45,0.6,1.2,100.0,1.0,0.18,0.11803123438579743,0.2,1.0,-160.0,0,1,0,calibrating,0,0,0,0,0,0.0
1.0716655380001612,109,36.7,96.2,4.8,0.4,-0.52,-5.64,0.25,0.23,0.85,0.06,-115.2,-6.7,178.0,-1.39,-0.03,-0.03,0.0,0.8826097665446491,5.669435598011499,0.0,0.0,2.0,0.45,0.6,1.2,100.0,1.0,0.18,0.1352682261351581,0.2,1.0,-160.0,0,1,0,calibrating,0,0,0,0,0,0.0
1.0796256479989097,110,36.71,96.2,4.7,1.0,-0.55,-5.29,0.18,0.21,0.85,0.05,-115.2,4.2,91.0,-1.39,-0.11,0.05,0.0,0.8769834662067466,5.3215599216771015,0.0,0.0,2.0,0.45,0.6,1.2,100.0,1.0,0.18,0.13807663594359942,0.2,1.0,-160.0,0,1,0,calibrating,0,0,0,0,0,0.0
1.0916081969990046,111,36.72,96.2,4.7,1.5,-0.46,-4.94,0.12,0.19,0.85,0.04,-115.1,2.0,4.0,-1.39,0.0,-0.06,0.0,0.8718944890294926,4.962821777980749,0.0,0.0,2.0,0.45,0.6,1.2,100.0,1.0,0.18,0.14030230085843642,0.2,1.0,-160.0,0,1,0,calibrating,0,0,0,0,0,0.0
1.1017447430003813,112,36.73,96.2,4.7,1.9,-0.31,-4.64,0.06,0.19,0.86,0.03,-115.1,-1.2,-5.0,-1.39,0.02,-0.05,0.0,0.8812491134747313,4.650731125317824,0.0,0.0,2.0,0.45,0.6,1.2,100.0,1.0,0.18,0.1283287228849337,0.2,1.0,-160.0,0,1,0,calibrating,0,0,0,0,0,0.0
1.1119875490003324,113,36.74,96.2,4.6,2.4,-0.2,-4.3,0.0,0.19,0.9,0.01,-115.1,0.8,9.0,-1.39,-0.02,0.13,0.0,0.9198912979260104,4.304648650006176,0.0,0.0,2.0,0.45,0.6,1.2,100.0,1.0,0.18,0.08789280766498153,0.2,1.0,-160.0,0,1,0,calibrating,0,0,0,0,0,0.0
1.1196398600004613,114,36.75,96.2,4.6,2.8,-0.14,-3.94,-0.01,0.19,0.93,0.0,-115.1,-0.4,-8.0,-1.39,0.02,-0.05,0.0,0.9492101980067429,3.942499207355659,0.0,0.0,2.0,0.45,0.6,1.2,100.0,1.0,0.18,0.05740242943256413,0.2,1.0,-160.0,0,1,0,calibrating,0,0,0,0,0,0.0
1.1319385349997901,115,36.76,96.2,4.5,3.2,-0.04,-3.58,0.02,0.19,0.96,-0.02,-115.1,0.3,5.0,-1.39,-0.01,0.27,0.0,0.9788258272031853,3.580279318712438,0.0,0.0,2.0,0.45,0.6,1.2,100.0,1.0,0.18,0.027231064231399316,0.2,1.0,-160.0,0,1,0,calibrating,0,0,0,0,0,0.0
1.1396279469990986,116,36.77,96.2,4.5,3.5,0.06,-3.2,0.13,0.2,1.0,-0.03,-115.1,-0.1,-2.0,-1.39,0.0,-0.06,0.0,1.0202450685987166,3.2032015234761615,0.0,0.0,2.0,0.45,0.6,1.2,100.0,1.0,0.18,0.013904413620849265,0.2,1.0,-160.0,0,1,0,calibrating,0,0,0,0,0,0.0
1.1517152079995867,117,36.78,96.3,4.5,3.8,0.17,-2.81,0.27,0.2,1.02,-0.04,-115.1,0.3,-2.0,-1.39,0.0,0.05,0.0,1.0401922899156675,2.828055869320831,0.0,0.0,2.0,0.45,0.6,1.2,100.0,1.0,0.18,0.033174602239044226,0.2,1.0,-160.0,0,1,0,calibrating,0,0,0,0,0,0.0
1.1593554649989528,118,36.79,96.3,4.5,4.1,0.27,-2.42,0.4,0.21,1.05,-0.05,-115.1,-0.2,1.0,-1.39,0.0,-0.02,0.0,1.0719608201795436,2.467650704617653,0.0,0.0,2.0,0.45,0.6,1.2,100.0,1.0,0.18,0.06364426985286187,0.2,1.0,-160.0,0,1,0,calibrating,0,0,0,0,0,0.0
1.1720094729989796,119,36.8,96.4,4.5,4.3,0.3,-2.03,0.54,0.2,1.08,-0.05,-115.1,0.0,0.0,-1.39,0.0,-0.05,0.0,1.099499886311954,2.121909517392294,0.0,0.0,2.0,0.45,0.6,1.2,100.0,1.0,0.18,0.08935966926556693,0.2,1.0,-160.0,0,1,0,calibrating,0,0,0,0,0,0.0
1.1796474940001644,120,36.81,96.4,4.6,4.5,0.25,-1.67,0.67,0.19,1.11,-0.05,-115.1,-1.1,-6.0,-1.39,0.04,0.04,0.0,1.127253298952813,1.816672782864322,0.0,0.0,2.0,0.45,0.6,1.2,100.0,1.0,0.18,0.11477082026829732,0.2,1.0,-160.0,0,1,0,calibrating,0,0,0,0,0,0.0
1.1916160660002788,121,36.82,96.4,4.6,4.7,0.16,-1.43,0.84,0.17,1.13,-0.04,-115.2,-2.0,-6.0,-1.39,0.05,0.04,0.0,1.1434159348198711,1.6661632573070382,0.0,0.0,2.0,0.45,0.6,1.2,100.0,1.0,0.18,0.12831478701264842,0.2,1.0,-160.0,0,1,0,calibrating,0,0,0,0,0,0.0
1.1995894190004037,122,36.83,96.5,4.7,4.8,-0.01,-1.3,0.96,0.15,1.12,-0.03,-115.2,-2.6,-7.0,-1.38,0.07,-0.04,0.0,1.1303981599418853,1.6160754932861274,0.0,0.0,2.0,0.45,0.6,1.2,100.0,1.0,0.18,0.11299107189196933,0.2,1.0,-160.0,0,1,0,calibrating,0,0,0,0,0,0.0
1.2116953659988212,123,36.84,96.4,4.8,4.9,-0.24,-1.29,1.04,0.13,1.1,-0.03,-115.2,-4.7,-24.0,-1.38,0.18,0.0,0.0,1.108061370141564,1.6743058263053379,0.0,0.0,2.0,0.45,0.6,1.2,100.0,1.0,0.18,0.08884119644981503,0.2,1.0,-160.0,0,1,0,calibrating,0,0,0,0,0,0.0
1.219637767999302,124,36.85,96.3,4.9,5.1,-0.38,-1.39,1.14,0.11,1.06,-0.03,-115.3,-11.1,-72.0,-1.38,0.45,0.08,0.0,1.0661144403862093,1.837416664776936,0.0,0.0,2.0,0.45,0.6,1.2,100.0,1.0,0.18,0.04595638136057101,0.2,1.0,-160.0,0,1,0,calibrating,0,0,0,0,0,0.0
1.231638473998828,125,36.86,96.3,5.0,5.2,-0.45,-1.54,1.19,0.1,1.03,-0.04,-115.5,-22.1,-85.0,-1.37,0.69,-0.05,0.0,1.035615758860399,1.9975484975339146,0.0,0.0,2.0,0.45,0.6,1.2,100.0,1.0,0.18,0.015148545838065353,0.2,1.0,-160.0,0,1,0,calibrating,0,0,0,0,0,0.0
1.2396380190002674,126,36.87,96.2,5.1,5.4,-0.44,-1.67,1.22,0.11,1.0,-0.04,-115.8,-29.6,-86.0,-1.37,0.93,0.02,0.0,1.0068266980965492,2.1144502831705454,0.0,0.0,2.0,0.45,0.6,1.2,100.0,1.0,0.18,0.013367704627268662,0.2,1.0,-160.0,0,1,0,calibrating,0,0,0,0,0,0.0
1.2515911840000626,127,36.88,96.1,5.3,5.6,-0.46,-1.76,1.23,0.13,0.99,-0.05,-116.1,-38.2,-81.0,-1.35,1.13,-0.07,0.0,0.999749968742185,2.1959280498231264,0.0,0.0,2.0,0.45,0.6,1.2,100.0,1.0,0.18,0.020035545302000135,0.2,1.0,-160.0,0,1,0,calibrating,0,0,0,0,0,0.0
1.2595180240004993,128,36.89,96.1,5.4,5.8,-0.48,-1.77,1.23,0.15,0.98,-0.06,-116.6,-45.2,-58.0,-1.34,1.25,-0.12,0.0,0.9932270636667125,2.2082119463493535,0.0,0.0,2.0,0.45,0.6,1.2,100.0,1.0,0.18,0.026027281369923272,0.2,1.0,-160.0,0,1,0,calibrating,0,0,0,0,0,0.0
1.271992167999997,129,36.9,96.0,5.6,6.0,-0.51,-1.69,1.2,0.18,0.97,-0.07,-117.0,-47.3,-25.0,-1.33,1.28,-0.14,0.0,0.9890399385262457,2.1345257084420415,0.0,0.0,2.0,0.45,0.6,1.2,100.0,1.0,0.18,0.02961011838018235,0.2,1.0,-160.0,0,1,0,calibrating,0,0,0,0,0,0.0
1.2796677589994943,130,36.91,96.0,5.7,6.1,-0.57,-1.52,1.14,0.2,0.96,-0.08,-117.5,-45.5,6.0,-1.32,1.2,-0.04,0.0,0.9838699100999074,1.9836582366930045,0.0,0.0,2.0,0.45,0.6,1.2,100.0,1.0,0.18,0.03408454387039017,0.2,1.0,-160.0,0,1,0,calibrating,0,0,0,0,0,0.0
1.2915816320000886,131,36.92,95.9,5.9,6.3,-0.66,-1.31,1.05,0.21,0.95,-0.09,-117.9,-43.4,21.0,-1.31,1.13,0.0,0.0,0.9770875088752287,1.8039401320442983,0.0,0.0,2.0,0.45,0.6,1.2,100.0,1.0,0.18,0.040049606193167664,0.2,1.0,-160.0,0,1,0,calibrating,0,0,0,0,0,0.0
1.2996550779989775,132,36.93,95.9,6.0,6.4,-0.7,-1.08,0.97,0.22,0.94,-0.08,-118.4,-39.9,22.0,-1.29,1.07,0.05,0.0,0.9687104830649867,1.611614097729354,0.0,0.0,2.0,0.45,0.6,1.2,100.0,1.0,0.18,0.047458099363341444,0.2,1.0,-160.0,0,1,0,calibrating,0,0,0,0,0,0.0
1.3117076189992076,133,36.94,95.8,6.1,6.5,-0.69,-0.86,0.9,0.22,0.93,-0.07,-118.7,-36.4,42.0,-1.28,0.91,0.0,0.0,0.9582275303913993,1.4232708807532035,0.0,0.0,2.0,0.45,0.6,1.2,100.0,1.0,0.18,0.0567822309961904,0.2,1.0,-160.0,0,1,0,calibrating,0,0,0,0,0,0.0
1.3194648819990107,134,36.95,95.8,6.1,6.6,-0.68,-0.67,0.82,0.22,0.93,-0.07,-119.0,-29.1,70.0,-1.28,0.67,-0.04,0.0,0.9582275303913993,1.2584514293368656,0.0,0.0,2.0,0.45,0.6,1.2,100.0,1.0,0.18,0.05564658637626663,0.2,1.0,-160.0,0,1,0,calibrating,0,0,0,0,0,0.0
1.3317041469999822,135,36.96,95.7,6.2,6.7,-0.66,-0.52,0.73,0.21,0.92,-0.06,-119.3,-18.8,85.0,-1.27,0.41,0.0,0.0,0.9455686120002081,1.113058848399311,0.0,0.0,2.0,0.45,0.6,1.2,100.0,1.0,0.18,0.06693939467210863,0.2,1.0,-160.0,0,1,0,calibrating,0,0,0,0,0,0.0
1.3396344569991925,136,36.97,95.6,6.3,6.7,-0.65,-0.43,0.62,0.2,0.91,-0.05,-119.4,-9.4,94.0,-1.27,0.14,0.02,0.0,0.9330594836343501,0.9958915603618699,0.0,0.0,2.0,0.45,0.6,1.2,100.0,1.0,0.18,0.07785955257720734,0.2,1.0,-160.0,0,1,0,calibrating,0,0,0,0,0,0.0
1.3517606440000236,137,36.98,95.6,6.3,6.8,-0.68,-0.35,0.49,0.2,0.91,-0.05,-119.4,-0.4,81.0,-1.27,-0.06,0.14,0.0,0.9330594836343501,0.9082951062292476,0.0,0.0,2.0,0.45,0.6,1.2,100.0,1.0,0.18,0.07630236152566316,0.2,1.0,-160.0,0,1,0,calibrating,0,0,0,0,0,0.0
1.3595138420005242,138,36.99,95.5,6.4,6.8,-0.71,-0.29,0.33,0.19,0.91,-0.05,-119.4,1.6,19.0,-1.27,-0.01,0.01,0.0,0.9309672389509741,0.8349251463454672,0.0,0.0,2.0,0.45,0.6,1.2,100.0,1.0,0.18,0.0768267140848583,0.2,1.0,-160.0,0,1,0,calibrating,0,0,0,0,0,0.0
1.3719907269987743,139,37.0,95.4,6.5,6.8,-0.7,-0.22,0.17,0.19,0.9,-0.06,-119.4,0.2,7.0,-1.27,-0.01,-0.12,0.0,0.9217917335276988,0.7531932023060219,0.0,0.0,2.0,0.45,0.6,1.2,100.0,1.0,0.18,0.08428217511797109,0.2,1.0,-160.0,0,1,0,calibrating,0,0,0,0,0,0.0
1.3794725469997502,140,37.01,95.3,6.5,6.8,-0.68,-0.17,0.02,0.19,0.91,-0.06,-119.4,0.5,7.0,-1.27,-0.03,-0.09,0.0,0.9315578350268974,0.7012132343303284,0.0,0.0,2.0,0.45,0.6,1.2,100.0,1.0,0.18,0.07302575214639717,0.2,1.0,-160.0,0,1,0,calibrating,0,0,0,0,0,0.0
1.3916117119988485,141,37.02,95.3,6.6,6.9,-0.68,-0.1,-0.1,0.19,0.92,-0.07,-119.4,0.8,2.0,-1.27,-0.02,0.04,0.0,0.942019108086455,0.6945502141674136,0.0,0.0,2.0,0.45,0.6,1.2,100.0,1.0,0.18,0.06131318950510278,0.2,1.0,-160.0,0,1,0,calibrating,0,0,0,0,0,0.0
1.3996330779991695,142,37.03,95.2,6.6,6.9,-0.7,-0.03,-0.24,0.19,0.93,-0.07,-119.4,0.9,0.0,-1.27,-0.02,-0.09,0.0,0.9517877914745493,0.740607858451421,0.0,0.0,2.0,0.45,0.6,1.2,100.0,1.0,0.18,0.050513615994668304,0.2,1.0,-160.0,0,1,0,calibrating,0,0,0,0,0,0.0
1.4116241480005556,143,37.04,95.1,6.6,6.9,-0.72,0.05,-0.37,0.19,0.94,-0.08,-119.4,0.8,-1.0,-1.27,-0.01,0.04,0.0,0.9623408959407264,0.8110487038396645,0.0,0.0,2.0,0.45,0.6,1.2,100.0,1.0,0.18,0.03916130129792139,0.2,1.0,-160.0,0,1,0,calibrating,0,0,0,0,0,0.0
1.419411171998945,144,37.05,95.0,6.6,6.8,-0.79,0.15,-0.49,0.18,0.95,-0.08,-119.4,0.9,-2.0,-1.27,0.0,-0.09,0.0,0.9702061636580134,0.9416474924301557,0.0,0.0,2.0,0.45,0.6,1.2,100.0,1.0,0.18,0.030670112909021663,0.2,1.0,-160.0,0,1,0,calibrating,0,0,0,0,0,0.0
1.431708512998739,145,37.06,94.9,6.6,6.8,-0.87,0.26,-0.57,0.18,0.96,-0.08,-119.4,0.1,-4.0,-1.27,0.0,-0.05,0.0,0.98,1.072100741535048,0.0,0.0,2.0,0.45,0.6,1.2,100.0,1.0,0.18,0.02045875103569439,0.2,1.0,-160.0,0,1,0,calibrating,0,0,0,0,0,0.0
1.4396490460003406,146,37.07,94.8,6.6,6.8,-0.93,0.35,-0.63,0.17,0.97,-0.08,-119.4,0.1,2.0,-1.27,-0.02,0.05,0.0,0.9880283396745257,1.1765627905046123,0.0,0.0,2.0,0.45,0.6,1.2,100.0,1.0,0.18,0.012181803133945346,0.2,1.0,-160.0,0,1,0,calibrating,0,0,0,0,0,0.0
1.4516681780005456,147,37.08,94.7,6.6,6.7,-0.94,0.41,-0.66,0.16,0.97,-0.07,-119.4,0.0,-3.0,-1.27,0.01,0.0,0.0,0.9855962662266938,1.2195490970026586,0.0,0.0,2.0,0.45,0.6,1.2,100.0,1.0,0.18,0.014321599050141742,0.2,1.0,-160.0,0,1,0,calibrating,0,0,0,0,0,0.0
1.4596217739999702,148,37.09,94.6,6.5,6.7,-0.92,0.45,-0.67,0.16,0.98,-0.07,-119.4,0.0,0.0,-1.27,0.0,0.09,0.0,0.9954396013822234,1.2238463955905579,0.0,0.0,2.0,0.45,0.6,1.2,100.0,1.0,0.18,0.004388698616719866,0.2,1.0,-160.0,0,1,0,calibrating,0,0,0,0,0,0.0
1.4719947270004923,149,37.1,94.5,6.5,6.6,-0.92,0.52,-0.67,0.15,0.98,-0.08,-119.4,0.0,0.0,-1.27,0.0,-0.04,0.0,0.9946356116689166,1.2512793453102309,0.0,0.0,2.0,0.45,0.6,1.2,100.0,1.0,0.18,0.005088834563426126,0.2,1.0,-160.0,0,1,0,calibrating,0,0,0,0,0,0.0
1.4794814460001362,150,37.11,94.5,6.5,6.6,-0.89,0.56,-0.67,0.15,0.97,-0.09,-119.4,-0.1,-1.0,-1.27,0.0,0.04,0.0,0.9856469956328178,1.2468359956305402,0.0,0.0,2.0,0.45,0.6,1.2,100.0,1.0,0.18,0.01379590158753452,0.2,1.0,-160.0,0,1,0,calibrating,0,0,0,0,0,0.0
1.4917363259992271,151,37.12,94.4,6.4,6.5,-0.85,0.6,-0.66,0.14,0.97,-0.09,-119.4,0.0,2.0,-1.27,0.0,0.09,0.0,0.9841747812253675,1.2321120078953862,0.0,0.0,2.0,0.45,0.6,1.2,100.0,1.0,0.18,0.014962753675085039,0.2,1.0,-160.0,0,1,0,calibrating,0,0,0,0,0,0.0
1.4996681259999605,152,37.13,94.3,6.4,6.4,-0.79,0.63,-0.62,0.14,0.97,-0.09,-119.4,-0.3,-6.0,-1.27,0.03,0.05,0.0,0.9841747812253675,1.1854956769216833,0.0,0.0,2.0,0.45,0.6,1.2,100.0,1.0,0.18,0.014663498601583336,0.2,1.0,-160.0,0,1,0,calibrating,0,0,0,0,0,0.0
1.5116247229998407,153,37.14,94.2,6.4,6.4,-0.71,0.65,-0.57,0.14,0.97,-0.09,-119.4,-1.4,-3.0,-1.27,0.03,0.04,0.0,0.9841747812253675,1.1187046080176841,0.0,0.0,2.0,0.45,0.6,1.2,100.0,1.0,0.18,0.014370228629551618,0.2,1.0,-160.0,0,1,0,calibrating,0,0,0,0,0,0.0
1.5196671939993394,154,37.15,94.2,6.3,6.3,-0.64,0.65,-0.49,0.14,0.97,-0.09,-119.4,-0.8,3.0,-1.27,0.0,0.09,0.0,0.9841747812253675,1.0354709073653399,0.0,0.0,2.0,0.45,0.6,1.2,100.0,1.0,0.18,0.014082824056960597,0.2,1.0,-160.0,0,1,0,calibrating,0,0,0,0,0,0.0
1.5319447869987926,155,37.16,94.1,6.3,6.2,-0.54,0.65,-0.41,0.14,0.97,-0.09,-119.4,-0.5,0.0,-1.27,0.03,0.1,0.0,0.9841747812253675,0.9392550239418472,0.0,0.0,2.0,0.45,0.6,1.2,100.0,1.0,0.18,0.013801167575821394,0.2,1.0,-160.0,0,1,0,calibrating,0,0,0,0,0,0.0
1.5396291289998771,156,37.17,94.1,6.3,6.2,-0.45,0.65,-0.35,0.14,0.97,-0.09,-119.4,-1.4,-9.0,-1.27,0.06,0.04,0.0,0.9841747812253675,0.8645808232895291,0.0,0.0,2.0,0.45,0.6,1.2,100.0,1.0,0.18,0.013525144224304952,0.2,1.0,-160.0,0,1,0,calibrating,0,0,0,0,0,0.0
1.5516553599991312,157,37.18,94.0,6.3,6.1,-0.35,0.65,-0.3,0.15,0.96,-0.09,-119.4,-3.1,-12.0,-1.27,0.09,-0.01,0.0,0.9758073580374356,0.7968688725254613,0.0,0.0,2.0,0.45,0.6,1.2,100.0,1.0,0.18,0.021454716063992185,0.2,1.0,-160.0,0,1,0,calibrating,0,0,0,0,0,0.0
1.5597143180002604,158,37.19,94.0,6.3,6.0,-0.27,0.65,-0.28,0.16,0.95,-0.1,-119.5,-4.9,-18.0,-1.27,0.16,-0.02,0.0,0.9685556256612213,0.757495874576225,0.0,0.0,2.0,0.45,0.6,1.2,100.0,1.0,0.18,0.028132319471402267,0.2,1.0,-160.0,0,1,0,calibrating,0,0,0,0,0,0.0
1.5718456390004576,159,37.2,94.0,6.3,6.0,-0.21,0.69,-0.3,0.17,0.94,-0.11,-119.5,-6.1,-7.0,-1.27,0.16,0.04,0.0,0.9615612304996495,0.7811529939774922,0.0,0.0,2.0,0.45,0.6,1.2,100.0,1.0,0.18,0.03442418034031469,0.2,1.0,-160.0,0,1,0,calibrating,0,0,0,0,0,0.0
1.579634306999651,160,37.21,94.0,6.3,5.9,-0.17,0.76,-0.32,0.18,0.93,-0.12,-119.6,-5.5,0.0,-1.27,0.13,0.03,0.0,0.954829827770373,0.841961994391671,0.0,0.0,2.0,0.45,0.6,1.2,100.0,1.0,0.18,0.0403324714081994,0.2,1.0,-160.0,0,1,0,calibrating,0,0,0,0,0,0.0
1.5918754209997132,161,37.22,94.0,6.3,5.8,-0.11,0.89,-0.33,0.19,0.93,-0.13,-119.6,-7.7,-31.0,-1.26,0.29,0.03,0.0,0.9580709785814411,0.9555626614722867,0.0,0.0,2.0,0.45,0.6,1.2,100.0,1.0,0.18,0.036349494185188624,0.2,1.0,-160.0,0,1,0,calibrating,0,0,0,0,0,0.0
1.603512031999344,162,37.23,94.0,6.3,5.7,-0.06,1.02,-0.38,0.19,0.92,-0.14,-119.8,-18.5,-94.0,-1.26,0.66,0.08,0.0,0.9497894503520241,1.0901376059929315,0.0,0.0,2.0,0.45,0.6,1.2,100.0,1.0,0.18,0.04373840196631351,0.2,1.0,-160.0,0,1,0,calibrating,0,0,0,0,0,0.0
1.6114400530004787,163,37.24,94.0,6.3,5.6,-0.06,1.13,-0.43,0.2,0.92,-0.14,-120.1,-30.7,-105.0,-1.25,0.96,0.12,0.0,0.9518403227432635,1.2105370708904373,0.0,0.0,2.0,0.45,0.6,1.2,100.0,1.0,0.18,0.040853778983572675,0.2,1.0,-160.0,0,1,0,calibrating,0,0,0,0,0,0.0
1.6218390350004483,164,37.25,93.9,6.2,5.5,-0.03,1.29,-0.49,0.2,0.91,-0.15,-120.4,-40.3,-92.0,-1.24,1.19,0.13,0.0,0.9437160589923221,1.3802535998866294,0.0,0.0,2.0,0.45,0.6,1.2,100.0,1.0,0.18,0.047998481879823696,0.2,1.0,-160.0,0,1,0,calibrating,0,0,0,0,0,0.0
1.631723504000547,165,37.26,93.9,6.2,5.3,0.0,1.46,-0.56,0.21,0.9,-0.16,-120.9,-48.4,-85.0,-1.22,1.41,-0.02,0.0,0.9379232377972091,1.5637135287513502,0.0,0.0,2.0,0.45,0.6,1.2,100.0,1.0,0.18,0.05271547701343804,0.2,1.0,-160.0,0,1,0,calibrating,0,0,0,0,0,0.0
1.639460438000242,166,37.27,93.9,6.1,5.2,0.04,1.67,-0.66,0.21,0.89,-0.16,-121.4,-54.0,-60.0,-1.21,1.52,-0.04,0.0,0.9283318372220141,1.7961347388211164,0.0,0.0,2.0,0.45,0.6,1.2,100.0,1.0,0.18,0.06106074003686046,0.2,1.0,-160.0,0,1,0,calibrating,0,0,0,0,0,0.0
1.652028901000449,167,37.28,93.9,6.1,5.0,0.15,1.91,-0.75,0.21,0.88,-0.17,-122.0,-56.8,-32.0,-1.19,1.56,-0.03,0.0,0.9205433178292046,2.0574498778828127,0.0,0.0,2.0,0.45,0.6,1.2,100.0,1.0,0.18,0.0674722742410766,0.2,1.0,-160.0,0,1,0,calibrating,0,0,0,0,0,0.0
1.659603136999067,168,37.29,93.9,6.0,4.8,0.27,2.22,-0.77,0.21,0.91,-0.17,-122.6,-58.8,-27.0,-1.18,1.63,-0.01,0.0,0.9492628719169417,2.3652061220959157,0.0,0.0,2.0,0.45,0.6,1.2,100.0,1.0,0.18,0.037977665750272616,0.2,1.0,-160.0,0,1,0,calibrating,0,0,0,0,0,0.0
1.671804734000034,169,37.3,93.9,6.0,4.5,0.46,2.5,-0.69,0.2,0.94,-0.14,-123.2,-61.6,-23.0,-1.16,1.69,-0.11,0.0,0.9711848433743187,2.6339514042593875,0.0,0.0,2.0,0.45,0.6,1.2,100.0,1.0,0.18,0.01573458040703779,0.2,1.0,-160.0,0,1,0,calibrating,0,0,0,0,0,0.0
1.679630933000226,170,37.31,93.9,5.9,4.3,0.58,2.74,-0.56,0.18,0.99,-0.12,-123.8,-62.9,-21.0,-1.14,1.74,0.15,0.0,1.0133607452432722,2.856151256498857,0.0,0.0,2.0,0.45,0.6,1.2,100.0,1.0,0.18,0.02591249503267745,0.2,1.0,-160.0,0,1,0,calibrating,0,0,0,0,0,0.0
1.691715787999783,171,37.32,94.0,5.9,4.0,0.66,2.89,-0.37,0.16,1.02,-0.1,-124.4,-64.4,-2.0,-1.13,1.71,0.03,0.0,1.0373041983911953,2.987406902315117,0.0,0.0,2.0,0.45,0.6,1.2,100.0,1.0,0.18,0.048858829216988475,0.2,1.0,-160.0,0,1,0,calibrating,0,0,0,0,0,0.0
1.699635290000515,172,37.33,94.1,6.0,3.7,0.75,2.91,-0.21,0.15,1.02,-0.08,-125.1,-62.4,11.0,-1.11,1.67,-0.22,0.0,1.0340696301506973,3.012424272907122,0.0,0.0,2.0,0.45,0.6,1.2,100.0,1.0,0.18,0.044711775756960725,0.2,1.0,-160.0,0,1,0,calibrating,0,0,0,0,0,0.0
1.7274410579993855,174,37.35,94.2,6.0,3.1,0.92,2.49,-0.16,0.14,0.94,-0.1,-126.3,-60.4,0.0,-1.08,1.66,-0.09,0.0,0.9556149852320232,2.659342023884856,0.0,0.0,2.0,0.45,0.6,1.2,100.0,1.0,0.18,0.03306801177847918,0.2,1.0,-160.0,0,1,0,calibrating,0,0,0,0,0,0.0
1.7353024589992856,175,37.36,94.3,6.0,2.9,1.03,2.25,-0.23,0.13,0.93,-0.11,-126.9,-63.5,-26.0,-1.06,1.77,0.04,0.0,0.9454628496138809,2.4852162883741125,0.0,0.0,2.0,0.45,0.6,1.2,100.0,1.0,0.18,0.04235574444868895,0.2,1.0,-160.0,0,1,0,calibrating,0,0,0,0,0,0.0
1.7435693190000165,176,37.37,94.4,6.0,2.7,1.16,2.06,-0.21,0.12,0.98,-0.1,-127.6,-67.4,-38.0,-1.04,1.9,-0.13,0.0,0.9923708984044222,2.3734573937612615,0.0,0.0,2.0,0.45,0.6,1.2,100.0,1.0,0.18,0.004461258255015199,0.2,1.0,-160.0,0,1,0,calibrating,0,0,0,0,0,0.0
1.7515162809995672,177,37.38,94.5,6.1,2.5,1.28,1.88,-0.03,0.11,1.05,-0.08,-128.3,-72.6,-41.0,-1.02,2.01,-0.02,0.0,1.058772874605314,2.2745768837302465,0.0,0.0,2.0,0.45,0.6,1.2,100.0,1.0,0.18,0.06944596976678885,0.2,1.0,-160.0,0,1,0,calibrating,0,0,0,0,0,0.0
1.7595838209999783,178,37.39,94.6,6.1,2.3,1.26,1.69,0.22,0.1,1.13,-0.06,-129.1,-77.1,-54.0,-1.0,2.19,0.23,0.0,1.1360017605620158,2.119457477752267,0.0,0.0,2.0,0.45,0.6,1.2,100.0,1.0,0.18,0.14374135860902093,0.2,1.0,-160.0,0,1,0,calibrating,0,0,0,0,0,0.0
1.7718354869994073,179,37.4,94.7,6.1,2.2,1.04,1.61,0.43,0.09,1.16,-0.06,-129.9,-84.5,-64.0,-0.98,2.38,-0.14,0.0,1.1650321883965267,1.9643319475078544,0.0,0.0,2.0,0.45,0.6,1.2,100.0,1.0,0.18,0.1693163507146611,0.2,1.0,-160.0,0,1,0,calibrating,0,0,0,0,0,0.0
1.779404937999061,180,37.41,94.7,6.2,2.0,0.71,1.58,0.54,0.09,1.15,-0.05,-130.8,-91.7,-74.0,-0.95,2.59,0.0,0.0,1.1545994976614185,1.8144145061148516,0.0,0.0,2.0,0.45,0.6,1.2,100.0,1.0,0.18,0.15570598677996184,0.2,1.0,-160.0,0,1,0,calibrating,0,0,0,0,0,0.0
1.7917058549992362,181,37.42,94.8,6.2,1.8,0.5,1.56,0.58,0.09,1.12,-0.03,-131.7,-101.0,-95.0,-0.92,2.89,0.02,0.0,1.1240106761058812,1.7378147196982767,0.0,0.0,2.0,0.45,0.6,1.2,100.0,1.0,0.18,0.12261482191993611,0.2,1.0,-160.0,0,1,0,calibrating,0,0,0,0,0,0.0
1.7995201659996383,182,37.43,94.8,6.3,1.7,0.4,1.48,0.67,0.1,1.1,-0.01,-132.8,-111.5,-95.0,-0.89,3.15,0.09,0.0,1.104581368664165,1.6731108749870705,0.0,0.0,2.0,0.45,0.6,1.2,100.0,1.0,0.18,0.10112180418865546,0.2,1.0,-160.0,0,1,0,calibrating,0,0,0,0,0,0.0
1.811726906000331,183,37.44,94.7,6.4,1.5,0.44,1.42,0.8,0.12,1.06,-0.01,-134.0,-120.6,-96.0,-0.86,3.41,0.01,0.0,1.0668176976409793,1.6881943016134133,0.0,0.0,2.0,0.45,0.6,1.2,100.0,1.0,0.18,0.06209097050216039,0.2,1.0,-160.0,0,1,0,calibrating,0,0,0,0,0,0.0
1.8195516689993383,184,37.45,94.7,6.5,1.4,0.62,1.43,0.87,0.14,1.04,-0.02,-135.3,-133.0,-119.0,-0.82,3.77,0.03,0.0,1.049571341072154,1.7849929971851428,0.0,0.0,2.0,0.45,0.6,1.2,100.0,1.0,0.18,0.043947721654668426,0.2,1.0,-160.0,0,1,0,calibrating,0,0,0,0,0,0.0
1.8317003029987973,185,37.46,94.8,6.6,1.3,0.78,1.44,0.91,0.16,1.02,-0.02,-136.7,-145.1,-119.0,-0.78,4.09,0.04,0.0,1.032666451474047,1.8735260873550708,0.0,0.0,2.0,0.45,0.6,1.2,100.0,1.0,0.18,0.02650197541543009,0.2,1.0,-160.0,0,1,0,calibrating,0,0,0,0,0,0.0
1.8417071019994182,186,37.47,94.8,6.7,1.1,0.85,1.48,0.91,0.18,1.01,-0.02,-138.2,-156.8,-119.0,-0.74,4.42,0.05,0.0,1.0261091559868276,1.9341664871463367,0.0,0.0,2.0,0.45,0.6,1.2,100.0,1.0,0.18,0.019545786329646653,0.2,1.0,-160.0,0,1,0,calibrating,0,0,0,0,0,0.0
1.8519474059994536,187,37.48,94.8,6.9,1.0,0.93,1.57,0.87,0.19,0.99,-0.04,-139.9,-168.7,-121.0,-0.69,4.73,0.16,0.0,1.0088607436113273,2.02155880448727,0.0,0.0,2.0,0.45,0.6,1.2,100.0,1.0,0.18,0.0022514264750634894,0.2,1.0,-160.0,0,1,0,calibrating,0,0,0,0,0,0.0
1.8596113490002608,188,37.49,94.9,7.0,0.8,1.04,1.66,0.8,0.2,0.99,-0.05,-141.7,-180.5,-115.0,-0.64,5.04,0.0,0.0,1.011236866416568,2.1159395076419365,0.0,0.0,2.0,0.45,0.6,1.2,100.0,1.0,0.18,0.004534998294698278,0.2,1.0,-160.0,0,1,0,calibrating,0,0,0,0,0,0.0
1.87195541499932,189,37.5,95.0,7.2,0.6,1.24,1.77,0.8,0.21,1.01,-0.04,-143.5,-190.8,-96.0,-0.59,5.27,0.03,0.0,1.0323759005323594,2.304452212565928,0.0,0.0,2.0,0.45,0.6,1.2,100.0,1.0,0.18,0.025160551762279715,0.2,1.0,-160.0,0,1,0,calibrating,0,0,0,0,0,0.0
1.8796513519992004,190,37.51,95.1,7.3,0.5,1.36,1.9,0.72,0.2,1.0,-0.04,-145.5,-195.8,-47.0,-0.54,5.32,0.03,0.0,1.020588065773846,2.444994887520217,0.0,0.0,2.0,0.45,0.6,1.2,100.0,1.0,0.18,0.013105262663690942,0.2,1.0,-160.0,0,1,0,calibrating,0,0,0,0,0,0.0
1.8918303629998263,191,37.52,95.1,7.4,0.3,1.34,2.06,0.47,0.19,1.01,-0.05,-147.5,-195.3,-10.0,-0.48,5.29,-0.03,0.0,1.0289314845994362,2.5020191845787276,0.0,0.0,2.0,0.45,0.6,1.2,100.0,1.0,0.18,0.021019707859495584,0.2,1.0,-160.0,0,1,0,calibrating,0,0,0,0,0,0.0
1.899682451999979,192,37.53,95.2,7.5,0.0,1.26,2.39,0.15,0.18,1.03,-0.06,-149.4,-193.3,12.0,-0.43,5.22,-0.18,0.0,1.047329938462565,2.7059563928489316,0.0,0.0,2.0,0.45,0.6,1.2,100.0,1.0,0.18,0.03862979848817183,0.2,1.0,-160.0,0,1,0,calibrating,0,0,0,0,0,0.0
1.912002011000368,193,37.54,95.3,7.5,-0.1,1.07,2.75,-0.07,0.16,1.06,-0.04,-151.3,-191.1,23.0,-0.38,5.15,0.0,0.0,1.072753466552311,2.9516605495889934,0.0,0.0,2.0,0.45,0.6,1.2,100.0,1.0,0.18,0.06277226004635961,0.2,1.0,-160.0,0,1,0,calibrating,0,0,0,0,0,0.0
1.9196664760002022,194,37.55,95.3,7.6,-0.4,0.82,3.09,-0.24,0.13,1.06,-0.02,-153.2,-186.5,48.0,-0.33,4.98,0.13,0.0,1.068129205667554,3.2059475978250176,0.0,0.0,2.0,0.45,0.6,1.2,100.0,1.0,0.18,0.05698503917837061,0.2,1.0,-160.0,0,1,0,calibrating,0,0,0,0,0,0.0
1.9318275429995992,195,37.56,95.3,7.6,-0.8,0.58,3.3,-0.36,0.12,1.05,0.0,-155.0,-179.7,56.0,-0.28,4.81,-0.08,0.0,1.0568348972285122,3.3698664661971396,0.0,0.0,2.0,0.45,0.6,1.2,100.0,1.0,0.18,0.04477691612454193,0.2,1.0,-160.0,0,1,0,calibrating,0,0,0,0,0,0.0
1.9396692600003007,196,37.57,95.3,7.5,-1.1,0.45,3.39,-0.45,0.11,1.03,0.01,-156.8,-171.9,74.0,-0.23,4.57,0.06,0.0,1.035905401086412,3.449217302519515,0.0,0.0,2.0,0.45,0.6,1.2,100.0,1.0,0.18,0.02337047158279293,0.2,1.0,-160.0,0,1,0,calibrating,0,0,0,0,0,0.0
1.9517476000000897,197,37.58,95.2,7.5,-1.5,0.26,3.39,-0.56,0.1,1.01,0.02,-158.4,-163.5,81.0,-0.19,4.34,0.05,0.0,1.0151354589413177,3.4457655172689856,0.0,0.0,2.0,0.45,0.6,1.2,100.0,1.0,0.18,0.002548518848944692,0.2,1.0,-160.0,0,1,0,calibrating,0,0,0,0,0,0.0
1.9617643330002466,198,37.59,95.2,7.5,-1.8,0.12,3.4,-0.7,0.09,0.99,0.03,-160.0,-154.5,94.0,-0.15,4.06,-0.1,0.0,0.9945350672550466,3.473384516577455,0.0,0.0,2.0,0.45,0.6,1.2,100.0,1.0,0.18,0.017690835380580028,0.2,1.0,-160.0,0,1,0,calibrating,0,0,0,0,0,0.0
1.9719589100004669,199,37.6,95.1,7.4,-2.2,0.02,3.41,-0.86,0.06,0.96,0.04,-161.5,-143.6,106.0,-0.11,3.76,-0.06,0.0,0.9627045237246993,3.5168309598273275,0.0,0.0,2.0,0.45,0.6,1.2,100.0,1.0,0.18,0.048530951332708794,0.2,1.0,-160.0,0,1,0,calibrating,0,0,0,0,0,0.0
1.9796730469988688,200,37.61,95.1,7.4,-2.5,-0.07,3.38,-1.01,0.04,0.95,0.04,-162.8,-131.1,115.0,-0.07,3.44,-0.18,0.0,0.9516827202382105,3.528370728820881,0.0,0.0,2.0,0.45,0.6,1.2,100.0,1.0,0.18,0.05836169972281369,0.2,1.0,-160.0,0,1,0,calibrating,0,0,0,0,0,0.0
1.9917558489996736,201,37.62,95.0,7.3,-2.9,-0.19,3.37,-1.14,0.03,0.95,0.05,-164.1,-119.9,113.0,-0.04,3.12,-0.06,0.0,0.9517877914745492,3.562667539920053,0.0,0.0,2.0,0.45,0.6,1.2,100.0,1.0,0.18,0.05709149591674545,0.2,1.0,-160.0,0,1,0,calibrating,0,0,0,0,0,0.0
1.999594889999571,202,37.63,95.0,7.2,-3.2,-0.34,3.38,-1.21,0.01,0.95,0.04,-165.2,-109.4,105.0,-0.01,2.85,-0.14,0.0,0.9508943158942533,3.6061197983428115,0.0,0.0,2.0,0.45,0.6,1.2,100.0,1.0,0.18,0.05682527206710053,0.2,1.0,-160.0,0,1,0,calibrating,0,0,0,0,0,0.0
2.011745298999813,203,37.64,94.9,7.1,-3.6,-0.56,3.37,-1.17,0.0,0.93,0.04,-166.2,-100.9,85.0,0.0,2.65,0.0,0.0,0.9308598175880191,3.6110109387815483,0.0,0.0,2.0,0.45,0.6,1.2,100.0,1.0,0.18,0.07532257496586803,0.2,1.0,-160.0,0,1,0,calibrating,0,0,0,0,0,0.0
2.019626862000223,204,37.65,94.8,7.0,-3.9,-0.74,3.38,-1.13,-0.02,0.92,0.03,-167.2,-94.2,64.0,0.03,2.51,-0.18,0.0,0.9207062506576134,3.6399038448838175,0.0,0.0,2.0,0.45,0.6,1.2,100.0,1.0,0.18,0.08376661905834815,0.2,1.0,-160.0,0,1,0,calibrating,0,0,0,0,0,0.0
2.031654485999752,205,37.66,94.6,6.9,-4.2,-0.85,3.34,-1.04,-0.02,0.91,0.04,-168.1,-91.0,35.0,0.05,2.47,-0.2,0.0,0.9110982383914481,3.599958333092204,0.0,0.0,2.0,0.45,0.6,1.2,100.0,1.0,0.18,0.09150713869802307,0.2,1.0,-160.0,0,1,0,calibrating,0,0,0,0,0,0.0
2.041916752999896,206,37.67,94.5,6.9,-4.6,-0.91,3.31,-0.91,-0.02,0.92,0.04,-169.0,-89.8,20.0,0.08,2.41,0.04,0.0,0.9210863151735564,3.5513800134595566,0.0,0.0,2.0,0.45,0.6,1.2,100.0,1.0,0.18,0.07988868067759647,0.2,1.0,-160.0,0,1,0,calibrating,0,0,0,0,0,0.0
2.051583352000307,207,37.68,94.4,6.8,-4.9,-0.94,3.23,-0.77,-0.02,0.93,0.04,-169.9,-88.1,16.0,0.1,2.38,-0.03,0.0,0.9310746479203481,3.4509998551144565,0.0,0.0,2.0,0.45,0.6,1.2,100.0,1.0,0.18,0.06850234097218866,0.2,1.0,-160.0,0,1,0,calibrating,0,0,0,0,0,0.0
2.059460628999659,208,37.69,94.2,6.8,-5.3,-0.96,3.19,-0.65,-0.02,0.93,0.03,-170.7,-86.1,29.0,0.13,2.28,-0.04,0.0,0.9306986622962343,3.394142012350102,0.0,0.0,2.0,0.45,0.6,1.2,100.0,1.0,0.18,0.06750076006437644,0.2,1.0,-160.0,0,1,0,calibrating,0,0,0,0,0,0.0
2.0719849159995647,209,37.7,94.1,6.7,-5.6,-0.95,3.16,-0.58,-0.01,0.94,0.02,-171.6,-82.1,36.0,0.15,2.17,0.05,0.0,0.9402659198333203,3.350298494164363,0.0,0.0,2.0,0.45,0.6,1.2,100.0,1.0,0.18,0.05677483247674464,0.2,1.0,-160.0,0,1,0,calibrating,0,0,0,0,0,0.0
2.079661640998893,210,37.71,94.0,6.7,-5.9,-0.89,3.17,-0.5,0.0,0.96,0.02,-172.4,-76.8,49.0,0.17,2.02,-0.04,0.0,0.9602083107326242,3.330315300388238,0.0,0.0,2.0,0.45,0.6,1.2,100.0,1.0,0.18,0.03609579274589192,0.2,1.0,-160.0,0,1,0,calibrating,0,0,0,0,0,0.0
2.0917585999995936,211,37.72,93.9,6.7,-6.2,-0.8,3.18,-0.42,0.01,0.97,0.01,-173.1,-70.4,69.0,0.19,1.8,0.02,0.0,0.9701030873056739,3.3058735608005336,0.0,0.0,2.0,0.45,0.6,1.2,100.0,1.0,0.18,0.02567699584938543,0.2,1.0,-160.0,0,1,0,calibrating,0,0,0,0,0,0.0
2.0996143439988373,212,37.73,93.7,6.6,-6.5,-0.66,3.18,-0.36,0.02,0.98,0.0,-173.7,-60.7,93.0,0.2,1.51,-0.07,0.0,0.9802040603874276,3.267659713005625,0.0,0.0,2.0,0.45,0.6,1.2,100.0,1.0,0.18,0.015264502312279049,0.2,1.0,-160.0,0,1,0,calibrating,0,0,0,0,0,0.0
2.1118467220003367,213,37.74,93.6,6.6,-6.9,-0.52,3.16,-0.32,0.02,0.99,0.0,-174.3,-47.5,136.0,0.22,1.06,-0.04,0.0,0.9902019995940222,3.218446830382631,0.0,0.0,2.0,0.45,0.6,1.2,100.0,1.0,0.18,0.005161231843570757,0.2,1.0,-160.0,0,1,0,calibrating,0,0,0,0,0,0.0
2.119520262998776,214,37.75,93.5,6.6,-7.2,-0.4,3.11,-0.29,0.03,1.0,-0.01,-174.6,-27.7,188.0,0.22,0.48,-0.01,0.0,1.000499875062461,3.1489998412194304,0.0,0.0,2.0,0.45,0.6,1.2,100.0,1.0,0.18,0.005033910752370585,0.2,1.0,-160.0,0,1,0,calibrating,0,0,0,0,0,0.0
2.1319176489996607,215,37.76,93.4,6.5,-7.5,-0.24,3.03,-0.3,0.04,1.0,-0.01,-174.7,-2.9,225.0,0.22,-0.19,0.0,0.0,1.0008496390567367,3.0542593210138524,0.0,0.0,2.0,0.45,0.6,1.2,100.0,1.0,0.18,0.005276001251713458,0.2,1.0,-160.0,0,1,0,calibrating,0,0,0,0,0,0.0
2.139675004998935,216,37.77,93.4,6.5,-7.8,0.0,2.89,-0.37,0.05,1.01,-0.02,-174.6,12.2,141.0,0.22,-0.42,0.14,0.0,1.0114346246792225,2.9135888522576416,0.0,0.0,2.0,0.45,0.6,1.2,100.0,1.0,0.18,0.015543767136715236,0.2,1.0,-160.0,0,1,0,calibrating,0,0,0,0,0,0.0
2.15163641899926,217,37.78,93.3,6.4,-8.1,0.21,2.75,-0.48,0.06,1.03,-0.02,-174.4,19.3,93.0,0.21,-0.61,-0.04,0.0,1.0319399207318225,2.7994642344563005,0.0,0.0,2.0,0.45,0.6,1.2,100.0,1.0,0.18,0.03532808192552894,0.2,1.0,-160.0,0,1,0,calibrating,0,0,0,0,0,0.0
2.161679663000541,218,37.79,93.3,6.3,-8.4,0.31,2.65,-0.62,0.06,1.05,-0.03,-174.2,30.1,115.0,0.2,-0.97,0.01,0.0,1.0521406750050109,2.7391604553220317,0.0,0.0,2.0,0.45,0.6,1.2,100.0,1.0,0.18,0.05441825947474299,0.2,1.0,-160.0,0,1,0,calibrating,0,0,0,0,0,0.0
2.172080661999644,219,37.8,93.3,6.3,-8.6,0.21,2.59,-0.74,0.06,1.07,-0.04,-173.8,43.1,135.0,0.19,-1.37,-0.11,0.0,1.0724271537032248,2.701814205307241,0.0,0.0,2.0,0.45,0.6,1.2,100.0,1.0,0.18,0.07321064340949779,0.2,1.0,-160.0,0,1,0,calibrating,0,0,0,0,0,0.0
2.1794662800002698,220,37.81,93.3,6.2,-8.9,0.02,2.52,-0.84,0.05,1.06,-0.04,-173.2,59.6,167.0,0.18,-1.86,-0.12,0.0,1.0619322012256716,2.6563885257996427,0.0,0.0,2.0,0.45,0.6,1.2,100.0,1.0,0.18,0.06146137711330568,0.2,1.0,-160.0,0,1,0,calibrating,0,0,0,0,0,0.0
2.1917427459993633,221,37.82,93.2,6.1,-9.2,-0.1,2.41,-0.88,0.04,1.05,-0.03,-172.5,80.0,196.0,0.15,-2.44,-0.26,0.0,1.0511898020814319,2.5675864152935537,0.0,0.0,2.0,0.45,0.6,1.2,100.0,1.0,0.18,0.049704598409684664,0.2,1.0,-160.0,0,1,0,calibrating,0,0,0,0,0,0.0
2.1996438829992258,222,37.83,93.2,5.9,-9.4,-0.18,2.29,-0.89,0.03,1.04,-0.03,-171.6,103.0,216.0,0.12,-3.06,-0.13,0.0,1.0408650248711404,2.4634528613310223,0.0,0.0,2.0,0.45,0.6,1.2,100.0,1.0,0.18,0.03859222477540558,0.2,1.0,-160.0,0,1,0,calibrating,0,0,0,0,0,0.0
2.211721982999734,223,37.84,93.1,5.8,-9.6,-0.2,2.11,-0.88,0.02,1.02,-0.03,-170.4,123.8,207.0,0.09,-3.6,-0.2,0.0,1.0206370559606386,2.294885618064656,0.0,0.0,2.0,0.45,0.6,1.2,100.0,1.0,0.18,0.017996970747605756,0.2,1.0,-160.0,0,1,0,calibrating,0,0,0,0,0,0.0
2.2194632070004445,224,37.85,93.1,5.7,-9.8,-0.25,1.94,-0.88,0.02,1.01,-0.02,-169.0,144.4,212.0,0.05,-4.19,0.09,0.0,1.0103959619871805,2.1448776188864485,0.0,0.0,2.0,0.45,0.6,1.2,100.0,1.0,0.18,0.007600759238664434,0.2,1.0,-160.0,0,1,0,calibrating,0,0,0,0,0,0.0
2.2316232880002644,225,37.86,93.0,5.6,-10.0,-0.23,1.76,-0.91,0.02,0.99,-0.03,-167.4,164.8,201.0,0.0,-4.72,-0.03,0.0,0.9906563480844404,1.9946428251694588,0.0,0.0,2.0,0.45,0.6,1.2,100.0,1.0,0.18,0.011896077570794139,0.2,1.0,-160.0,0,1,0,calibrating,0,0,0,0,0,0.0
2.239656047999233,226,37.87,93.0,5.4,-10.2,-0.23,1.58,-0.95,0.01,0.98,-0.04,-165.6,186.2,216.0,-0.04,-5.34,-0.03,0.0,0.9808669634563089,1.8579020426276516,0.0,0.0,2.0,0.45,0.6,1.2,100.0,1.0,0.18,0.02125175295494708,0.2,1.0,-160.0,0,1,0,calibrating,0,0,0,0,0,0.0
2.2516328019992216,227,37.88,92.9,5.3,-10.4,-0.23,1.43,-1.0,0.01,0.97,-0.04,-163.6,210.2,239.0,-0.1,-6.02,-0.13,0.0,0.9708758932015976,1.7600568172647155,0.0,0.0,2.0,0.45,0.6,1.2,100.0,1.0,0.18,0.03061796674546524,0.2,1.0,-160.0,0,1,0,calibrating,0,0,0,0,0,0.0
2.2595641650004836,228,37.89,92.9,5.2,-10.5,-0.2,1.27,-1.04,0.01,0.96,-0.04,-161.3,234.3,230.0,-0.16,-6.63,0.11,0.0,0.9608850087289321,1.6536323654307206,0.0,0.0,2.0,0.45,0.6,1.2,100.0,1.0,0.18,0.0397966741937682,0.2,1.0,-160.0,0,1,0,calibrating,0,0,0,0,0,0.0
2.272078527999838,229,37.9,92.8,5.0,-10.6,-0.18,1.14,-1.08,0.01,0.96,-0.05,-158.8,254.4,200.0,-0.23,-7.13,-0.06,0.0,0.9613532129243653,1.580632784678339,0.0,0.0,2.0,0.45,0.6,1.2,100.0,1.0,0.18,0.03854190059836837,0.2,1.0,-160.0,0,1,0,calibrating,0,0,0,0,0,0.0
2.279489526999896,230,37.91,92.8,4.9,-10.7,-0.23,1.04,-1.11,0.01,0.97,-0.06,-156.2,271.9,188.0,-0.31,-7.62,-0.06,0.0,0.9719053451854249,1.5383757668398186,0.0,0.0,2.0,0.45,0.6,1.2,100.0,1.0,0.18,0.02742997297056249,0.2,1.0,-160.0,0,1,0,calibrating,0,0,0,0,0,0.0
2.2917448099997273,231,37.92,92.8,4.7,-10.8,-0.31,0.97,-1.09,0.02,0.96,-0.07,-153.3,290.5,188.0,-0.39,-8.14,-0.1,0.0,0.9627564593395361,1.491676908717166,0.0,0.0,2.0,0.45,0.6,1.2,100.0,1.0,0.18,0.0358472816401223,0.2,1.0,-160.0,0,1,0,calibrating,0,0,0,0,0,0.0
2.2996262659999047,232,37.93,92.8,4.6,-10.9,-0.4,0.91,-1.04,0.01,0.96,-0.08,-150.3,308.6,174.0,-0.47,-8.58,0.1,0.0,0.9633794683301071,1.4386451960090785,0.0,0.0,2.0,0.45,0.6,1.2,100.0,1.0,0.18,0.03451978719656024,0.2,1.0,-160.0,0,1,0,calibrating,0,0,0,0,0,0.0
2.3117031159999897,233,37.94,92.7,4.5,-11.0,-0.5,0.84,-0.99,0.01,0.95,-0.09,-147.1,326.5,189.0,-0.56,-9.13,-0.15,0.0,0.9543060305792895,1.3912943613772033,0.0,0.0,2.0,0.45,0.6,1.2,100.0,1.0,0.18,0.04272136044843022,0.2,1.0,-160.0,0,1,0,calibrating,0,0,0,0,0,0.0
2.3196776780005166,234,37.95,92.7,4.3,-11.1,-0.58,0.74,-0.89,0.0,0.95,-0.1,-143.7,347.4,185.0,-0.65,-9.62,-0.22,0.0,0.95524865872714,1.2946428078817724,0.0,0.0,2.0,0.45,0.6,1.2,100.0,1.0,0.18,0.04094315765456813,0.2,1.0,-160.0,0,1,0,calibrating,0,0,0,0,0,0.0
2.3317092199995386,235,37.96,92.7,4.2,-11.2,-0.6,0.63,-0.77,0.0,0.96,-0.11,-140.1,361.2,152.0,-0.75,-10.0,0.02,0.0,0.9662815324738437,1.161808934377766,0.0,0.0,2.0,0.45,0.6,1.2,100.0,1.0,0.18,0.02931207822970716,0.2,1.0,-160.0,0,1,0,calibrating,0,0,0,0,0,0.0
2.339622543999212,236,37.97,92.7,4.1,-11.2,-0.64,0.54,-0.66,0.0,0.98,-0.11,-136.4,378.7,175.0,-0.86,-10.52,-0.12,0.0,0.986154146165801,1.0662082348209472,0.0,0.0,2.0,0.45,0.6,1.2,100.0,1.0,0.18,0.009250675246994966,0.2,1.0,-160.0,0,1,0,calibrating,0,0,0,0,0,0.0
2.351688557999296,237,37.98,92.6,4.0,-11.3,-0.74,0.46,-0.54,0.0,1.0,-0.11,-132.5,390.4,89.0,-0.96,-10.6,0.09,0.0,1.0060318086422517,1.02508536229916,0.0,0.0,2.0,0.45,0.6,1.2,100.0,1.0,0.18,0.01041444748486664,0.2,1.0,-160.0,0,1,0,calibrating,0,0,0,0,0,0.0
2.359525615998791,238,37.99,92.6,3.9,-11.3,-0.95,0.38,-0.38,0.0,1.01,-0.1,-128.6,394.3,89.0,-1.07,-10.87,0.04,0.0,1.0149384217774002,1.0914669028422255,0.0,0.0,2.0,0.45,0.6,1.2,100.0,1.0,0.18,0.01893463940761486,0.2,1.0,-160.0,0,1,0,calibrating,0,0,0,0,0,0.0
2.3720194269990316,239,38.0,92.5,3.9,-11.4,-1.11,0.25,-0.25,-0.01,1.01,-0.1,-125.3,402.7,104.0,-1.18,-11.04,-0.11,0.0,1.0149876846543509,1.1649463506960311,0.0,0.0,2.0,0.45,0.6,1.2,100.0,1.0,0.18,0.0186042242388742,0.2,1.0,-160.0,0,1,0,calibrating,0,0,0,0,0,0.0
2.3794697699995595,240,38.01,92.4,3.8,-11.4,-1.17,0.1,-0.14,-0.01,1.0,-0.09,-120.5,401.1,-18.0,-1.29,-10.78,0.04,0.0,1.0040916292848974,1.1825819210524064,0.0,0.0,2.0,0.45,0.6,1.2,100.0,1.0,0.18,0.007554005492032334,0.2,1.0,-160.0,0,1,0,calibrating,0,0,0,0,0,0.0
2.3918887290001294,241,38.02,92.3,3.7,-11.4,-1.19,-0.09,-0.04,-0.01,0.99,-0.09,-116.5,390.8,-79.0,-1.4,-10.47,0.2,0.0,0.9941327879111522,1.1940686747419513,0.0,0.0,2.0,0.45,0.6,1.2,100.0,1.0,0.18,0.002356739164078525,0.2,1.0,-160.0,0,1,0,calibrating,0,0,0,0,0,0.0
2.3996902449998743,242,38.03,92.2,3.7,-11.4,-1.22,-0.27,0.04,0.0,0.99,-0.08,-112.8,372.3,-177.0,-1.5,-9.82,0.16,0.0,0.9932270636667125,1.2501599897613105,0.0,0.0,2.0,0.45,0.6,1.2,100.0,1.0,0.18,0.0031972141403479037,0.2,1.0,-160.0,0,1,0,calibrating,0,0,0,0,0,0.0
2.4117399629994907,243,38.04,92.1,3.7,-11.3,-1.3,-0.42,0.15,0.0,0.99,-0.08,-109.2,348.5,-218.0,-1.59,-9.17,0.1,0.0,0.9932270636667125,1.3743725841270262,0.0,0.0,2.0,0.45,0.6,1.2,100.0,1.0,0.18,0.0031332698575409212,0.2,1.0,-160.0,0,1,0,calibrating,0,0,0,0,0,0.0
2.419608218999201,244,38.05,92.0,3.6,-11.3,-1.31,-0.62,0.25,0.01,0.98,-0.07,-105.9,317.9,-310.0,-1.67,-8.16,0.35,0.0,0.98254770876533,1.4707141122597553,0.0,0.0,2.0,0.45,0.6,1.2,100.0,1.0,0.18,0.013536372263744934,0.2,1.0,-160.0,0,1,0,calibrating,0,0,0,0,0,0.0
2.4317730530001427,245,38.06,91.9,3.7,-11.2,-1.28,-0.78,0.33,0.03,0.98,-0.07,-103.0,278.5,-363.0,-1.75,-7.1,0.09,0.0,0.9829547293746543,1.5348289807011075,0.0,0.0,2.0,0.45,0.6,1.2,100.0,1.0,0.18,0.012866764621332183,0.2,1.0,-160.0,0,1,0,calibrating,0,0,0,0,0,0.0
2.439473045000341,246,38.07,91.8,3.7,-11.1,-1.23,-0.93,0.39,0.04,0.97,-0.07,-100.5,244.8,-325.0,-1.81,-6.3,0.12,0.0,0.973344748791506,1.5905659370173875,0.0,0.0,2.0,0.45,0.6,1.2,100.0,1.0,0.18,0.022027210300390898,0.2,1.0,-160.0,0,1,0,calibrating,0,0,0,0,0,0.0
2.4519506559990987,247,38.08,91.7,3.7,-11.0,-1.17,-1.04,0.44,0.05,0.98,-0.07,-98.2,218.1,-274.0,-1.87,-5.63,0.25,0.0,0.9837682653958705,1.6260688792299052,0.0,0.0,2.0,0.45,0.6,1.2,100.0,1.0,0.18,0.011371619822105883,0.2,1.0,-160.0,0,1,0,calibrating,0,0,0,0,0,0.0
2.4595812640000076,248,38.09,91.7,3.7,-10.9,-1.1,-1.1,0.48,0.05,0.98,-0.08,-96.2,194.1,-250.0,-1.92,-4.99,0.15,0.0,0.9845303448853163,1.628004913997498,0.0,0.0,2.0,0.45,0.6,1.2,100.0,1.0,0.18,0.010397349526006794,0.2,1.0,-160.0,0,1,0,calibrating,0,0,0,0,0,0.0
2.4718640179999056,249,38.1,91.6,3.8,-10.8,-1.07,-1.16,0.52,0.03,0.97,-0.09,-94.4,171.8,-222.0,-1.97,-4.44,-0.19,0.0,0.9746281342132496,1.6615956186750132,0.0,0.0,2.0,0.45,0.6,1.2,100.0,1.0,0.18,0.0198935689941121,0.2,1.0,-160.0,0,1,0,calibrating,0,0,0,0,0,0.0
2.479436779000025,250,38.11,91.5,3.8,-10.6,-1.02,-1.21,0.55,0.02,0.96,-0.09,-92.8,154.9,-173.0,-2.01,-4.04,-0.07,0.0,0.9644169222903546,1.6754103974847476,0.0,0.0,2.0,0.45,0.6,1.2,100.0,1.0,0.18,0.029502685298666953,0.2,1.0,-160.0,0,1,0,calibrating,0,0,0,0,0,0.0
2.4917557569988276,251,38.12,91.5,3.8,-10.5,-0.99,-1.3,0.6,0.01,0.97,-0.09,-91.4,140.1,-156.0,-2.05,-3.62,0.07,0.0,0.9742176348229383,1.7407182425654073,0.0,0.0,2.0,0.45,0.6,1.2,100.0,1.0,0.18,0.019307933310761527,0.2,1.0,-160.0,0,1,0,calibrating,0,0,0,0,0,0.0
2.4996354739996605,252,38.13,91.4,3.9,-10.4,-0.93,-1.41,0.67,0.0,0.97,-0.09,-90.1,124.9,-156.0,-2.08,-3.2,0.2,0.0,0.9741663102366043,1.817113094994365,0.0,0.0,2.0,0.45,0.6,1.2,100.0,1.0,0.18,0.01897207273915369,0.2,1.0,-160.0,0,1,0,calibrating,0,0,0,0,0,0.0
2.511739673998818,253,38.14,91.4,3.9,-10.2,-0.94,-1.55,0.7,0.0,0.96,-0.09,-88.9,109.1,-154.0,-2.11,-2.78,0.04,0.0,0.9642095207992918,1.9432189789110232,0.0,0.0,2.0,0.45,0.6,1.2,100.0,1.0,0.18,0.028350284932936898,0.2,1.0,-160.0,0,1,0,calibrating,0,0,0,0,0,0.0
2.5196666849988105,254,38.15,91.4,3.9,-10.0,-0.89,-1.74,0.73,0.01,0.96,-0.08,-87.9,95.2,-139.0,-2.14,-2.42,-0.05,0.0,0.9633794683301071,2.0862885706440517,0.0,0.0,2.0,0.45,0.6,1.2,100.0,1.0,0.18,0.028596730654079083,0.2,1.0,-160.0,0,1,0,calibrating,0,0,0,0,0,0.0
2.531762639999215,255,38.16,91.3,4.0,-9.9,-0.84,-1.86,0.72,0.01,0.97,-0.08,-87.1,83.5,-128.0,-2.16,-2.09,0.16,0.0,0.973344748791506,2.164162655624572,0.0,0.0,2.0,0.45,0.6,1.2,100.0,1.0,0.18,0.0182588211888266,0.2,1.0,-160.0,0,1,0,calibrating,0,0,0,0,0,0.0
2.5394648239998787,256,38.17,91.3,4.0,-9.7,-0.84,-1.94,0.72,0.01,0.96,-0.08,-86.3,70.2,-140.0,-2.18,-1.71,0.14,0.0,0.9633794683301071,2.2332935319836484,0.0,0.0,2.0,0.45,0.6,1.2,100.0,1.0,0.18,0.027659619617220965,0.2,1.0,-160.0,0,1,0,calibrating,0,0,0,0,0,0.0
2.551921776999734,257,38.18,91.3,4.0,-9.5,-0.85,-2.0,0.73,0.01,0.95,-0.07,-85.7,52.4,-171.0,-2.19,-1.18,0.04,0.0,0.9526279441628825,2.292465921229801,0.0,0.0,2.0,0.45,0.6,1.2,100.0,1.0,0.18,0.03764292090875665,0.2,1.0,-160.0,0,1,0,calibrating,0,0,0,0,0,0.0
2.5596122259994445,258,38.19,91.2,4.1,-9.2,-0.77,-2.07,0.8,0.01,0.93,-0.07,-85.4,30.3,-207.0,-2.2,-0.55,-0.02,0.0,0.9326842981416595,2.3489997871434554,0.0,0.0,2.0,0.45,0.6,1.2,100.0,1.0,0.18,0.05643483559138007,0.2,1.0,-160.0,0,1,0,calibrating,0,0,0,0,0,0.0
2.5718634909990215,259,38.2,91.2,4.1,-9.0,-0.56,-2.19,0.9,0.01,0.91,-0.06,-85.2,6.1,-231.0,-2.2,0.11,0.11,0.0,0.9120307012376283,2.4330433617179947,0.0,0.0,2.0,0.45,0.6,1.2,100.0,1.0,0.18,0.07554666384550313,0.2,1.0,-160.0,0,1,0,calibrating,0,0,0,0,0,0.0
2.5818904129992006,260,38.21,91.2,4.2,-8.8,-0.31,-2.34,1.01,0.01,0.9,-0.07,-85.3,-7.6,-120.0,-2.2,0.24,-0.06,0.0,0.9027735042633894,2.5674500968860134,0.0,0.0,2.0,0.45,0.6,1.2,100.0,1.0,0.18,0.08310778360334714,0.2,1.0,-160.0,0,1,0,calibrating,0,0,0,0,0,0.0
2.591668261999075,261,38.22,91.2,4.3,-8.5,-0.11,-2.54,1.13,0.01,0.9,-0.08,-85.4,-9.5,-49.0,-2.19,0.26,-0.08,0.0,0.9036038955205982,2.782193379332213,0.0,0.0,2.0,0.45,0.6,1.2,100.0,1.0,0.18,0.08063184449921568,0.2,1.0,-160.0,0,1,0,calibrating,0,0,0,0,0,0.0
2.5996189759989647,262,38.23,91.3,4.3,-8.3,0.12,-2.73,1.24,0.01,0.89,-0.09,-85.5,-12.5,-60.0,-2.19,0.46,-0.17,0.0,0.8945948803788226,3.0008165555395085,0.0,0.0,2.0,0.45,0.6,1.2,100.0,1.0,0.18,0.08784804244817135,0.2,1.0,-160.0,0,1,0,calibrating,0,0,0,0,0,0.0
2.6120683289991575,263,38.24,91.4,4.4,-8.0,0.35,-2.98,1.3,0.01,0.9,-0.09,-85.7,-23.1,-86.0,-2.18,0.73,0.05,0.0,0.9045440840556087,3.27,0.0,0.0,2.0,0.45,0.6,1.2,100.0,1.0,0.18,0.07634086199595758,0.2,1.0,-160.0,0,1,0,calibrating,0,0,0,0,0,0.0
2.6193942919999245,264,38.25,91.5,4.5,-7.7,0.76,-3.26,1.26,0.04,0.9,-0.1,-85.9,-29.5,-69.0,-2.18,0.89,0.1,0.0,0.9064215354899728,3.5767023918688006,0.0,0.0,2.0,0.45,0.6,1.2,100.0,1.0,0.18,0.07297414235036159,0.2,1.0,-160.0,0,1,0,calibrating,0,0,0,0,0,0.0
2.63157781100017,265,38.26,91.7,4.6,-7.3,1.23,-3.44,1.12,0.06,0.92,-0.11,-86.3,-38.2,-92.0,-2.17,1.18,0.13,0.0,0.9284934033152847,3.8211124034762443,0.0,0.0,2.0,0.45,0.6,1.2,100.0,1.0,0.18,0.0498842290345487,0.2,1.0,-160.0,0,1,0,calibrating,0,0,0,0,0,0.0
2.6394285570004286,266,38.27,91.9,4.7,-7.0,1.56,-3.47,0.92,0.07,0.95,-0.14,-86.8,-52.2,-138.0,-2.15,1.64,-0.06,0.0,0.9628083921528727,3.914192126097032,0.0,0.0,2.0,0.45,0.6,1.2,100.0,1.0,0.18,0.015257855393021491,0.2,1.0,-160.0,0,1,0,calibrating,0,0,0,0,0,0.0
2.6518493570001738,267,38.28,92.2,4.8,-6.6,1.51,-3.37,0.77,0.07,0.98,-0.15,-87.4,-73.4,-198.0,-2.13,2.28,0.05,0.0,0.9938812806366764,3.772253968120386,0.0,0.0,2.0,0.45,0.6,1.2,100.0,1.0,0.18,0.015498732428966489,0.2,1.0,-160.0,0,1,0,calibrating,0,0,0,0,0,0.0
2.659560355999929,268,38.29,92.4,4.8,-6.3,1.38,-3.25,0.68,0.07,0.98,-0.14,-88.3,-96.3,-212.0,-2.1,2.88,0.0,0.0,0.9924212815130478,3.595733583011956,0.0,0.0,2.0,0.45,0.6,1.2,100.0,1.0,0.18,0.013757958639231127,0.2,1.0,-160.0,0,1,0,calibrating,0,0,0,0,0,0.0
2.671811877999062,269,38.3,92.6,4.9,-5.9,1.52,-3.24,0.61,0.08,0.96,-0.12,-89.4,-117.2,-211.0,-2.07,3.44,0.26,0.0,0.9707728879609278,3.6304407445928657,0.0,0.0,2.0,0.45,0.6,1.2,100.0,1.0,0.18,0.007732626214631111,0.2,1.0,-160.0,0,1,0,calibrating,0,0,0,0,0,0.0
2.681852923999031,270,38.31,92.9,4.9,-5.6,1.88,-3.28,0.46,0.11,0.97,-0.12,-90.8,-137.8,-202.0,-2.03,3.98,0.09,0.0,0.9835649444749441,3.8084642574140037,0.0,0.0,2.0,0.45,0.6,1.2,100.0,1.0,0.18,0.004958241693397536,0.2,1.0,-160.0,0,1,0,calibrating,0,0,0,0,0,0.0
2.6916716840005392,271,38.32,93.2,5.0,-5.3,2.27,-3.15,0.21,0.14,1.01,-0.12,-92.3,-153.6,-156.0,-1.99,4.31,-0.03,0.0,1.0266937225872184,3.8883801254506998,0.0,0.0,2.0,0.45,0.6,1.2,100.0,1.0,0.18,0.04712527940955835,0.2,1.0,-160.0,0,1,0,calibrating,0,0,0,0,0,0.0
2.7017207349999808,272,38.33,93.5,5.0,-5.0,2.43,-2.79,-0.09,0.17,1.07,-0.12,-93.9,-163.0,-94.0,-1.94,4.47,0.09,0.0,1.0900458705944442,3.700959335091376,0.0,0.0,2.0,0.45,0.6,1.2,100.0,1.0,0.18,0.1082678788684488,0.2,1.0,-160.0,0,1,0,calibrating,0,0,0,0,0,0.0
2.711594550999507,273,38.34,93.7,5.0,-4.7,2.23,-2.31,-0.39,0.19,1.1,-0.08,-95.5,-163.1,-12.0,-1.9,4.37,-0.26,0.0,1.1191514642799696,3.23436237920243,0.0,0.0,2.0,0.45,0.6,1.2,100.0,1.0,0.18,0.1346260031028944,0.2,1.0,-160.0,0,1,0,calibrating,0,0,0,0,0,0.0
2.719586989000163,274,38.35,94.0,5.0,-4.5,2.17,-1.8,-0.75,0.19,1.08,-0.05,-97.1,-152.5,92.0,-1.86,3.94,0.04,0.0,1.0977249200050074,2.9174303762043747,0.0,0.0,2.0,0.45,0.6,1.2,100.0,1.0,0.18,0.11093546965137357,0.2,1.0,-160.0,0,1,0,calibrating,0,0,0,0,0,0.0
2.7317033229992376,275,38.36,94.2,4.9,-4.4,2.73,-1.49,-1.22,0.2,1.08,-0.03,-98.5,-136.1,141.0,-1.82,3.49,-0.04,0.0,1.0987720418721985,3.3408681506458766,0.0,0.0,2.0,0.45,0.6,1.2,100.0,1.0,0.18,0.10974293968819326,0.2,1.0,-160.0,0,1,0,calibrating,0,0,0,0,0,0.0
2.7395533399994747,276,38.37,94.5,4.8,-4.2,3.04,-1.04,-1.66,0.22,1.14,-0.05,-99.7,-119.3,152.0,-1.79,3.06,-0.21,0.0,1.1621101496846156,3.616462359820713,0.0,0.0,2.0,0.45,0.6,1.2,100.0,1.0,0.18,0.16961942655059814,0.2,1.0,-160.0,0,1,0,calibrating,0,0,0,0,0,0.0
2.751837579999119,277,38.38,94.8,4.6,-4.2,2.72,-0.49,-1.86,0.18,1.2,-0.05,-100.8,-105.4,135.0,-1.76,2.72,-0.1,0.0,1.214454610102823,3.3313810949814795,0.0,0.0,2.0,0.45,0.6,1.2,100.0,1.0,0.18,0.2175246092294295,0.2,1.0,-160.0,0,1,0,calibrating,0,0,0,0,0,0.0
2.7597074519999296,278,38.39,95.0,4.4,-4.2,2.08,-0.23,-1.81,0.06,1.2,-0.02,-101.8,-95.9,97.0,-1.74,2.52,0.02,0.0,1.2016655108639842,2.766839352040519,0.0,0.0,2.0,0.45,0.6,1.2,100.0,1.0,0.18,0.20064079979077887,0.2,1.0,-160.0,0,1,0,calibrating,0,0,0,0,0,0.0
2.7720508399997925,279,38.4,95.2,4.2,-4.2,1.32,-0.38,-1.48,-0.05,1.18,0.02,-102.7,-88.8,78.0,-1.71,2.34,0.17,0.0,1.181228174401542,2.019207765436732,0.0,0.0,2.0,0.45,0.6,1.2,100.0,1.0,0.18,0.17659939406177005,0.2,1.0,-160.0,0,1,0,calibrating,0,0,0,0,0,0.0
2.7795867450004152,280,38.41,95.3,4.1,-4.1,1.16,-0.98,-1.03,-0.16,1.13,0.07,-103.6,-85.5,42.0,-1.69,2.29,-0.2,0.0,1.1434159348198711,1.8349114420047634,0.0,0.0,2.0,0.45,0.6,1.2,100.0,1.0,0.18,0.1360114113904971,0.2,1.0,-160.0,0,1,0,calibrating,0,0,0,0,0,0.0
2.7919087989994296,281,38.42,95.4,4.0,-4.0,1.45,-1.92,-0.58,-0.22,1.11,0.09,-104.4,-83.9,20.0,-1.67,2.27,0.0,0.0,1.135165186217407,2.4749343425634547,0.0,0.0,2.0,0.45,0.6,1.2,100.0,1.0,0.18,0.1252054495322723,0.2,1.0,-160.0,0,1,0,calibrating,0,0,0,0,0,0.0
2.7994571710005403,282,38.43,95.6,4.0,-3.7,1.76,-2.84,-0.2,-0.24,1.12,0.07,-105.3,-83.4,9.0,-1.65,2.27,0.08,0.0,1.1475626344561765,3.3471181634355247,0.0,0.0,2.0,0.45,0.6,1.2,100.0,1.0,0.18,0.13485083981562096,0.2,1.0,-160.0,0,1,0,calibrating,0,0,0,0,0,0.0
2.8114632580000034,283,38.44,95.8,3.9,-3.4,1.75,-3.45,0.02,-0.2,1.15,0.05,-106.1,-84.6,-2.0,-1.62,2.3,0.36,0.0,1.168332144554792,3.868513926561465,0.0,0.0,2.0,0.45,0.6,1.2,100.0,1.0,0.18,0.15250794291595193,0.2,1.0,-160.0,0,1,0,calibrating,0,0,0,0,0,0.0
2.821535277998919,284,38.45,96.0,3.9,-3.0,1.38,-3.86,0.19,-0.13,1.16,0.05,-106.9,-84.8,-2.0,-1.6,2.31,-0.01,0.0,1.168332144554792,4.103669089973021,0.0,0.0,2.0,0.45,0.6,1.2,100.0,1.0,0.18,0.14945778405763321,0.2,1.0,-160.0,0,1,0,calibrating,0,0,0,0,0,0.0
2.8315715810003894,285,38.46,96.1,3.9,-2.6,0.9,-4.1,0.32,-0.05,1.13,0.04,-107.8,-84.4,3.0,-1.58,2.28,0.02,0.0,1.1318127053536728,4.209798094920942,0.0,0.0,2.0,0.45,0.6,1.2,100.0,1.0,0.18,0.11067957795938344,0.2,1.0,-160.0,0,1,0,calibrating,0,0,0,0,0,0.0
2.839562601999205,286,38.47,96.2,3.9,-2.2,0.58,-4.26,0.42,0.01,1.07,0.05,-108.6,-83.7,12.0,-1.55,2.23,-0.02,0.0,1.0712142642814275,4.319768512316371,0.0,0.0,2.0,0.45,0.6,1.2,100.0,1.0,0.18,0.049079514149395376,0.2,1.0,-160.0,0,1,0,calibrating,0,0,0,0,0,0.0
2.8519690049997735,287,38.48,96.3,3.9,-1.8,0.39,-4.32,0.46,0.07,1.02,0.07,-109.4,-79.8,34.0,-1.53,2.1,0.37,0.0,1.024792661956554,4.361891791413446,0.0,0.0,2.0,0.45,0.6,1.2,100.0,1.0,0.18,0.002604753588031361,0.2,1.0,-160.0,0,1,0,calibrating,0,0,0,0,0,0.0
2.8617517099992256,288,38.49,96.4,3.9,-1.3,0.19,-4.28,0.47,0.11,0.98,0.09,-110.2,-74.5,48.0,-1.51,1.95,-0.07,0.0,0.9902524930541705,4.3099187927384435,0.0,0.0,2.0,0.45,0.6,1.2,100.0,1.0,0.18,0.03129670700806497,0.2,1.0,-160.0,0,1,0,calibrating,0,0,0,0,0,0.0
2.871766156000376,289,38.5,96.4,3.9,-0.9,-0.01,-4.28,0.5,0.14,0.93,0.1,-110.9,-69.7,41.0,-1.49,1.86,0.01,0.0,0.9457801012920498,4.309118239268911,0.0,0.0,2.0,0.45,0.6,1.2,100.0,1.0,0.18,0.07425371679478199,0.2,1.0,-160.0,0,1,0,calibrating,0,0,0,0,0,0.0
2.8818543260003935,290,38.51,96.4,3.9,-0.5,-0.2,-4.21,0.48,0.15,0.88,0.09,-111.6,-64.5,60.0,-1.48,1.65,0.15,0.0,0.897217922246318,4.241992456381788,0.0,0.0,2.0,0.45,0.6,1.2,100.0,1.0,0.18,0.12035957792370355,0.2,1.0,-160.0,0,1,0,calibrating,0,0,0,0,0,0.0
2.891601625000476,291,38.52,96.4,3.9,-0.1,-0.26,-4.16,0.45,0.15,0.85,0.1,-112.2,-56.2,71.0,-1.46,1.44,0.13,0.0,0.8689073598491382,4.192338249712206,0.0,0.0,2.0,0.45,0.6,1.2,100.0,1.0,0.18,0.14569673751446566,0.2,1.0,-160.0,0,1,0,calibrating,0,0,0,0,0,0.0
2.899469947000398,292,38.53,96.4,3.9,0.3,-0.29,-4.07,0.39,0.15,0.84,0.09,-112.7,-48.2,83.0,-1.45,1.19,0.0,0.0,0.8580209787645054,4.098914490447441,0.0,0.0,2.0,0.45,0.6,1.2,100.0,1.0,0.18,0.15345145622711653,0.2,1.0,-160.0,0,1,0,calibrating,0,0,0,0,0,0.0
2.912005942000178,293,38.54,96.4,3.9,0.7,-0.25,-3.93,0.31,0.15,0.84,0.08,-113.1,-37.7,97.0,-1.44,0.9,-0.06,0.0,0.857029754442633,3.9501265802503087,0.0,0.0,2.0,0.45,0.6,1.2,100.0,1.0,0.18,0.15135382693800903,0.2,1.0,-160.0,0,1,0,calibrating,0,0,0,0,0,0.0
2.919673865999357,294,38.55,96.4,3.8,1.0,-0.28,-3.72,0.24,0.16,0.86,0.07,-113.4,-26.1,119.0,-1.43,0.53,0.01,0.0,0.8775534171775528,3.7382348775859446,0.0,0.0,2.0,0.45,0.6,1.2,100.0,1.0,0.18,0.12821356091902758,0.2,1.0,-160.0,0,1,0,calibrating,0,0,0,0,0,0.0
2.9317679180003324,295,38.56,96.4,3.8,1.4,-0.31,-3.49,0.19,0.18,0.89,0.05,-113.5,-11.1,139.0,-1.43,0.12,0.0,0.0,0.9093954035511725,3.5088887129688224,0.0,0.0,2.0,0.45,0.6,1.2,100.0,1.0,0.18,0.09444414305449955,0.2,1.0,-160.0,0,1,0,calibrating,0,0,0,0,0,0.0
2.94362705399908,296,38.57,96.4,3.8,1.7,-0.33,-3.2,0.13,0.18,0.91,0.04,-113.6,1.0,112.0,-1.43,-0.12,0.09,0.0,0.9284934033152847,3.2195962479789295,0.0,0.0,2.0,0.45,0.6,1.2,100.0,1.0,0.18,0.07383922042457969,0.2,1.0,-160.0,0,1,0,calibrating,0,0,0,0,0,0.0
2.9516915759995754,297,38.58,96.4,3.8,2.0,-0.29,-2.94,0.06,0.18,0.93,0.04,-113.5,3.6,32.0,-1.43,-0.07,-0.03,0.0,0.9481033698917013,2.9548773240187147,0.0,0.0,2.0,0.45,0.6,1.2,100.0,1.0,0.18,0.05314466877119994,0.2,1.0,-160.0,0,1,0,calibrating,0,0,0,0,0,0.0
2.9616746789997705,298,38.59,96.4,3.8,2.3,-0.28,-2.71,0.02,0.18,0.94,0.03,-113.5,1.5,-2.0,-1.43,-0.01,0.03,0.0,0.9575489543621255,2.724499954120022,0.0,0.0,2.0,0.45,0.6,1.2,100.0,1.0,0.18,0.042825102614760246,0.2,1.0,-160.0,0,1,0,calibrating,0,0,0,0,0,0.0
2.97189187100048,299,38.6,96.4,3.7,2.6,-0.25,-2.5,-0.03,0.18,0.94,0.01,-113.5,0.6,-3.0,-1.43,-0.01,-0.11,0.0,0.9571311299921239,2.5126480055909144,0.0,0.0,2.0,0.45,0.6,1.2,100.0,1.0,0.18,0.04237806844506664,0.2,1.0,-160.0,0,1,0,calibrating,0,0,0,0,0,0.0
2.9796381010000914,300,38.61,96.4,3.7,2.8,-0.1,-2.29,-0.08,0.18,0.96,0.0,-113.5,0.2,-4.0,-1.43,0.0,-0.02,0.0,0.9767292357659824,2.293577990825688,0.0,0.0,2.0,0.45,0.6,1.2,100.0,1.0,0.18,0.022324363417783988,0.2,1.0,-160.0,0,1,0,calibrating,0,0,0,0,0,0.0
2.99166820299979,301,38.62,96.4,3.7,3.0,0.09,-2.06,-0.06,0.19,0.98,-0.02,-113.5,0.0,-5.0,-1.43,0.01,-0.1,0.0,0.9984487968844471,2.0628378511167567,0.0,0.0,2.0,0.45,0.6,1.2,100.0,1.0,0.18,0.0005927062533328531,0.2,1.0,-160.0,0,1,0,calibrating,0,0,0,0,0,0.0
2.999612118999721,302,38.63,96.4,3.6,3.2,0.23,-1.82,0.0,0.19,1.02,-0.03,-113.5,-0.1,3.0,-1.43,-0.01,0.12,0.0,1.0379788051786027,1.8344754018519847,0.0,0.0,2.0,0.45,0.6,1.2,100.0,1.0,0.18,0.038158556000006394,0.2,1.0,-160.0,0,1,0,calibrating,0,0,0,0,0,0.0
3.0118261229999916,303,38.64,96.5,3.6,3.4,0.22,-1.58,0.06,0.18,1.04,-0.04,-113.5,0.4,-4.0,-1.43,0.01,0.18,0.0,1.0562196741208716,1.5963708842245903,0.0,0.0,2.0,0.45,0.6,1.2,100.0,1.0,0.18,0.05527143644342969,0.2,1.0,-160.0,0,1,0,calibrating,0,0,0,0,0,0.0
3.019623930000307,304,38.65,96.5,3.6,3.5,0.14,-1.39,0.11,0.17,1.07,-0.05,-113.5,-0.4,3.0,-1.43,-0.01,0.19,0.0,1.084573648951513,1.4013564856951994,0.0,0.0,2.0,0.45,0.6,1.2,100.0,1.0,0.18,0.08195290304858993,0.2,1.0,-160.0,0,1,0,calibrating,0,0,0,0,0,0.0
3.0316925610004546,305,38.66,96.5,3.6,3.7,-0.03,-1.23,0.18,0.15,1.09,-0.06,-113.5,0.1,-1.0,-1.43,0.0,0.19,0.0,1.1019074371289088,1.2434629065637623,0.0,0.0,2.0,0.45,0.6,1.2,100.0,1.0,0.18,0.09730095740146583,0.2,1.0,-160.0,0,1,0,calibrating,0,0,0,0,0,0.0
3.041971447999458,306,38.67,96.5,3.7,3.8,-0.11,-1.09,0.28,0.12,1.11,-0.07,-113.5,-0.8,-9.0,-1.43,0.04,0.05,0.0,1.1186599125739691,1.130751962191532,0.0,0.0,2.0,0.45,0.6,1.2,100.0,1.0,0.18,0.11177236418959557,0.2,1.0,-160.0,0,1,0,calibrating,0,0,0,0,0,0.0
3.051548412999182,307,38.68,96.4,3.7,3.9,-0.09,-1.02,0.42,0.11,1.13,-0.08,-113.5,-2.4,-14.0,-1.43,0.09,0.03,0.0,1.1381564040148435,1.106752004741803,0.0,0.0,2.0,0.45,0.6,1.2,100.0,1.0,0.18,0.1286434785178605,0.2,1.0,-160.0,0,1,0,calibrating,0,0,0,0,0,0.0
3.0619263730004604,308,38.69,96.4,3.8,4.0,-0.15,-1.0,0.58,0.1,1.14,-0.07,-113.6,-5.1,-29.0,-1.43,0.2,0.12,0.0,1.146516463030514,1.1657186624567697,0.0,0.0,2.0,0.45,0.6,1.2,100.0,1.0,0.18,0.13426346678286039,0.2,1.0,-160.0,0,1,0,calibrating,0,0,0,0,0,0.0
3.0716622399995686,309,38.7,96.4,3.8,4.1,-0.35,-1.03,0.72,0.1,1.11,-0.06,-113.7,-11.6,-66.0,-1.43,0.43,-0.03,0.0,1.1161093136427096,1.304530566909032,0.0,0.0,2.0,0.45,0.6,1.2,100.0,1.0,0.18,0.10177919104715483,0.2,1.0,-160.0,0,1,0,calibrating,0,0,0,0,0,0.0
3.081856605998837,310,38.71,96.3,3.9,4.2,-0.61,-1.09,0.79,0.1,1.07,-0.05,-113.8,-20.4,-74.0,-1.42,0.64,0.02,0.0,1.0758252646224664,1.4779377524104322,0.0,0.0,2.0,0.45,0.6,1.2,100.0,1.0,0.18,0.06026523918637339,0.2,1.0,-160.0,0,1,0,calibrating,0,0,0,0,0,0.0
3.0914564649992826,311,38.72,96.2,4.0,4.3,-0.72,-1.14,0.83,0.11,1.02,-0.04,-114.1,-25.1,-51.0,-1.41,0.73,-0.14,0.0,1.0266937225872184,1.583319298183408,0.0,0.0,2.0,0.45,0.6,1.2,100.0,1.0,0.18,0.010911023208102888,0.2,1.0,-160.0,0,1,0,calibrating,0,0,0,0,0,0.0
3.0996184880004876,312,38.73,96.1,4.1,4.5,-0.71,-1.19,0.87,0.12,1.0,-0.04,-114.4,-29.0,-37.0,-1.4,0.82,0.15,0.0,1.0079682534683323,1.6361845861637982,0.0,0.0,2.0,0.45,0.6,1.2,100.0,1.0,0.18,0.007658156992567555,0.2,1.0,-160.0,0,1,0,calibrating,0,0,0,0,0,0.0
3.1119373700003052,313,38.74,96.0,4.2,4.6,-0.68,-1.2,0.92,0.12,0.98,-0.05,-114.7,-32.6,-39.0,-1.4,0.93,-0.04,0.0,0.9885848471426213,1.6579505420850165,0.0,0.0,2.0,0.45,0.6,1.2,100.0,1.0,0.18,0.026500732051913056,0.2,1.0,-160.0,0,1,0,calibrating,0,0,0,0,0,0.0
3.121723516000202,314,38.75,95.9,4.3,4.7,-0.64,-1.19,0.94,0.13,0.97,-0.05,-115.0,-36.7,-35.0,-1.39,1.02,-0.01,0.0,0.9799489782636644,1.6459951397255095,0.0,0.0,2.0,0.45,0.6,1.2,100.0,1.0,0.18,0.03443386891225242,0.2,1.0,-160.0,0,1,0,calibrating,0,0,0,0,0,0.0
3.131651988998783,315,38.76,95.8,4.4,4.8,-0.68,-1.13,0.95,0.14,0.96,-0.06,-115.4,-37.9,-14.0,-1.37,1.02,-0.05,0.0,0.9720082304178294,1.6253614982520042,0.0,0.0,2.0,0.45,0.6,1.2,100.0,1.0,0.18,0.04152712442292572,0.2,1.0,-160.0,0,1,0,calibrating,0,0,0,0,0,0.0
3.1396320439998817,316,38.77,95.7,4.6,5.0,-0.72,-1.04,0.93,0.15,0.95,-0.06,-115.8,-35.1,17.0,-1.37,0.92,0.19,0.0,0.9636389365317282,1.57,0.0,0.0,2.0,0.45,0.6,1.2,100.0,1.0,0.18,0.0488984899428464,0.2,1.0,-160.0,0,1,0,calibrating,0,0,0,0,0,0.0
3.1517956320003577,317,38.78,95.7,4.7,5.1,-0.79,-0.97,0.91,0.16,0.94,-0.06,-116.1,-32.1,32.0,-1.36,0.81,-0.07,0.0,0.9554056729996949,1.5469647701224485,0.0,0.0,2.0,0.45,0.6,1.2,100.0,1.0,0.18,0.05598911840538201,0.2,1.0,-160.0,0,1,0,calibrating,0,0,0,0,0,0.0
3.1597116559987626,318,38.79,95.6,4.8,5.2,-0.88,-0.89,0.88,0.16,0.94,-0.06,-116.4,-27.6,44.0,-1.35,0.67,0.02,0.0,0.9554056729996949,1.53,0.0,0.0,2.0,0.45,0.6,1.2,100.0,1.0,0.18,0.054869336037274286,0.2,1.0,-160.0,0,1,0,calibrating,0,0,0,0,0,0.0
3.171917391000534,319,38.8,95.5,5.0,5.3,-0.97,-0.8,0.85,0.15,0.92,-0.05,-116.6,-17.4,93.0,-1.35,0.33,-0.01,0.0,0.9334880824091971,1.517695621658045,0.0,0.0,2.0,0.45,0.6,1.2,100.0,1.0,0.18,0.07525118809521669,0.2,1.0,-160.0,0,1,0,calibrating,0,0,0,0,0,0.0
3.179634869000438,320,38.81,95.3,5.1,5.3,-1.02,-0.78,0.79,0.15,0.91,-0.05,-116.7,-8.8,76.0,-1.34,0.16,-0.1,0.0,0.9236341266973628,1.5076140089558732,0.0,0.0,2.0,0.45,0.6,1.2,100.0,1.0,0.18,0.08340304093091,0.2,1.0,-160.0,0,1,0,calibrating,0,0,0,0,0,0.0
3.19175537800038,321,38.82,95.2,5.2,5.4,-1.0,-0.79,0.71,0.15,0.91,-0.05,-116.7,-1.5,76.0,-1.34,-0.04,0.05,0.0,0.9236341266973628,1.4588351517563594,0.0,0.0,2.0,0.45,0.6,1.2,100.0,1.0,0.18,0.08173498011229186,0.2,1.0,-160.0,0,1,0,calibrating,0,0,0,0,0,0.0
3.201899580999452,322,38.83,95.1,5.3,5.5,-1.02,-0.82,0.61,0.15,0.91,-0.05,-116.7,1.2,20.0,-1.34,0.0,0.0,0.0,0.9236341266973628,1.443918280236108,0.0,0.0,2.0,0.45,0.6,1.2,100.0,1.0,0.18,0.08010028051004603,0.2,1.0,-160.0,0,1,0,calibrating,0,0,0,0,0,0.0
3.211581428999125,323,38.84,95.0,5.4,5.6,-1.03,-0.85,0.45,0.16,0.9,-0.05,-116.7,-0.2,6.0,-1.34,0.0,-0.05,0.0,0.9154780172128657,1.4092196422133776,0.0,0.0,2.0,0.45,0.6,1.2,100.0,1.0,0.18,0.0864912621946522,0.2,1.0,-160.0,0,1,0,calibrating,0,0,0,0,0,0.0
3.221636796999519,324,38.85,94.9,5.5,5.7,-1.02,-0.87,0.26,0.16,0.9,-0.05,-116.7,0.4,1.0,-1.34,0.0,-0.09,0.0,0.9154780172128657,1.3656134152826707,0.0,0.0,2.0,0.45,0.6,1.2,100.0,1.0,0.18,0.0847614369507591,0.2,1.0,-160.0,0,1,0,calibrating,0,0,0,0,0,0.0
3.231785742000284,325,38.86,94.8,5.5,5.8,-0.97,-0.86,0.11,0.17,0.9,-0.06,-116.7,0.1,0.0,-1.34,0.0,-0.04,0.0,0.9178779875342911,1.300999615680189,0.0,0.0,2.0,0.45,0.6,1.2,100.0,1.0,0.18,0.0807142372967472,0.2,1.0,-160.0,0,1,0,calibrating,0,0,0,0,0,0.0
3.241905240000051,326,38.87,94.7,5.6,5.9,-0.89,-0.82,-0.03,0.17,0.91,-0.07,-116.7,0.3,0.0,-1.34,0.0,0.09,0.0,0.9283856957105706,1.2105370708904373,0.0,0.0,2.0,0.45,0.6,1.2,100.0,1.0,0.18,0.06880239853805814,0.2,1.0,-160.0,0,1,0,calibrating,0,0,0,0,0,0.0
3.251435963999029,327,38.88,94.6,5.6,5.9,-0.85,-0.78,-0.13,0.17,0.93,-0.07,-116.7,0.6,2.0,-1.34,-0.01,0.09,0.0,0.9479978902930112,1.1609478885807063,0.0,0.0,2.0,0.45,0.6,1.2,100.0,1.0,0.18,0.04820639987650521,0.2,1.0,-160.0,0,1,0,calibrating,0,0,0,0,0,0.0
3.259601448000467,328,38.89,94.6,5.6,6.0,-0.86,-0.69,-0.2,0.18,0.94,-0.08,-116.7,0.1,-6.0,-1.34,0.0,-0.09,0.0,0.9604165762834375,1.120580206857144,0.0,0.0,2.0,0.45,0.6,1.2,100.0,1.0,0.18,0.035071959608357406,0.2,1.0,-160.0,0,1,0,calibrating,0,0,0,0,0,0.0
3.2721313999991253,329,38.9,94.5,5.7,6.1,-0.89,-0.58,-0.26,0.18,0.94,-0.09,-116.7,0.0,1.0,-1.34,0.0,-0.04,0.0,0.9613012014972206,1.0936635680134912,0.0,0.0,2.0,0.45,0.6,1.2,100.0,1.0,0.18,0.033503587706682714,0.2,1.0,-160.0,0,1,0,calibrating,0,0,0,0,0,0.0
3.2794859189998533,330,38.91,94.4,5.7,6.1,-0.92,-0.46,-0.33,0.18,0.95,-0.09,-116.7,0.1,-5.0,-1.34,0.01,-0.04,0.0,0.9710818709048171,1.0802314566795397,0.0,0.0,2.0,0.45,0.6,1.2,100.0,1.0,0.18,0.023248459933104537,0.2,1.0,-160.0,0,1,0,calibrating,0,0,0,0,0,0.0
3.2917306990002544,331,38.92,94.3,5.7,6.2,-0.9,-0.37,-0.4,0.17,0.95,-0.09,-116.7,0.0,1.0,-1.34,0.0,0.0,0.0,0.9692780818733084,1.0520931517693668,0.0,0.0,2.0,0.45,0.6,1.2,100.0,1.0,0.18,0.024551203985320957,0.2,1.0,-160.0,0,1,0,calibrating,0,0,0,0,0,0.0
3.299703270000464,332,38.93,94.3,5.7,6.2,-0.9,-0.31,-0.48,0.17,0.95,-0.09,-116.7,0.1,0.0,-1.34,0.0,-0.13,0.0,0.9692780818733084,1.0660675400742676,0.0,0.0,2.0,0.45,0.6,1.2,100.0,1.0,0.18,0.024060179905614487,0.2,1.0,-160.0,0,1,0,calibrating,0,0,0,0,0,0.0
3.3117828409995127,333,38.94,94.2,5.7,6.2,-0.84,-0.25,-0.57,0.16,0.95,-0.09,-116.7,-0.1,-3.0,-1.34,0.0,-0.04,0.0,0.9675742865537508,1.0454664030948102,0.0,0.0,2.0,0.45,0.6,1.2,100.0,1.0,0.18,0.02524869572066868,0.2,1.0,-160.0,0,1,0,calibrating,0,0,0,0,0,0.0
3.321772413999497,334,38.95,94.1,5.7,6.3,-0.8,-0.18,-0.65,0.15,0.96,-0.1,-116.7,0.0,-3.0,-1.34,0.02,-0.13,0.0,0.9767804256842988,1.0463746938836012,0.0,0.0,2.0,0.45,0.6,1.2,100.0,1.0,0.18,0.01572170545831819,0.2,1.0,-160.0,0,1,0,calibrating,0,0,0,0,0,0.0
3.3317073799989885,335,38.96,94.1,5.6,6.3,-0.75,-0.09,-0.72,0.14,0.96,-0.11,-116.7,-0.8,-3.0,-1.34,0.02,-0.04,0.0,0.9763708311906906,1.0435516278555652,0.0,0.0,2.0,0.45,0.6,1.2,100.0,1.0,0.18,0.015808673952887875,0.2,1.0,-160.0,0,1,0,calibrating,0,0,0,0,0,0.0
3.339636045999214,336,38.97,94.0,5.6,6.3,-0.74,0.0,-0.76,0.14,0.97,-0.12,-116.7,-0.5,2.0,-1.34,0.0,-0.05,0.0,0.9873702446397703,1.0607544484940894,0.0,0.0,2.0,0.45,0.6,1.2,100.0,1.0,0.18,0.004713075293731883,0.2,1.0,-160.0,0,1,0,calibrating,0,0,0,0,0,0.0
3.351693491000333,337,38.98,94.0,5.5,6.3,-0.67,0.11,-0.76,0.14,0.97,-0.12,-116.7,-0.9,-5.0,-1.34,0.03,0.01,0.0,0.9873702446397703,1.0191172650877818,0.0,0.0,2.0,0.45,0.6,1.2,100.0,1.0,0.18,0.004618813787857223,0.2,1.0,-160.0,0,1,0,calibrating,0,0,0,0,0,0.0
3.3596376059995237,338,38.99,93.9,5.5,6.2,-0.58,0.19,-0.75,0.13,0.96,-0.11,-116.7,-1.0,-5.0,-1.34,0.04,0.14,0.0,0.9749871794028884,0.9669539802906858,0.0,0.0,2.0,0.45,0.6,1.2,100.0,1.0,0.18,0.01666184144424443,0.2,1.0,-160.0,0,1,0,calibrating,0,0,0,0,0,0.0
3.371882170999015,339,39.0,93.9,5.4,6.2,-0.48,0.28,-0.72,0.13,0.96,-0.12,-116.8,-3.0,-28.0,-1.34,0.15,0.08,0.0,0.9761659694949419,0.9095053600721658,0.0,0.0,2.0,0.45,0.6,1.2,100.0,1.0,0.18,0.015173390325147085,0.2,1.0,-160.0,0,1,0,calibrating,0,0,0,0,0,0.0
3.383711434998986,340,39.01,93.9,5.4,6.2,-0.34,0.38,-0.66,0.13,0.95,-0.11,-116.8,-9.0,-53.0,-1.34,0.32,0.07,0.0,0.9651424765287248,0.8340263784797217,0.0,0.0,2.0,0.45,0.6,1.2,100.0,1.0,0.18,0.025672945625537014,0.2,1.0,-160.0,0,1,0,calibrating,0,0,0,0,0,0.0
3.3914487450001616,341,39.02,93.9,5.4,6.1,-0.18,0.45,-0.58,0.14,0.95,-0.11,-117.0,-12.8,-30.0,-1.34,0.35,-0.18,0.0,0.9665402216152207,0.7558438992278762,0.0,0.0,2.0,0.45,0.6,1.2,100.0,1.0,0.18,0.02378969652826024,0.2,1.0,-160.0,0,1,0,calibrating,0,0,0,0,0,0.0
3.399661395998919,342,39.03,93.9,5.3,6.1,-0.03,0.5,-0.51,0.15,0.94,-0.12,-117.1,-16.2,-48.0,-1.33,0.52,0.1,0.0,0.9594269122762816,0.7148426400264607,0.0,0.0,2.0,0.45,0.6,1.2,100.0,1.0,0.18,0.030284945749855186,0.2,1.0,-160.0,0,1,0,calibrating,0,0,0,0,0,0.0
3.4118386219997774,343,39.04,94.0,5.3,6.0,0.07,0.56,-0.45,0.16,0.93,-0.13,-117.3,-21.7,-48.0,-1.32,0.64,0.02,0.0,0.9525754563287887,0.7218032973047437,0.0,0.0,2.0,0.45,0.6,1.2,100.0,1.0,0.18,0.036393673663401294,0.2,1.0,-160.0,0,1,0,calibrating,0,0,0,0,0,0.0
3.421907177000321,344,39.05,94.0,5.3,6.0,0.19,0.67,-0.42,0.18,0.91,-0.14,-117.6,-27.3,-64.0,-1.32,0.85,-0.01,0.0,0.9381364506296512,0.8132650244538985,0.0,0.0,2.0,0.45,0.6,1.2,100.0,1.0,0.18,0.049816025775287986,0.2,1.0,-160.0,0,1,0,calibrating,0,0,0,0,0,0.0
3.4316761400004907,345,39.06,94.0,5.3,5.9,0.35,0.8,-0.39,0.2,0.91,-0.14,-117.9,-34.5,-62.0,-1.31,1.02,0.07,0.0,0.9421783270697751,0.9563472172804185,0.0,0.0,2.0,0.45,0.6,1.2,100.0,1.0,0.18,0.04485866634846081,0.2,1.0,-160.0,0,1,0,calibrating,0,0,0,0,0,0.0
3.441844052998931,346,39.07,94.0,5.2,5.8,0.46,0.99,-0.37,0.22,0.9,-0.16,-118.3,-40.6,-70.0,-1.3,1.22,0.0,0.0,0.9402127418834527,1.1526491226735047,0.0,0.0,2.0,0.45,0.6,1.2,100.0,1.0,0.18,0.045887766504087546,0.2,1.0,-160.0,0,1,0,calibrating,0,0,0,0,0,0.0
3.4516424739995273,347,39.08,94.1,5.2,5.7,0.62,1.19,-0.38,0.23,0.89,-0.17,-118.7,-49.4,-76.0,-1.28,1.43,0.04,0.0,0.9348261870529729,1.3945967159003352,0.0,0.0,2.0,0.45,0.6,1.2,100.0,1.0,0.18,0.05024883490787602,0.2,1.0,-160.0,0,1,0,calibrating,0,0,0,0,0,0.0
3.4596827320001466,348,39.09,94.1,5.2,5.5,0.71,1.5,-0.41,0.24,0.9,-0.19,-119.3,-54.9,-53.0,-1.27,1.53,-0.01,0.0,0.9506313691436865,1.7094443541689213,0.0,0.0,2.0,0.45,0.6,1.2,100.0,1.0,0.18,0.0337547797608192,0.2,1.0,-160.0,0,1,0,calibrating,0,0,0,0,0,0.0
3.4718720109995047,349,39.1,94.2,5.1,5.4,0.83,1.81,-0.38,0.23,0.93,-0.18,-119.8,-57.8,-39.0,-1.25,1.61,0.04,0.0,0.9747820269167873,2.0271655087831384,0.0,0.0,2.0,0.45,0.6,1.2,100.0,1.0,0.18,0.009412039547964102,0.2,1.0,-160.0,0,1,0,calibrating,0,0,0,0,0,0.0
3.4835717219993967,350,39.11,94.3,5.1,5.2,0.92,2.13,-0.3,0.21,0.96,-0.18,-120.4,-62.3,-47.0,-1.23,1.75,0.12,0.0,0.9990495483208027,2.3395084953895764,0.0,0.0,2.0,0.45,0.6,1.2,100.0,1.0,0.18,0.014558372218930304,0.2,1.0,-160.0,0,1,0,calibrating,0,0,0,0,0,0.0
3.4917096070003026,351,39.12,94.3,5.1,4.9,0.98,2.4,-0.2,0.18,0.98,-0.18,-121.1,-67.5,-46.0,-1.22,1.88,0.2,0.0,1.0125216047077712,2.600076921939041,0.0,0.0,2.0,0.45,0.6,1.2,100.0,1.0,0.18,0.027469820033780845,0.2,1.0,-160.0,0,1,0,calibrating,0,0,0,0,0,0.0
3.4996546040001704,352,39.13,94.4,5.1,4.7,0.99,2.62,-0.08,0.14,1.01,-0.15,-121.8,-70.7,-26.0,-1.2,1.93,0.06,0.0,1.030630874755846,2.8019457525084244,0.0,0.0,2.0,0.45,0.6,1.2,100.0,1.0,0.18,0.04466750828021848,0.2,1.0,-160.0,0,1,0,calibrating,0,0,0,0,0,0.0
3.5117017829998076,353,39.14,94.5,5.2,4.4,0.96,2.7,0.07,0.11,1.02,-0.13,-122.5,-72.5,-29.0,-1.18,2.01,0.04,0.0,1.034117981663601,2.8664437897855244,0.0,0.0,2.0,0.45,0.6,1.2,100.0,1.0,0.18,0.04719152288421413,0.2,1.0,-160.0,0,1,0,calibrating,0,0,0,0,0,0.0
3.5196558520001417,354,39.15,94.6,5.2,4.1,0.96,2.63,0.21,0.09,1.0,-0.11,-123.3,-77.0,-39.0,-1.16,2.15,0.17,0.0,1.0100495037373167,2.8075968371545086,0.0,0.0,2.0,0.45,0.6,1.2,100.0,1.0,0.18,0.02266058405877125,0.2,1.0,-160.0,0,1,0,calibrating,0,0,0,0,0,0.0
3.531934996999553,355,39.16,94.7,5.2,3.9,0.95,2.47,0.28,0.07,0.96,-0.11,-124.1,-83.0,-58.0,-1.13,2.33,0.01,0.0,0.9688137075826291,2.6611651583469977,0.0,0.0,2.0,0.45,0.6,1.2,100.0,1.0,0.18,0.018203707853998052,0.2,1.0,-160.0,0,1,0,calibrating,0,0,0,0,0,0.0
3.541779131999647,356,39.17,94.8,5.3,3.7,1.09,2.26,0.3,0.05,0.94,-0.1,-125.0,-89.1,-59.0,-1.11,2.49,0.01,0.0,0.9466255859631092,2.5269942619642016,0.0,0.0,2.0,0.45,0.6,1.2,100.0,1.0,0.18,0.03958399288404757,0.2,1.0,-160.0,0,1,0,calibrating,0,0,0,0,0,0.0
3.551818783998897,357,39.18,94.9,5.3,3.5,1.35,2.03,0.36,0.04,0.94,-0.1,-125.9,-95.0,-59.0,-1.08,2.65,0.32,0.0,0.9461500938011896,2.464345754962156,0.0,0.0,2.0,0.45,0.6,1.2,100.0,1.0,0.18,0.03925829534504777,0.2,1.0,-160.0,0,1,0,calibrating,0,0,0,0,0,0.0
3.5596094069987885,358,39.19,95.1,5.3,3.3,1.66,1.75,0.48,0.04,0.98,-0.09,-126.9,-104.5,-91.0,-1.05,2.96,-0.16,0.0,0.9849365461794988,2.4593698379869586,0.0,0.0,2.0,0.45,0.6,1.2,100.0,1.0,0.18,0.0004624061074038899,0.2,1.0,-160.0,0,1,0,calibrating,0,0,0,0,0,0.0
3.571863385999677,359,39.2,95.2,5.4,3.1,1.77,1.48,0.69,0.04,1.06,-0.08,-128.0,-114.1,-96.0,-1.02,3.23,0.06,0.0,1.063766891757776,2.40819434431692,0.0,0.0,2.0,0.45,0.6,1.2,100.0,1.0,0.18,0.0768005806814559,0.2,1.0,-160.0,0,1,0,calibrating,0,0,0,0,0,0.0
3.581644886000504,360,39.21,95.4,5.4,3.0,1.69,1.29,1.01,0.03,1.14,-0.07,-129.2,-124.2,-100.0,-0.99,3.51,-0.02,0.0,1.1425410277097272,2.353784187218531,0.0,0.0,2.0,0.45,0.6,1.2,100.0,1.0,0.18,0.15246322230073917,0.2,1.0,-160.0,0,1,0,calibrating,0,0,0,0,0,0.0
3.5917748989995744,361,39.22,95.5,5.5,2.9,1.45,1.08,1.4,0.01,1.19,-0.05,-130.6,-135.8,-114.0,-0.95,3.85,0.11,0.0,1.191091935998225,2.2866788143506294,0.0,0.0,2.0,0.45,0.6,1.2,100.0,1.0,0.18,0.196993847977452,0.2,1.0,-160.0,0,1,0,calibrating,0,0,0,0,0,0.0
3.6018617049994646,362,39.23,95.6,5.7,2.8,1.15,0.82,1.74,0.0,1.2,-0.04,-132.0,-149.9,-144.0,-0.91,4.28,0.14,0.0,1.2006664815842907,2.2410934831014973,0.0,0.0,2.0,0.45,0.6,1.2,100.0,1.0,0.18,0.2024370256922473,0.2,1.0,-160.0,0,1,0,calibrating,0,0,0,0,0,0.0
3.6116148179989978,363,39.24,95.7,5.9,2.8,0.79,0.52,1.96,0.02,1.18,-0.01,-133.6,-165.8,-150.0,-0.86,4.69,0.11,0.0,1.1802118453904789,2.1762582567333317,0.0,0.0,2.0,0.45,0.6,1.2,100.0,1.0,0.18,0.17834274170846687,0.2,1.0,-160.0,0,1,0,calibrating,0,0,0,0,0,0.0
3.6196858049988805,364,39.25,95.8,6.1,2.7,0.44,0.25,2.08,0.05,1.13,0.0,-135.4,-181.6,-151.0,-0.81,5.11,-0.02,0.0,1.1311056537742175,2.1406774628607645,0.0,0.0,2.0,0.45,0.6,1.2,100.0,1.0,0.18,0.12665181909036138,0.2,1.0,-160.0,0,1,0,calibrating,0,0,0,0,0,0.0
3.631858602999273,365,39.26,95.8,6.3,2.7,0.29,0.06,2.0,0.09,1.05,0.0,-137.3,-195.3,-138.0,-0.76,5.47,0.15,0.0,1.0538500842150178,2.0218061232472317,0.0,0.0,2.0,0.45,0.6,1.2,100.0,1.0,0.18,0.04840832454053845,0.2,1.0,-160.0,0,1,0,calibrating,0,0,0,0,0,0.0
3.639486129999568,366,39.27,95.8,6.5,2.8,0.4,-0.07,1.82,0.15,0.99,0.0,-139.4,-207.4,-126.0,-0.7,5.79,0.14,0.0,1.0012991560967182,1.8647519942340858,0.0,0.0,2.0,0.45,0.6,1.2,100.0,1.0,0.18,0.004059751506205966,0.2,1.0,-160.0,0,1,0,calibrating,0,0,0,0,0,0.0
3.651962308000293,367,39.28,95.8,6.7,2.8,0.66,-0.1,1.59,0.21,0.95,0.0,-141.5,-220.7,-133.0,-0.64,6.16,0.08,0.0,0.9729337079164233,1.7244419387152472,0.0,0.0,2.0,0.45,0.6,1.2,100.0,1.0,0.18,0.03177669569277075,0.2,1.0,-160.0,0,1,0,calibrating,0,0,0,0,0,0.0
3.6618758909989992,368,39.29,95.9,6.8,2.8,0.99,0.04,1.31,0.25,0.95,0.0,-143.8,-231.9,-104.0,-0.58,6.39,-0.02,0.0,0.982344135219425,1.642498097411379,0.0,0.0,2.0,0.45,0.6,1.2,100.0,1.0,0.18,0.021918943021973614,0.2,1.0,-160.0,0,1,0,calibrating,0,0,0,0,0,0.0
3.671668769999087,369,39.3,96.0,6.9,2.8,1.26,0.37,1.03,0.28,0.96,-0.03,-146.2,-236.3,-41.0,-0.51,6.4,-0.1,0.0,1.0004498987955368,1.6689517668285085,0.0,0.0,2.0,0.45,0.6,1.2,100.0,1.0,0.18,0.003736915856944467,0.2,1.0,-160.0,0,1,0,calibrating,0,0,0,0,0,0.0
3.679568071000176,370,39.31,96.2,7.0,2.7,1.36,0.89,0.71,0.29,0.98,-0.05,-148.5,-234.8,0.0,-0.45,6.35,0.13,0.0,1.0232301793829186,1.77364032430479,0.0,0.0,2.0,0.45,0.6,1.2,100.0,1.0,0.18,0.018662497435828485,0.2,1.0,-160.0,0,1,0,calibrating,0,0,0,0,0,0.0
3.6919400240003597,371,39.32,96.3,7.1,2.6,1.23,1.46,0.5,0.3,1.02,-0.06,-150.9,-231.5,25.0,-0.39,6.24,-0.04,0.0,1.0648943609579309,1.9734487578855449,0.0,0.0,2.0,0.45,0.6,1.2,100.0,1.0,0.18,0.05912014543062405,0.2,1.0,-160.0,0,1,0,calibrating,0,0,0,0,0,0.0
3.7019212979994336,372,39.33,96.4,7.1,2.4,1.1,2.08,0.36,0.29,1.05,-0.06,-153.2,-225.9,54.0,-0.33,6.04,-0.02,0.0,1.0909628774619236,2.380336110720501,0.0,0.0,2.0,0.45,0.6,1.2,100.0,1.0,0.18,0.0834848886959243,0.2,1.0,-160.0,0,1,0,calibrating,0,0,0,0,0,0.0
3.711618973999066,373,39.34,96.4,7.2,2.2,0.86,2.72,0.27,0.27,1.07,-0.04,-155.4,-217.5,80.0,-0.27,5.78,-0.23,0.0,1.1042644610780517,2.8654668031579082,0.0,0.0,2.0,0.45,0.6,1.2,100.0,1.0,0.18,0.09485074286581141,0.2,1.0,-160.0,0,1,0,calibrating,0,0,0,0,0,0.0
3.7196315479995974,374,39.35,96.5,7.3,1.9,0.58,3.26,0.19,0.23,1.08,-0.02,-157.5,-207.2,93.0,-0.21,5.51,-0.06,0.0,1.1044002897500524,3.316639865888366,0.0,0.0,2.0,0.45,0.6,1.2,100.0,1.0,0.18,0.09308684010705592,0.2,1.0,-160.0,0,1,0,calibrating,0,0,0,0,0,0.0
3.731781057000262,375,39.36,96.5,7.3,1.6,0.31,3.66,0.12,0.19,1.09,0.0,-159.5,-195.5,118.0,-0.16,5.13,-0.16,0.0,1.1064357188738982,3.675064625282119,0.0,0.0,2.0,0.45,0.6,1.2,100.0,1.0,0.18,0.0932198238462838,0.2,1.0,-160.0,0,1,0,calibrating,0,0,0,0,0,0.0
3.7418598330004897,376,39.37,96.4,7.4,1.2,-0.04,3.9,0.03,0.14,1.07,0.02,-161.3,-182.2,130.0,-0.11,4.78,0.1,0.0,1.0793053321465618,3.9003204996512784,0.0,0.0,2.0,0.45,0.6,1.2,100.0,1.0,0.18,0.06476764837656845,0.2,1.0,-160.0,0,1,0,calibrating,0,0,0,0,0,0.0
3.7516607319994364,377,39.38,96.4,7.4,0.8,-0.3,4.01,-0.07,0.09,1.03,0.05,-163.0,-165.1,162.0,-0.07,4.28,-0.14,0.0,1.035132841716463,4.02181551043804,0.0,0.0,2.0,0.45,0.6,1.2,100.0,1.0,0.18,0.02018325478754024,0.2,1.0,-160.0,0,1,0,calibrating,0,0,0,0,0,0.0
3.7595984389990917,378,39.39,96.3,7.4,0.4,-0.34,3.94,-0.2,0.06,1.01,0.07,-164.6,-147.4,168.0,-0.03,3.8,0.08,0.0,1.0141991914806479,3.959696958101718,0.0,0.0,2.0,0.45,0.6,1.2,100.0,1.0,0.18,0.0007353875393092402,0.2,1.0,-160.0,0,1,0,calibrating,0,0,0,0,0,0.0
3.7717027999988204,379,39.4,96.2,7.5,0.0,-0.26,3.81,-0.36,0.05,0.98,0.07,-165.9,-131.3,153.0,0.0,3.41,-0.1,0.0,0.9837682653958705,3.835791965161823,0.0,0.0,2.0,0.45,0.6,1.2,100.0,1.0,0.18,0.030542987351604878,0.2,1.0,-160.0,0,1,0,calibrating,0,0,0,0,0,0.0
3.7820111629989697,380,39.41,96.1,7.4,-0.3,-0.17,3.67,-0.52,0.04,0.96,0.08,-167.1,-119.3,121.0,0.03,3.13,-0.13,0.0,0.964157663455516,3.7105525195043394,0.0,0.0,2.0,0.45,0.6,1.2,100.0,1.0,0.18,0.049150517506120206,0.2,1.0,-160.0,0,1,0,calibrating,0,0,0,0,0,0.0
3.7916084289990977,381,39.42,96.1,7.4,-0.7,-0.19,3.59,-0.66,0.04,0.95,0.07,-168.3,-110.3,97.0,0.06,2.89,-0.06,0.0,0.9534149149242422,3.6551060176142633,0.0,0.0,2.0,0.45,0.6,1.2,100.0,1.0,0.18,0.05869540071664625,0.2,1.0,-160.0,0,1,0,calibrating,0,0,0,0,0,0.0
3.7994688380003936,382,39.43,96.0,7.4,-1.0,-0.14,3.57,-0.69,0.04,0.94,0.05,-169.3,-102.8,83.0,0.09,2.7,-0.01,0.0,0.942178327069775,3.638763526254489,0.0,0.0,2.0,0.45,0.6,1.2,100.0,1.0,0.18,0.06853334879969109,0.2,1.0,-160.0,0,1,0,calibrating,0,0,0,0,0,0.0
3.811959143000422,383,39.44,95.9,7.4,-1.4,0.04,3.56,-0.74,0.03,0.93,0.05,-170.3,-95.7,67.0,0.11,2.54,-0.09,0.0,0.9318261640456336,3.6363168178804224,0.0,0.0,2.0,0.45,0.6,1.2,100.0,1.0,0.18,0.07730780158735584,0.2,1.0,-160.0,0,1,0,calibrating,0,0,0,0,0,0.0
3.819664587999796,384,39.45,95.9,7.3,-1.8,0.18,3.53,-0.77,0.03,0.94,0.04,-171.2,-89.2,67.0,0.14,2.34,0.0,0.0,0.9413288479590965,3.6174853144138677,0.0,0.0,2.0,0.45,0.6,1.2,100.0,1.0,0.18,0.06644901532041503,0.2,1.0,-160.0,0,1,0,calibrating,0,0,0,0,0,0.0
3.8319367989988677,385,39.46,95.9,7.3,-2.1,0.18,3.53,-0.81,0.02,0.96,0.03,-172.1,-82.9,61.0,0.16,2.18,-0.35,0.0,0.9606768447297978,3.6262101428350784,0.0,0.0,2.0,0.45,0.6,1.2,100.0,1.0,0.18,0.0461589981787196,0.2,1.0,-160.0,0,1,0,calibrating,0,0,0,0,0,0.0
3.8419078379993152,386,39.47,95.9,7.2,-2.5,0.06,3.52,-0.83,0.02,0.97,0.02,-172.9,-78.6,47.0,0.18,2.08,0.17,0.0,0.9704122835166504,3.617029167701029,0.0,0.0,2.0,0.45,0.6,1.2,100.0,1.0,0.18,0.03569508820402967,0.2,1.0,-160.0,0,1,0,calibrating,0,0,0,0,0,0.0
3.851687143998788,387,39.48,95.8,7.2,-2.9,-0.1,3.54,-0.85,0.02,0.98,0.02,-173.6,-73.8,48.0,0.2,1.95,0.18,0.0,0.9804080783020914,3.6419912136082924,0.0,0.0,2.0,0.45,0.6,1.2,100.0,1.0,0.18,0.02518530755021675,0.2,1.0,-160.0,0,1,0,calibrating,0,0,0,0,0,0.0
3.861971084999823,388,39.49,95.7,7.1,-3.2,-0.25,3.54,-0.84,0.01,0.98,0.01,-174.3,-68.3,56.0,0.22,1.77,-0.01,0.0,0.9801020355044672,3.646875374892869,0.0,0.0,2.0,0.45,0.6,1.2,100.0,1.0,0.18,0.024981523340884326,0.2,1.0,-160.0,0,1,0,calibrating,0,0,0,0,0,0.0
3.8716765209992445,389,39.5,95.7,7.1,-3.6,-0.34,3.5,-0.83,0.01,0.98,0.0,-175.0,-62.9,47.0,0.24,1.67,-0.26,0.0,0.9800510190801293,3.613101161052649,0.0,0.0,2.0,0.45,0.6,1.2,100.0,1.0,0.18,0.02453188896991776,0.2,1.0,-160.0,0,1,0,calibrating,0,0,0,0,0,0.0
3.881914556999618,390,39.51,95.6,7.0,-3.9,-0.37,3.44,-0.83,0.01,0.98,0.0,-175.6,-59.0,54.0,0.25,1.5,0.03,0.0,0.9800510190801293,3.558005059018326,0.0,0.0,2.0,0.45,0.6,1.2,100.0,1.0,0.18,0.024041251190519475,0.2,1.0,-160.0,0,1,0,calibrating,0,0,0,0,0,0.0
3.891505354000401,391,39.52,95.5,7.0,-4.3,-0.32,3.38,-0.83,0.01,0.98,0.0,-176.1,-48.6,101.0,0.27,1.15,0.06,0.0,0.9800510190801293,3.49509656518958,0.0,0.0,2.0,0.45,0.6,1.2,100.0,1.0,0.18,0.02356042616670906,0.2,1.0,-160.0,0,1,0,calibrating,0,0,0,0,0,0.0
3.901843232999454,392,39.53,95.4,6.9,-4.6,-0.28,3.3,-0.82,0.01,0.98,0.0,-176.5,-30.9,170.0,0.27,0.57,-0.19,0.0,0.9800510190801293,3.4118616619083486,0.0,0.0,2.0,0.45,0.6,1.2,100.0,1.0,0.18,0.023089217643374793,0.2,1.0,-160.0,0,1,0,calibrating,0,0,0,0,0,0.0
3.911617023999497,393,39.54,95.4,6.9,-5.0,-0.16,3.19,-0.86,0.01,0.98,0.0,-176.6,-10.6,181.0,0.28,0.07,0.0,0.0,0.9800510190801293,3.307763594938429,0.0,0.0,2.0,0.45,0.6,1.2,100.0,1.0,0.18,0.022627433290507204,0.2,1.0,-160.0,0,1,0,calibrating,0,0,0,0,0,0.0
3.9196249839988013,394,39.55,95.3,6.8,-5.3,0.01,3.03,-0.89,0.02,0.99,0.0,-176.6,3.4,121.0,0.27,-0.15,0.03,0.0,0.9902019995940222,3.1580215325421706,0.0,0.0,2.0,0.45,0.6,1.2,100.0,1.0,0.18,0.012226923721082028,0.2,1.0,-160.0,0,1,0,calibrating,0,0,0,0,0,0.0
3.931954247000249,395,39.56,95.3,6.8,-5.6,0.23,2.84,-0.95,0.02,1.01,-0.01,-176.5,9.4,85.0,0.27,-0.34,0.03,0.0,1.010247494428964,3.0034979607118095,0.0,0.0,2.0,0.45,0.6,1.2,100.0,1.0,0.18,0.007662199691582661,0.2,1.0,-160.0,0,1,0,calibrating,0,0,0,0,0,0.0
3.9420037580002827,396,39.57,95.3,6.7,-5.9,0.38,2.67,-1.02,0.02,1.02,-0.02,-176.4,18.8,102.0,0.27,-0.65,-0.21,0.0,1.0203920815059278,2.88334874755032,0.0,0.0,2.0,0.45,0.6,1.2,100.0,1.0,0.18,0.017450651033175335,0.2,1.0,-160.0,0,1,0,calibrating,0,0,0,0,0,0.0
3.951610060999883,397,39.58,95.3,6.6,-6.1,0.35,2.52,-1.1,0.01,1.03,-0.03,-176.1,30.8,116.0,0.26,-1.0,-0.15,0.0,1.0304853225543777,2.7718044664081196,0.0,0.0,2.0,0.45,0.6,1.2,100.0,1.0,0.18,0.026993014239992785,0.2,1.0,-160.0,0,1,0,calibrating,0,0,0,0,0,0.0
3.95949341099913,398,39.59,95.3,6.5,-6.4,0.23,2.41,-1.2,0.02,1.02,-0.03,-175.7,44.3,132.0,0.24,-1.38,-0.17,0.0,1.0206370559606386,2.7020362691866295,0.0,0.0,2.0,0.45,0.6,1.2,100.0,1.0,0.18,0.016801852693328678,0.2,1.0,-160.0,0,1,0,calibrating,0,0,0,0,0,0.0
3.971915385000102,399,39.6,95.3,6.4,-6.6,0.11,2.3,-1.24,0.04,1.0,-0.05,-175.2,58.9,140.0,0.23,-1.77,-0.07,0.0,1.0020479030465559,2.6152820115620417,0.0,0.0,2.0,0.45,0.6,1.2,100.0,1.0,0.18,0.0017515542163391018,0.2,1.0,-160.0,0,1,0,calibrating,0,0,0,0,0,0.0
3.9836457559995324,400,39.61,95.2,6.2,-6.9,0.03,2.18,-1.28,0.04,0.99,-0.04,-174.5,75.3,172.0,0.21,-2.3,-0.05,0.0,0.9916148445843276,2.528181164394672,0.0,0.0,2.0,0.45,0.6,1.2,100.0,1.0,0.18,0.011940920424996171,0.2,1.0,-160.0,0,1,0,calibrating,0,0,0,0,0,0.0
3.9914558149994264,401,39.62,95.2,6.1,-7.1,0.01,2.11,-1.25,0.05,0.99,-0.04,-173.6,97.1,207.0,0.18,-2.92,-0.14,0.0,0.9920685460188726,2.4524885320832794,0.0,0.0,2.0,0.45,0.6,1.2,100.0,1.0,0.18,0.011257474610642082,0.2,1.0,-160.0,0,1,0,calibrating,0,0,0,0,0,0.0
4.001970847999473,402,39.63,95.1,6.0,-7.3,-0.03,2.09,-1.2,0.05,0.98,-0.04,-172.4,119.9,218.0,0.15,-3.53,-0.07,0.0,0.982089608946149,2.410186714758838,0.0,0.0,2.0,0.45,0.6,1.2,100.0,1.0,0.18,0.020811683449698304,0.2,1.0,-160.0,0,1,0,calibrating,0,0,0,0,0,0.0
4.011635032000413,403,39.64,95.1,5.8,-7.6,-0.06,2.07,-1.15,0.04,0.98,-0.03,-171.1,142.9,226.0,0.11,-4.18,-0.1,0.0,0.9812746812182611,2.368754947224385,0.0,0.0,2.0,0.45,0.6,1.2,100.0,1.0,0.18,0.02119407895403458,0.2,1.0,-160.0,0,1,0,calibrating,0,0,0,0,0,0.0
4.019459991999611,404,39.65,95.0,5.7,-7.8,-0.12,2.02,-1.1,0.03,0.98,-0.04,-169.5,163.9,210.0,0.06,-4.7,-0.13,0.0,0.9812746812182611,2.3032151440974853,0.0,0.0,2.0,0.45,0.6,1.2,100.0,1.0,0.18,0.02077019737495389,0.2,1.0,-160.0,0,1,0,calibrating,0,0,0,0,0,0.0
4.03185262199986,405,39.66,94.9,5.6,-8.0,-0.12,1.93,-1.07,0.03,0.97,-0.04,-167.7,183.9,202.0,0.01,-5.24,-0.08,0.0,0.9712878049270464,2.210022624318584,0.0,0.0,2.0,0.45,0.6,1.2,100.0,1.0,0.18,0.030141932192845444,0.2,1.0,-160.0,0,1,0,calibrating,0,0,0,0,0,0.0
4.039632578998862,406,39.67,94.9,5.4,-8.2,-0.11,1.83,-1.03,0.02,0.98,-0.05,-165.8,204.3,207.0,-0.04,-5.81,-0.04,0.0,0.9814784765851974,2.1028314245321713,0.0,0.0,2.0,0.45,0.6,1.2,100.0,1.0,0.18,0.019552235324000522,0.2,1.0,-160.0,0,1,0,calibrating,0,0,0,0,0,0.0
4.0518357469991315,407,39.68,94.9,5.3,-8.4,-0.1,1.71,-1.0,0.01,0.97,-0.06,-163.5,228.1,235.0,-0.1,-6.51,-0.03,0.0,0.9719053451854249,1.983456578803781,0.0,0.0,2.0,0.45,0.6,1.2,100.0,1.0,0.18,0.02854285938929757,0.2,1.0,-160.0,0,1,0,calibrating,0,0,0,0,0,0.0
4.061835301999963,408,39.69,94.8,5.2,-8.5,-0.13,1.6,-1.0,0.01,0.98,-0.07,-161.1,250.8,216.0,-0.17,-7.05,-0.09,0.0,0.98254770876533,1.8912694149697449,0.0,0.0,2.0,0.45,0.6,1.2,100.0,1.0,0.18,0.017542485893204507,0.2,1.0,-160.0,0,1,0,calibrating,0,0,0,0,0,0.0
4.071680122999169,409,39.7,94.8,5.0,-8.7,-0.18,1.51,-0.98,0.01,0.98,-0.08,-158.5,268.7,186.0,-0.24,-7.51,-0.03,0.0,0.9833107342035883,1.8091158061329295,0.0,0.0,2.0,0.45,0.6,1.2,100.0,1.0,0.18,0.01644387124584734,0.2,1.0,-160.0,0,1,0,calibrating,0,0,0,0,0,0.0
4.081830787999934,410,39.71,94.8,4.9,-8.9,-0.25,1.47,-0.94,0.02,0.98,-0.09,-155.7,285.9,179.0,-0.32,-7.98,-0.09,0.0,0.9843271813782244,1.7626684316683043,0.0,0.0,2.0,0.45,0.6,1.2,100.0,1.0,0.18,0.015118875589786973,0.2,1.0,-160.0,0,1,0,calibrating,0,0,0,0,0,0.0
4.091503797999394,411,39.72,94.7,4.8,-9.0,-0.32,1.48,-0.89,0.03,0.98,-0.1,-152.7,303.7,180.0,-0.4,-8.48,0.05,0.0,0.9855455342093535,1.756388339747221,0.0,0.0,2.0,0.45,0.6,1.2,100.0,1.0,0.18,0.013622512303484657,0.2,1.0,-160.0,0,1,0,calibrating,0,0,0,0,0,0.0
4.102012830999229,412,39.73,94.7,4.7,-9.2,-0.36,1.52,-0.83,0.04,0.97,-0.1,-149.5,320.5,168.0,-0.49,-8.92,0.04,0.0,0.9759610647971567,1.7688696955965977,0.0,0.0,2.0,0.45,0.6,1.2,100.0,1.0,0.18,0.022742842081367898,0.2,1.0,-160.0,0,1,0,calibrating,0,0,0,0,0,0.0
4.111599764999482,413,39.74,94.7,4.6,-9.3,-0.4,1.55,-0.76,0.04,0.97,-0.11,-146.2,339.0,187.0,-0.58,-9.46,-0.11,0.0,0.9770363350459388,1.772032731074683,0.0,0.0,2.0,0.45,0.6,1.2,100.0,1.0,0.18,0.021234220395934145,0.2,1.0,-160.0,0,1,0,calibrating,0,0,0,0,0,0.0
4.1217094879993965,414,39.75,94.6,4.5,-9.5,-0.43,1.57,-0.69,0.04,0.97,-0.11,-142.7,355.5,145.0,-0.68,-9.78,-0.02,0.0,0.9770363350459388,1.7680214930820268,0.0,0.0,2.0,0.45,0.6,1.2,100.0,1.0,0.18,0.020809535988015493,0.2,1.0,-160.0,0,1,0,calibrating,0,0,0,0,0,0.0
4.131861562000267,415,39.76,94.6,4.5,-9.7,-0.47,1.53,-0.58,0.04,0.97,-0.12,-139.1,363.8,109.0,-0.78,-10.01,0.19,0.0,0.9782126558167197,1.702410056361275,0.0,0.0,2.0,0.45,0.6,1.2,100.0,1.0,0.18,0.019240550912889898,0.2,1.0,-160.0,0,1,0,calibrating,0,0,0,0,0,0.0
4.139567987000191,416,39.77,94.6,4.4,-9.8,-0.52,1.49,-0.5,0.04,0.97,-0.11,-135.3,375.2,108.0,-0.88,-10.32,-0.04,0.0,0.9770363350459388,1.6554455593585673,0.0,0.0,2.0,0.45,0.6,1.2,100.0,1.0,0.18,0.02000853424999738,0.2,1.0,-160.0,0,1,0,calibrating,0,0,0,0,0,0.0
4.151951693000228,417,39.78,94.5,4.4,-10.0,-0.55,1.43,-0.43,0.03,0.98,-0.11,-131.6,376.6,2.0,-0.99,-10.13,-0.09,0.0,0.986610358753647,1.591320206620905,0.0,0.0,2.0,0.45,0.6,1.2,100.0,1.0,0.18,0.01022582033144337,0.2,1.0,-160.0,0,1,0,calibrating,0,0,0,0,0,0.0
4.161817145999521,418,39.79,94.5,4.3,-10.1,-0.6,1.37,-0.34,0.02,0.98,-0.11,-127.8,370.6,-25.0,-1.09,-10.03,0.14,0.0,0.9863569333664157,1.5337861650177969,0.0,0.0,2.0,0.45,0.6,1.2,100.0,1.0,0.18,0.01026966080430114,0.2,1.0,-160.0,0,1,0,calibrating,0,0,0,0,0,0.0
4.1716788729991094,419,39.8,94.4,4.2,-10.2,-0.73,1.27,-0.27,0.0,0.98,-0.1,-124.2,361.9,-108.0,-1.18,-9.58,0.12,0.0,0.9850888284819801,1.4895301272549004,0.0,0.0,2.0,0.45,0.6,1.2,100.0,1.0,0.18,0.011307010374962068,0.2,1.0,-160.0,0,1,0,calibrating,0,0,0,0,0,0.0
4.181851405999623,420,39.81,94.3,4.2,-10.4,-0.89,1.12,-0.19,0.0,0.99,-0.1,-120.7,336.0,-226.0,-1.27,-8.78,-0.03,0.0,0.9950376877284598,1.4431216164966831,0.0,0.0,2.0,0.45,0.6,1.2,100.0,1.0,0.18,0.0013309881059127004,0.2,1.0,-160.0,0,1,0,calibrating,0,0,0,0,0,0.0
4.191660225000305,421,39.82,94.2,4.1,-10.5,-0.91,0.93,-0.12,0.01,0.99,-0.09,-117.6,308.7,-245.0,-1.36,-8.1,0.1,0.0,0.9941327879111522,1.3066751700403585,0.0,0.0,2.0,0.45,0.6,1.2,100.0,1.0,0.18,0.0021911701647558957,0.2,1.0,-160.0,0,1,0,calibrating,0,0,0,0,0,0.0
4.199625454999477,422,39.83,94.2,4.1,-10.5,-0.93,0.76,-0.06,0.01,0.99,-0.1,-114.7,282.2,-269.0,-1.43,-7.31,0.12,0.0,0.9950879358127099,1.202538980657176,0.0,0.0,2.0,0.45,0.6,1.2,100.0,1.0,0.18,0.0012113018179342738,0.2,1.0,-160.0,0,1,0,calibrating,0,0,0,0,0,0.0
4.211917479000476,423,39.84,94.1,4.1,-10.6,-1.0,0.6,0.0,0.01,1.0,-0.1,-112.0,255.2,-252.0,-1.5,-6.67,0.04,0.0,1.0050373127401788,1.16619037896906,0.0,0.0,2.0,0.45,0.6,1.2,100.0,1.0,0.18,0.00856331360734397,0.2,1.0,-160.0,0,1,0,calibrating,0,0,0,0,0,0.0
4.219628642000316,424,39.85,94.0,4.1,-10.7,-1.09,0.51,0.06,0.02,1.0,-0.1,-109.6,236.5,-191.0,-1.57,-6.25,0.11,0.0,1.005186549850325,1.2049066353871574,0.0,0.0,2.0,0.45,0.6,1.2,100.0,1.0,0.18,0.00853829970314035,0.2,1.0,-160.0,0,1,0,calibrating,0,0,0,0,0,0.0
4.231684329999553,425,39.86,93.9,4.0,-10.7,-1.1,0.46,0.11,0.03,0.99,-0.1,-107.4,222.1,-160.0,-1.62,-5.86,0.15,0.0,0.9954898291795853,1.1973721226085063,0.0,0.0,2.0,0.45,0.6,1.2,100.0,1.0,0.18,0.001135252548247312,0.2,1.0,-160.0,0,1,0,calibrating,0,0,0,0,0,0.0
4.241800353998769,426,39.87,93.8,4.0,-10.7,-1.16,0.42,0.16,0.03,0.98,-0.11,-105.2,206.0,-162.0,-1.68,-5.41,0.11,0.0,0.986610358753647,1.244025723206719,0.0,0.0,2.0,0.45,0.6,1.2,100.0,1.0,0.18,0.009814428514701934,0.2,1.0,-160.0,0,1,0,calibrating,0,0,0,0,0,0.0
4.251943481000126,427,39.88,93.7,4.0,-10.8,-1.17,0.37,0.22,0.03,0.97,-0.11,-103.3,191.0,-144.0,-1.73,-5.04,0.24,0.0,0.9766780431646859,1.246675579290779,0.0,0.0,2.0,0.45,0.6,1.2,100.0,1.0,0.18,0.019351809221589744,0.2,1.0,-160.0,0,1,0,calibrating,0,0,0,0,0,0.0
4.2619347689997085,428,39.89,93.6,4.0,-10.8,-1.12,0.3,0.3,0.03,0.97,-0.11,-101.5,179.8,-115.0,-1.78,-4.77,0.09,0.0,0.9766780431646859,1.1976643937263896,0.0,0.0,2.0,0.45,0.6,1.2,100.0,1.0,0.18,0.018964773037157934,0.2,1.0,-160.0,0,1,0,calibrating,0,0,0,0,0,0.0
4.271706190000259,429,39.9,93.5,4.1,-10.8,-1.03,0.23,0.36,0.04,0.97,-0.1,-99.7,171.7,-90.0,-1.83,-4.57,-0.03,0.0,0.9759610647971567,1.1150784725749125,0.0,0.0,2.0,0.45,0.6,1.2,100.0,1.0,0.18,0.019288116376593334,0.2,1.0,-160.0,0,1,0,calibrating,0,0,0,0,0,0.0
4.281847913000092,430,39.91,93.5,4.1,-10.8,-1.01,0.13,0.41,0.03,0.97,-0.1,-98.1,164.0,-83.0,-1.87,-4.34,0.16,0.0,0.975602378020882,1.0977704678119191,0.0,0.0,2.0,0.45,0.6,1.2,100.0,1.0,0.18,0.019253867089810695,0.2,1.0,-160.0,0,1,0,calibrating,0,0,0,0,0,0.0
4.291649581999081,431,39.92,93.4,4.1,-10.9,-1.02,0.0,0.41,0.03,0.97,-0.1,-96.5,156.4,-74.0,-1.91,-4.17,-0.11,0.0,0.975602378020882,1.0993179703798168,0.0,0.0,2.0,0.45,0.6,1.2,100.0,1.0,0.18,0.018868789748014425,0.2,1.0,-160.0,0,1,0,calibrating,0,0,0,0,0,0.0
4.299661474999084,432,39.93,93.3,4.1,-10.8,-0.96,-0.15,0.4,0.03,0.96,-0.1,-94.9,152.0,-48.0,-1.95,-4.09,0.03,0.0,0.9656603957913983,1.050761628534274,0.0,0.0,2.0,0.45,0.6,1.2,100.0,1.0,0.18,0.028234556537948152,0.2,1.0,-160.0,0,1,0,calibrating,0,0,0,0,0,0.0
4.311889082999187,433,39.94,93.3,4.2,-10.8,-0.87,-0.26,0.39,0.03,0.96,-0.1,-93.4,149.1,-35.0,-1.99,-4.02,0.1,0.0,0.9656603957913983,0.9882307422864358,0.0,0.0,2.0,0.45,0.6,1.2,100.0,1.0,0.18,0.027669865407189187,0.2,1.0,-160.0,0,1,0,calibrating,0,0,0,0,0,0.0
4.319639441999243,434,39.95,93.2,4.2,-10.8,-0.82,-0.38,0.4,0.03,0.95,-0.1,-92.0,146.0,-38.0,-2.03,-3.9,0.1,0.0,0.9557196241576292,0.9883319280484669,0.0,0.0,2.0,0.45,0.6,1.2,100.0,1.0,0.18,0.03685842430013908,0.2,1.0,-160.0,0,1,0,calibrating,0,0,0,0,0,0.0
4.331961228999717,435,39.96,93.2,4.2,-10.7,-0.74,-0.5,0.44,0.02,0.95,-0.1,-90.5,139.9,-65.0,-2.07,-3.68,-0.11,0.0,0.9554580053565933,0.9955902771722914,0.0,0.0,2.0,0.45,0.6,1.2,100.0,1.0,0.18,0.03637764223915152,0.2,1.0,-160.0,0,1,0,calibrating,0,0,0,0,0,0.0
4.339538652000556,436,39.97,93.1,4.2,-10.7,-0.64,-0.63,0.49,0.01,0.95,-0.1,-89.2,128.9,-105.0,-2.11,-3.34,0.29,0.0,0.9553009996854395,1.0230347012687302,0.0,0.0,2.0,0.45,0.6,1.2,100.0,1.0,0.18,0.035803954952099204,0.2,1.0,-160.0,0,1,0,calibrating,0,0,0,0,0,0.0
4.3517871589992865,437,39.98,93.1,4.2,-10.6,-0.52,-0.78,0.55,0.0,0.96,-0.1,-88.0,112.4,-162.0,-2.14,-2.79,0.1,0.0,0.9651942809610923,1.086876257906115,0.0,0.0,2.0,0.45,0.6,1.2,100.0,1.0,0.18,0.02539246020291741,0.2,1.0,-160.0,0,1,0,calibrating,0,0,0,0,0,0.0
4.359665660998871,438,39.99,93.1,4.2,-10.5,-0.46,-0.92,0.62,0.0,0.98,-0.1,-87.1,89.9,-220.0,-2.16,-2.11,0.08,0.0,0.9850888284819801,1.2009995836801943,0.0,0.0,2.0,0.45,0.6,1.2,100.0,1.0,0.18,0.005387954428389019,0.2,1.0,-160.0,0,1,0,calibrating,0,0,0,0,0,0.0
4.371804352000254,439,40.0,93.1,4.2,-10.4,-0.47,-1.05,0.68,0.0,0.99,-0.1,-86.5,68.6,-315.0,-2.18,-1.38,0.27,0.0,0.9950376877284598,1.3363382805263044,0.0,0.0,2.0,0.45,0.6,1.2,100.0,1.0,0.18,0.004469686721728872,0.2,1.0,-160.0,0,1,0,calibrating,0,0,0,0,0,0.0
4.383464176000416,440,40.01,93.1,4.3,-10.3,-0.54,-1.19,0.74,0.01,1.0,-0.11,-85.9,34.4,-303.0,-2.18,-0.6,-0.05,0.0,1.006081507632458,1.5017656275198203,0.0,0.0,2.0,0.45,0.6,1.2,100.0,1.0,0.18,0.015203236493212646,0.2,1.0,-160.0,0,1,0,calibrating,0,0,0,0,0,0.0
4.391717108999728,441,40.02,93.1,4.3,-10.1,-0.57,-1.33,0.81,0.01,1.0,-0.11,-85.7,7.8,-277.0,-2.19,0.1,0.03,0.0,1.006081507632458,1.658282243769136,0.0,0.0,2.0,0.45,0.6,1.2,100.0,1.0,0.18,0.014899171763348429,0.2,1.0,-160.0,0,1,0,calibrating,0,0,0,0,0,0.0
4.40191800699904,442,40.03,93.0,4.4,-10.0,-0.58,-1.45,0.9,0.02,0.99,-0.12,-85.8,-7.9,-125.0,-2.18,0.18,0.04,0.0,0.9974467404327911,1.8024705268048073,0.0,0.0,2.0,0.45,0.6,1.2,100.0,1.0,0.18,0.006139116472407946,0.2,1.0,-160.0,0,1,0,calibrating,0,0,0,0,0,0.0
4.411429417999898,443,40.04,93.0,4.4,-9.8,-0.56,-1.53,0.96,0.02,0.98,-0.12,-85.9,-5.4,-35.0,-2.18,0.16,-0.1,0.0,0.9875221516502807,1.8910579049833456,0.0,0.0,2.0,0.45,0.6,1.2,100.0,1.0,0.18,0.0037097628639005675,0.2,1.0,-160.0,0,1,0,calibrating,0,0,0,0,0,0.0
4.419636644999628,444,40.05,93.0,4.5,-9.7,-0.52,-1.62,1.02,0.02,0.98,-0.12,-85.9,-10.5,-75.0,-2.18,0.44,-0.03,0.0,0.9875221516502807,1.9837338531163904,0.0,0.0,2.0,0.45,0.6,1.2,100.0,1.0,0.18,0.003635567606622536,0.2,1.0,-160.0,0,1,0,calibrating,0,0,0,0,0,0.0
4.431985465000253,445,40.06,93.1,4.5,-9.5,-0.49,-1.71,1.09,0.02,0.97,-0.13,-86.1,-24.8,-126.0,-2.17,0.86,-0.02,0.0,0.9788769074812216,2.086216671393458,0.0,0.0,2.0,0.45,0.6,1.2,100.0,1.0,0.18,0.012035195540167964,0.2,1.0,-160.0,0,1,0,calibrating,0,0,0,0,0,0.0
4.441864376000012,446,40.07,93.1,4.6,-9.3,-0.47,-1.79,1.15,0.03,0.97,-0.13,-86.5,-39.2,-142.0,-2.16,1.26,0.01,0.0,0.9791322688993556,2.1788758569500923,0.0,0.0,2.0,0.45,0.6,1.2,100.0,1.0,0.18,0.011544237439593319,0.2,1.0,-160.0,0,1,0,calibrating,0,0,0,0,0,0.0
4.451577898000323,447,40.08,93.1,4.7,-9.1,-0.46,-1.9,1.23,0.03,0.97,-0.13,-87.0,-57.0,-177.0,-2.14,1.8,-0.11,0.0,0.9791322688993556,2.309653653689228,0.0,0.0,2.0,0.45,0.6,1.2,100.0,1.0,0.18,0.01131335269080147,0.2,1.0,-160.0,0,1,0,calibrating,0,0,0,0,0,0.0
4.462024716000087,448,40.09,93.1,4.8,-8.9,-0.4,-2.01,1.25,0.04,0.96,-0.12,-87.7,-75.3,-160.0,-2.12,2.2,-0.09,0.0,0.9682974749528164,2.4005416055548796,0.0,0.0,2.0,0.45,0.6,1.2,100.0,1.0,0.18,0.021705183704593844,0.2,1.0,-160.0,0,1,0,calibrating,0,0,0,0,0,0.0
4.471460622999075,449,40.1,93.1,4.9,-8.7,-0.03,-2.15,1.16,0.07,0.96,-0.1,-88.5,-86.7,-109.0,-2.1,2.42,0.06,0.0,0.9677293009927931,2.4431536996267753,0.0,0.0,2.0,0.45,0.6,1.2,100.0,1.0,0.18,0.021827890511324832,0.2,1.0,-160.0,0,1,0,calibrating,0,0,0,0,0,0.0
4.481851078999171,450,40.11,93.2,5.0,-8.4,0.56,-2.18,0.91,0.11,0.97,-0.09,-89.4,-90.6,-58.0,-2.07,2.51,-0.19,0.0,0.9803570778037969,2.427776760742223,0.0,0.0,2.0,0.45,0.6,1.2,100.0,1.0,0.18,0.009016111426314644,0.2,1.0,-160.0,0,1,0,calibrating,0,0,0,0,0,0.0
4.491666977999557,451,40.12,93.3,5.1,-8.2,0.94,-1.99,0.57,0.11,1.0,-0.11,-90.4,-96.0,-67.0,-2.05,2.71,0.11,0.0,1.01202766760598,2.2734555196880364,0.0,0.0,2.0,0.45,0.6,1.2,100.0,1.0,0.18,0.022201388808351208,0.2,1.0,-160.0,0,1,0,calibrating,0,0,0,0,0,0.0
4.499674145999961,452,40.13,93.5,5.1,-8.0,0.63,-1.6,0.35,0.04,1.01,-0.13,-91.4,-109.6,-136.0,-2.02,3.21,0.16,0.0,1.0191172650877818,1.754821928287882,0.0,0.0,2.0,0.45,0.6,1.2,100.0,1.0,0.18,0.02870516656434985,0.2,1.0,-160.0,0,1,0,calibrating,0,0,0,0,0,0.0
4.511803053999756,453,40.14,93.5,5.1,-7.9,0.26,-1.48,0.39,0.0,0.98,-0.11,-92.7,-128.1,-170.0,-1.98,3.7,0.07,0.0,0.986154146165801,1.5524496771232232,0.0,0.0,2.0,0.45,0.6,1.2,100.0,1.0,0.18,0.004172793310478262,0.2,1.0,-160.0,0,1,0,calibrating,0,0,0,0,0,0.0
4.519671813999594,454,40.15,93.6,5.1,-7.7,0.35,-1.66,0.55,0.0,0.93,-0.08,-94.1,-145.2,-157.0,-1.94,4.11,0.22,0.0,0.9334345183246654,1.783423673724222,0.0,0.0,2.0,0.45,0.6,1.2,100.0,1.0,0.18,0.05575457272858153,0.2,1.0,-160.0,0,1,0,calibrating,0,0,0,0,0,0.0
4.531828055000005,455,40.16,93.7,5.1,-7.5,0.85,-2.08,0.67,0.03,0.91,-0.08,-95.6,-157.9,-126.0,-1.9,4.4,0.05,0.0,0.9140021881811882,2.3447387914221918,0.0,0.0,2.0,0.45,0.6,1.2,100.0,1.0,0.18,0.07368316481461756,0.2,1.0,-160.0,0,1,0,calibrating,0,0,0,0,0,0.0
4.541819721000138,456,40.17,93.8,5.1,-7.3,1.22,-2.31,0.61,0.07,0.95,-0.07,-97.2,-166.5,-83.0,-1.85,4.57,0.02,0.0,0.9551439682058407,2.6826479455940544,0.0,0.0,2.0,0.45,0.6,1.2,100.0,1.0,0.18,0.03189055709416577,0.2,1.0,-160.0,0,1,0,calibrating,0,0,0,0,0,0.0
4.551818992000335,457,40.18,94.0,5.2,-7.1,1.15,-2.28,0.49,0.1,1.01,-0.08,-98.9,-167.9,-22.0,-1.81,4.53,-0.07,0.0,1.0180864403379508,2.6001923005808627,0.0,0.0,2.0,0.45,0.6,1.2,100.0,1.0,0.18,0.030430876737185475,0.2,1.0,-160.0,0,1,0,calibrating,0,0,0,0,0,0.0
4.5595970760005,458,40.19,94.1,5.2,-6.9,1.03,-1.96,0.34,0.11,1.04,-0.06,-100.6,-162.6,52.0,-1.76,4.26,-0.01,0.0,1.0475208828467335,2.240111604362604,0.0,0.0,2.0,0.45,0.6,1.2,100.0,1.0,0.18,0.058668012861048835,0.2,1.0,-160.0,0,1,0,calibrating,0,0,0,0,0,0.0
4.571854851999888,459,40.2,94.2,5.2,-6.7,1.08,-1.58,0.17,0.15,1.03,-0.03,-102.1,-146.9,144.0,-1.72,3.73,0.11,0.0,1.0412972678346946,1.921379712602379,0.0,0.0,2.0,0.45,0.6,1.2,100.0,1.0,0.18,0.0513955098920299,0.2,1.0,-160.0,0,1,0,calibrating,0,0,0,0,0,0.0
4.583619486000316,460,40.21,94.3,5.3,-6.5,1.48,-1.19,-0.14,0.18,1.0,0.0,-103.4,-125.7,193.0,-1.69,3.13,-0.01,0.0,1.016070863670443,1.9042321287070019,0.0,0.0,2.0,0.45,0.6,1.2,100.0,1.0,0.18,0.025645723613222482,0.2,1.0,-160.0,0,1,0,calibrating,0,0,0,0,0,0.0
4.591492035999181,461,40.22,94.5,5.2,-6.4,1.97,-0.93,-0.58,0.2,1.01,0.0,-104.5,-102.6,220.0,-1.66,2.5,0.05,0.0,1.0296115772464878,2.254373527168912,0.0,0.0,2.0,0.45,0.6,1.2,100.0,1.0,0.18,0.03840270844548199,0.2,1.0,-160.0,0,1,0,calibrating,0,0,0,0,0,0.0
4.60176333399977,462,40.23,94.7,5.1,-6.4,2.15,-0.58,-1.03,0.22,1.06,0.0,-105.4,-80.0,210.0,-1.64,1.94,-0.21,0.0,1.0825894882179488,2.453528071981244,0.0,0.0,2.0,0.45,0.6,1.2,100.0,1.0,0.18,0.08955300702860414,0.2,1.0,-160.0,0,1,0,calibrating,0,0,0,0,0,0.0
4.61193754299893,463,40.24,94.9,5.0,-6.3,1.92,-0.26,-1.27,0.19,1.1,-0.02,-106.1,-63.0,172.0,-1.63,1.54,-0.15,0.0,1.1164676439557037,2.3166570743206685,0.0,0.0,2.0,0.45,0.6,1.2,100.0,1.0,0.18,0.12096253951103197,0.2,1.0,-160.0,0,1,0,calibrating,0,0,0,0,0,0.0
4.61967056299909,464,40.25,95.1,4.9,-6.3,1.47,-0.16,-1.25,0.1,1.09,-0.03,-106.6,-51.6,119.0,-1.61,1.3,0.06,0.0,1.094988584415381,1.9362334569984063,0.0,0.0,2.0,0.45,0.6,1.2,100.0,1.0,0.18,0.09749381037129512,0.2,1.0,-160.0,0,1,0,calibrating,0,0,0,0,0,0.0
