host_time_s,seq,device_time_s,roll,pitch,yaw,gyro_x,gyro_y,gyro_z,accel_x,accel_y,accel_z,belt_length,belt_velocity,belt_acceleration,motor_pos,motor_vel,motor_iq_meas,motor_iq_set,acc_mag,gyro_mag,acc_residual,threshold,heel_strike,hs_count,torque_cmd_nm
3.0706900189998123,1,753.86,99.9,5.1,-40.8,-1.31,1.08,-0.08,0.0,1.04,-0.16,-100.8,-90.3,74.0,-1.76,2.19,0.21,0.0,1.0522357150372725,1.6996764397967046,0.0,0.35,0,0,0.0
3.0797284970012697,2,753.87,99.7,5.1,-40.9,-1.36,0.97,-0.09,0.01,1.0,-0.16,-101.9,-73.9,83.0,-1.74,2.02,-0.08,0.0,1.012768482921936,1.6729016707505557,0.038677887473029804,0.35,0,0,0.0
3.1075378880013886,5,753.9,99.4,5.0,-41.2,-1.05,0.73,-0.13,0.04,0.95,-0.18,-104.3,-87.6,-54.0,-1.67,2.51,0.0,0.0,0.9677293009927931,1.2854182198802069,0.08204272801412926,0.35,0,0,0.0
3.1155007510005817,6,753.91,99.3,5.0,-41.2,-0.97,0.66,-0.11,0.05,0.94,-0.18,-105.2,-97.2,-93.0,-1.64,2.83,0.2,0.0,0.9583840566286566,1.1783887304281215,0.08956021293070049,0.35,0,0,0.0
3.1265150690014707,7,753.92,99.2,5.0,-41.3,-0.8,0.63,-0.14,0.05,0.93,-0.2,-106.3,-109.9,-117.0,-1.61,3.18,0.04,0.0,0.9525754563287887,1.0278618584226191,0.09346143696595699,0.35,0,0,0.0
3.135541182000452,8,753.93,99.1,4.9,-41.4,-0.72,0.65,-0.18,0.05,0.96,-0.21,-107.5,-123.4,-133.0,-1.58,3.59,-0.2,0.0,0.9839715443040007,0.9865596788841514,0.06082404201093006,0.35,0,0,0.0
3.1462720039999112,9,753.94,99.1,4.9,-41.4,-0.86,0.72,-0.19,0.04,0.98,-0.22,-108.8,-138.7,-139.0,-1.54,3.96,0.09,0.0,1.005186549850325,1.13758516164725,0.03881685573531368,0.35,0,0,0.0
3.15560226100024,10,753.95,99.0,4.9,-41.5,-1.07,0.8,-0.14,0.03,0.98,-0.21,-110.3,-151.8,-136.0,-1.49,4.32,-0.02,0.0,1.00269636480841,1.3433167906342867,0.040480899961684136,0.35,0,0,0.0
3.16615505000118,11,753.96,98.9,4.8,-41.6,-1.35,0.81,-0.05,0.02,0.98,-0.19,-111.9,-164.3,-121.0,-1.45,4.64,0.01,0.0,0.9984487968844471,1.5751507864328418,0.04383389852793407,0.35,0,0,0.0
3.175609116000487,12,753.97,98.8,4.8,-41.7,-1.39,0.72,0.0,0.01,0.94,-0.17,-113.6,-176.7,-130.0,-1.4,5.01,0.05,0.0,0.9553009996854395,1.5654072952429985,0.0852420618124029,0.35,0,0,0.0
3.1860908360013127,13,753.98,98.7,4.8,-41.7,-1.21,0.61,0.0,0.02,0.92,-0.16,-115.5,-188.7,-110.0,-1.35,5.28,-0.05,0.0,0.9340235543068494,1.3550645741070793,0.10438911704717313,0.35,0,0,0.0
3.1956293920011376,14,753.99,98.6,4.8,-41.8,-1.01,0.51,0.0,0.02,0.92,-0.16,-117.4,-197.9,-90.0,-1.29,5.47,0.12,0.0,0.9340235543068494,1.1314592347937242,0.1023013347062296,0.35,0,0,0.0
3.2099296910000703,15,754.0,98.5,4.7,-41.8,-0.84,0.43,0.02,0.03,0.92,-0.16,-119.7,-203.7,-57.0,-1.22,5.59,-0.1,0.0,0.9342911751697112,0.9438749917229504,0.09999303956650052,0.35,0,0,0.0
3.219565794001028,16,754.01,98.4,4.7,-41.9,-0.25,0.19,0.0,0.03,0.94,-0.18,-122.5,-206.5,-28.0,-1.16,5.61,0.02,0.0,0.9575489543621255,0.31400636936215165,0.07520055516660451,0.35,0,0,0.0
3.227518804000283,17,754.02,98.4,4.7,-41.9,0.07,0.04,0.0,0.03,0.97,-0.2,-124.6,-205.9,-1.0,-1.1,5.57,0.17,0.0,0.9908582138732059,0.0806225774829855,0.04105346974241353,0.35,0,0,0.0
3.23972089200106,18,754.03,98.5,4.7,-41.9,0.16,-0.03,0.06,0.04,1.0,-0.23,-126.6,-201.4,41.0,-1.05,5.37,-0.16,0.0,1.0268885041717042,0.17349351572897473,0.004922715855036897,0.35,0,0,0.0
3.2477611120011716,19,754.04,98.5,4.6,-41.9,0.05,-0.07,0.15,0.04,1.01,-0.24,-128.6,-192.9,76.0,-1.0,5.12,-0.2,0.0,1.0388936422945325,0.17291616465790582,0.006940773822435631,0.35,0,0,0.0
3.2596427150001546,20,754.05,98.6,4.6,-41.9,-0.2,-0.09,0.26,0.04,1.0,-0.25,-130.5,-182.9,87.0,-0.95,4.87,0.01,0.0,1.0315522284402279,0.340147027033899,0.0003926272312315682,0.35,0,0,0.0
3.267720628000461,21,754.06,98.6,4.7,-41.8,-0.42,-0.07,0.34,0.04,0.97,-0.26,-132.2,-174.6,82.0,-0.9,4.64,-0.12,0.0,1.0050373127401788,0.5448853090330111,0.026369392072655096,0.35,0,0,0.0
3.2796732620008697,22,754.07,98.5,4.7,-41.8,-0.43,-0.03,0.35,0.03,0.93,-0.26,-133.9,-166.2,87.0,-0.86,4.4,-0.16,0.0,0.9661262857411551,0.5552476924760696,0.06397481069024524,0.35,0,0,0.0
3.287464576000275,23,754.08,98.5,4.7,-41.8,-0.14,0.0,0.25,0.03,0.91,-0.26,-135.5,-156.7,96.0,-0.81,4.12,-0.08,0.0,0.9468896451012653,0.2865309756378881,0.0815472223035324,0.35,0,0,0.0
3.2997708399998373,24,754.09,98.5,4.7,-41.8,-0.14,0.0,0.25,0.03,0.91,-0.26,-136.9,-147.1,100.0,-0.78,3.88,-0.07,0.0,0.9468896451012653,0.2865309756378881,0.07991627785746169,0.35,0,0,0.0
3.307684342000357,25,754.1,98.5,4.7,-41.8,0.05,0.0,0.18,0.05,0.93,-0.26,-138.3,-136.7,96.0,-0.74,3.61,-0.02,0.0,0.9669539802906858,0.18681541692269404,0.058654903814680304,0.35,0,0,0.0
3.3196279590010818,26,754.11,98.5,4.8,-41.8,-0.29,0.09,0.36,0.05,0.93,-0.25,-139.6,-127.8,90.0,-0.71,3.37,-0.15,0.0,0.9643132271207318,0.4709564735726647,0.06006974384494157,0.35,0,0,0.0
3.327584411001226,27,754.12,98.5,4.8,-41.8,-0.19,0.13,0.43,0.05,0.91,-0.23,-140.8,-119.7,82.0,-0.67,3.16,-0.67,0.0,0.939946807005588,0.4877499359302879,0.08274744068088358,0.35,0,0,0.0
3.3395691250007076,28,754.13,98.6,4.9,-41.8,0.34,0.21,0.37,0.05,0.9,-0.22,-142.0,-114.6,50.0,-0.64,3.08,0.02,0.0,0.9278469701410896,0.5446099521676041,0.09295033199447422,0.35,0,0,0.0
3.347649637000359,29,754.14,98.7,4.9,-41.8,0.78,0.28,0.26,0.06,0.94,-0.21,-143.1,-113.3,16.0,-0.61,3.09,-0.11,0.0,0.9650388593212192,0.8685620300243386,0.05464327395805768,0.35,0,0,0.0
3.3596025630013173,30,754.15,98.8,4.9,-41.9,0.68,0.32,0.29,0.08,1.0,-0.22,-144.1,-114.5,-9.0,-0.58,3.16,0.03,0.0,1.0270345661174214,0.8055432949258532,0.007205384181381502,0.35,0,0,0.0
3.3676912850005465,31,754.16,98.9,5.0,-41.9,-0.06,0.44,0.56,0.09,1.04,-0.23,-145.3,-119.2,-37.0,-0.55,3.31,0.26,0.0,1.0689246933250256,0.7147027354082255,0.048113601161206,0.35,0,0,0.0
3.379591912000251,32,754.17,98.8,5.0,-41.9,-0.87,0.58,0.99,0.11,1.02,-0.22,-146.5,-121.5,-18.0,-0.52,3.3,0.11,0.0,1.049237818609299,1.4399305538809848,0.027858191916569908,0.35,0,0,0.0
3.38752480400035,33,754.18,98.8,5.2,-42.0,-0.88,0.74,1.39,0.14,0.95,-0.18,-147.8,-120.9,5.0,-0.48,3.25,0.09,0.0,0.9769851585361979,1.8039124147252825,0.043506578793400585,0.35,0,0,0.0
3.3999134639998374,34,754.19,98.7,5.4,-42.0,-0.06,0.92,1.6,0.17,0.89,-0.13,-149.0,-116.1,44.0,-0.45,3.06,-0.08,0.0,0.9153687781435415,1.846618531261939,0.10302050000233598,0.35,0,0,0.0
3.4076214500000788,35,754.2,98.8,5.6,-42.1,1.22,1.09,1.52,0.2,0.87,-0.06,-150.1,-105.7,97.0,-0.42,2.7,-0.03,0.0,0.8947066558375433,2.2331368072735716,0.12120896986216756,0.35,0,0,0.0
3.419980017000853,36,754.21,99.0,5.7,-42.2,2.62,1.16,1.07,0.21,0.89,-0.02,-151.1,-89.2,162.0,-0.4,2.15,0.11,0.0,0.91465840618233,3.0585781010136066,0.09923207512703325,0.35,0,0,0.0
3.427657504000308,37,754.22,99.3,5.8,-42.3,3.88,1.25,0.29,0.22,0.95,-0.01,-151.8,-66.7,207.0,-0.38,1.52,-0.2,0.0,0.9751922887307918,4.086685698705003,0.037924228727000076,0.35,0,0,0.0
3.43993236300048,38,754.23,99.7,5.8,-42.5,4.16,1.28,-0.52,0.21,1.03,-0.03,-152.3,-43.9,222.0,-0.37,0.9,-0.04,0.0,1.051617801294748,4.383423319735387,0.03773125816021694,0.35,0,0,0.0
3.4476408310001716,39,754.24,100.0,5.8,-42.6,2.9,1.19,-1.12,0.14,1.15,-0.08,-152.6,-20.8,211.0,-0.37,0.35,-0.05,0.0,1.1612493272333895,3.3287384997923763,0.14441552841688132,0.35,0,0,0.0
3.4597531580002396,40,754.25,100.1,5.7,-42.7,0.63,1.07,-0.98,0.05,1.19,-0.1,-152.7,-2.6,184.0,-0.37,-0.1,-0.15,0.0,1.195240561560726,1.5818343781824948,0.17483862748933343,0.35,0,0,0.0
3.467630447999909,41,754.26,100.1,5.6,-42.8,-1.04,0.66,-0.52,-0.03,1.1,-0.01,-152.6,4.2,57.0,-0.37,-0.04,0.26,0.0,1.100454451578983,1.3370115930686615,0.07845146715743856,0.35,0,0,0.0
3.479634495000937,42,754.27,100.0,5.6,-42.9,-1.39,-0.17,-0.03,-0.07,1.0,0.07,-152.6,-1.6,-6.0,-0.37,0.06,0.0,0.0,1.0048880534666536,1.4006784070585223,0.01677263233579307,0.35,0,0,0.0
3.4876368490004097,43,754.28,99.8,5.6,-42.8,-1.08,-1.34,0.32,-0.1,0.9,0.15,-152.6,-0.9,15.0,-0.37,-0.01,0.17,0.0,0.917877987534291,1.750542772970715,0.10170704430279265,0.35,0,0,0.0
3.4999582820000796,44,754.29,99.8,5.6,-42.6,-0.3,-2.45,0.4,-0.1,0.85,0.15,-152.6,1.2,-2.0,-0.37,0.01,-0.15,0.0,0.8689073598491382,2.500499950009998,0.1476641185481865,0.35,0,0,0.0
3.5075979140001436,45,754.3,99.8,5.6,-42.3,0.44,-3.15,0.24,-0.07,0.86,0.07,-152.6,-1.2,-3.0,-0.37,0.0,0.08,0.0,0.8656789243131658,3.1896238022688506,0.14787470300247574,0.35,0,0,0.0
3.5196782120001444,46,754.31,99.9,5.5,-41.9,0.97,-3.52,0.07,-0.02,0.96,0.0,-152.6,0.2,8.0,-0.37,-0.01,-0.05,0.0,0.9602083107326242,3.651876230104191,0.05227841025135693,0.35,0,0,0.0
3.527624714000922,47,754.32,100.1,5.5,-41.6,1.36,-3.57,0.03,0.06,1.06,-0.07,-152.6,0.0,-2.0,-0.37,0.0,0.9,0.0,1.0640018796975879,3.8203926499772245,0.05048485553933446,0.35,0,0,0.0
3.53978637200089,48,754.33,100.2,5.4,-41.2,1.73,-3.37,0.13,0.14,1.15,-0.14,-152.6,-0.3,-2.0,-0.37,0.0,-0.01,0.0,1.1669190203266033,3.7903429923952796,0.15033395624498302,0.35,0,0,0.0
3.5475864870004443,49,754.34,100.4,5.4,-40.9,1.74,-3.13,0.33,0.21,1.2,-0.18,-152.6,0.6,1.0,-0.37,0.0,0.36,0.0,1.2314625451064274,3.5963036579243415,0.21057993140431086,0.35,0,0,0.0
3.5597829560010723,50,754.35,100.6,5.5,-40.6,1.16,-2.9,0.58,0.25,1.2,-0.2,-152.6,-0.8,-5.0,-0.37,0.02,-0.01,0.0,1.241974234837422,3.1767908335299633,0.21666978871259945,0.35,0,0,0.0
3.567685646001337,51,754.36,100.7,5.6,-40.3,0.19,-2.66,0.78,0.25,1.15,-0.2,-152.6,-1.1,0.0,-0.37,0.01,0.09,0.0,1.1937336386313322,2.778506793225455,0.16506060865637928,0.35,0,0,0.0
3.5795149500008847,52,754.37,100.7,5.7,-40.1,-0.75,-2.51,0.91,0.23,1.05,-0.19,-152.7,-2.5,-20.0,-0.37,0.11,-0.05,0.0,1.0915585188161008,2.773211135128373,0.06162777906432493,0.35,0,0,0.0
3.5877211330007412,53,754.38,100.6,5.8,-39.8,-1.04,-2.35,0.93,0.2,0.98,-0.18,-152.7,-6.6,-41.0,-0.36,0.26,0.03,0.0,1.016267681273,2.7329471271870593,0.013389797309200313,0.35,0,0,0.0
3.59951962300147,54,754.39,100.5,5.9,-39.6,-0.75,-2.22,0.92,0.17,0.94,-0.15,-152.8,-14.7,-73.0,-0.36,0.51,-0.03,0.0,0.9669539802906858,2.5173994518153053,0.06144942832568423,0.35,0,0,0.0
3.6074816400014242,55,754.4,100.5,6.0,-39.3,-0.21,-2.05,0.92,0.13,0.95,-0.12,-153.1,-25.2,-111.0,-0.35,0.87,0.08,0.0,0.9663332758422427,2.256767599909215,0.06082873011864476,0.35,0,0,0.0
3.619613554999887,56,754.41,100.5,6.0,-39.1,0.33,-1.96,0.88,0.12,0.96,-0.12,-153.4,-37.1,-101.0,-0.34,1.11,0.16,0.0,0.9748846085563152,2.1736835096213984,0.05123184945648074,0.35,0,0,0.0
3.6276447430009284,57,754.42,100.5,6.1,-38.9,0.73,-1.78,0.75,0.12,0.98,-0.12,-153.8,-47.4,-100.0,-0.33,1.4,-0.03,0.0,0.9945853407325084,2.0648970918668077,0.03090049493468172,0.35,0,0,0.0
3.6395505030013737,58,754.43,100.6,6.1,-38.7,0.8,-1.66,0.66,0.14,1.05,-0.18,-154.4,-58.1,-113.0,-0.31,1.74,0.03,0.0,1.074476616776745,1.9573451407454945,0.04801096548736372,0.35,0,0,0.0
3.6477417610003613,59,754.44,100.6,6.2,-38.6,0.06,-1.39,0.7,0.14,1.06,-0.17,-155.0,-70.4,-124.0,-0.29,2.09,-0.13,0.0,1.082635672791175,1.5574658904772198,0.05504662107175795,0.35,0,0,0.0
3.6601148879999528,60,754.45,100.6,6.3,-38.4,-0.74,-1.22,0.75,0.15,1.03,-0.14,-155.9,-85.0,-132.0,-0.27,2.46,0.1,0.0,1.0502380682492898,1.6119863522995472,0.022196036199275238,0.35,0,0,0.0
3.667501866000748,61,754.46,100.5,6.3,-38.3,-1.29,-1.16,0.83,0.14,0.98,-0.12,-156.8,-97.0,-125.0,-0.24,2.78,0.01,0.0,0.9971960689854327,1.9231744590650115,0.030229043803290168,0.35,0,0,0.0
3.6798717390011007,62,754.47,100.3,6.4,-38.2,-1.54,-1.07,0.84,0.15,0.93,-0.1,-157.8,-108.6,-117.0,-0.21,3.09,-0.01,0.0,0.9473119866232033,2.0547749268472204,0.07851086364220927,0.35,0,0,0.0
3.687691654000446,63,754.48,100.1,6.5,-38.1,-1.46,-1.04,0.79,0.16,0.89,-0.1,-159.0,-118.8,-96.0,-0.18,3.31,-0.14,0.0,0.9097801932335084,1.9589027540947508,0.11372180389126607,0.35,0,0,0.0
3.6995208540010935,64,754.49,100.0,6.6,-38.0,-1.27,-0.98,0.7,0.17,0.88,-0.1,-160.2,-125.6,-69.0,-0.14,3.46,0.03,0.0,0.9018314698434514,1.750228556503407,0.11923711673569659,0.35,0,0,0.0
3.7076651890001813,65,754.5,99.8,6.7,-37.9,-1.04,-0.83,0.63,0.18,0.88,-0.11,-161.5,-128.0,-31.0,-0.11,3.49,-0.17,0.0,0.9049309365912959,1.47220922426128,0.113814896988095,0.35,0,0,0.0
3.719906473001174,66,754.51,99.7,6.8,-37.8,-0.84,-0.65,0.58,0.18,0.9,-0.11,-162.8,-127.5,-2.0,-0.08,3.44,-0.12,0.0,0.9243916918709298,1.2101652779682617,0.09246705887429174,0.35,0,0,0.0
3.727637787000276,67,754.52,99.6,6.9,-37.7,-0.69,-0.47,0.52,0.18,0.91,-0.11,-164.1,-125.5,20.0,-0.04,3.36,0.04,0.0,0.9341306118525396,0.983564944474944,0.08107357611482824,0.35,0,0,0.0
3.7396751820015197,68,754.53,99.6,7.0,-37.7,-0.56,-0.35,0.46,0.17,0.93,-0.1,-165.3,-120.3,47.0,-0.01,3.18,-0.07,0.0,0.9506839643120105,0.8047981113297918,0.06322981918225012,0.35,0,0,0.0
3.747698807999768,69,754.54,99.5,7.0,-37.7,-0.57,-0.27,0.37,0.17,0.96,-0.1,-166.4,-114.1,58.0,0.01,3.01,0.03,0.0,0.9800510190801294,0.7312318373812781,0.03318550912584872,0.35,0,0,0.0
3.7595960700000433,70,754.55,99.4,7.1,-37.6,-0.76,-0.15,0.28,0.16,0.97,-0.11,-167.5,-106.8,67.0,0.04,2.82,-0.15,0.0,0.9892421341612982,0.8237111144084436,0.023514506163786253,0.35,0,0,0.0
3.767694461001156,71,754.56,99.3,7.1,-37.6,-1.0,-0.1,0.19,0.15,0.97,-0.11,-168.5,-98.8,75.0,0.07,2.59,0.04,0.0,0.987674035297071,1.0227903010881556,0.024580952927453215,0.35,0,0,0.0
3.779516100999899,72,754.57,99.1,7.2,-37.6,-1.26,-0.08,0.09,0.13,0.97,-0.1,-169.5,-89.8,91.0,0.09,2.31,-0.2,0.0,0.9837682653958706,1.2657408897558773,0.027916988372080453,0.35,0,0,0.0
3.7876363240011415,73,754.58,99.0,7.2,-37.6,-1.5,-0.06,0.05,0.12,0.96,-0.11,-170.3,-79.1,102.0,0.11,2.02,-0.1,0.0,0.9737042672187485,1.502031957050182,0.037221366818218526,0.35,0,0,0.0
3.7996672230001423,74,754.59,98.8,7.2,-37.6,-1.52,-0.06,0.05,0.1,0.92,-0.11,-171.0,-66.9,121.0,0.13,1.65,-0.19,0.0,0.931933474020544,1.5220052562327109,0.0774123168160945,0.35,0,0,0.0
3.807674643001519,75,754.6,98.6,7.2,-37.6,-1.3,-0.09,0.02,0.1,0.89,-0.11,-171.6,-54.4,124.0,0.14,1.31,-0.06,0.0,0.9023303164584464,1.3032651303552936,0.10487516489062831,0.35,0,0,0.0
3.8197247100015375,76,754.61,98.5,7.2,-37.6,-1.04,-0.09,0.0,0.1,0.89,-0.12,-172.0,-41.0,129.0,0.16,0.95,-0.23,0.0,0.9036038955205982,1.0438869670610895,0.10152955411190712,0.35,0,0,0.0
3.827676792001512,77,754.62,98.4,7.2,-37.6,-0.86,-0.07,-0.05,0.1,0.87,-0.13,-172.4,-27.9,124.0,0.16,0.61,-0.35,0.0,0.8853247991556545,0.864291617453276,0.11741247746731376,0.35,0,0,0.0
3.840047936000701,78,754.63,98.3,7.1,-37.6,-0.66,-0.03,-0.1,0.1,0.89,-0.14,-172.6,-15.8,131.0,0.17,0.25,0.12,0.0,0.9064766957842877,0.6682065548915246,0.094335369221907,0.35,0,0,0.0
3.847645765999914,79,754.64,98.3,7.1,-37.6,-0.42,-0.04,-0.03,0.1,0.94,-0.15,-172.6,-3.1,115.0,0.17,-0.03,-0.17,0.0,0.9571311299921239,0.422965719651132,0.04280731631378931,0.35,0,0,0.0
3.859391484000298,80,754.65,98.3,7.1,-37.6,-0.3,-0.07,0.02,0.12,0.93,-0.18,-172.6,3.4,60.0,0.17,-0.09,0.19,0.0,0.954829827770373,0.3087069808086626,0.044206446164829494,0.35,0,0,0.0
3.8676618360004795,81,754.66,98.3,7.1,-37.5,-0.35,-0.15,0.0,0.14,0.92,-0.19,-172.6,0.0,-5.0,0.17,0.02,-0.02,0.0,0.9497894503520241,0.3807886552931954,0.0482618871115148,0.35,0,0,0.0
3.8795700460013904,82,754.67,98.3,7.1,-37.5,-0.57,-0.26,-0.07,0.16,0.91,-0.19,-172.6,-0.8,0.0,0.17,0.02,0.12,0.0,0.9432921074619462,0.6303967004989794,0.05366404540156078,0.35,0,0,0.0
3.8876812660000724,83,754.68,98.3,7.1,-37.5,-0.67,-0.4,-0.21,0.16,0.89,-0.2,-172.6,-0.5,-2.0,0.17,0.03,0.19,0.0,0.9261209424259879,0.808084154033477,0.06941850622876877,0.35,0,0,0.0
3.8995179180001287,84,754.69,98.2,7.1,-37.4,-0.72,-0.42,-0.31,0.15,0.92,-0.23,-172.6,-1.5,-5.0,0.17,0.04,-0.26,0.0,0.9601041610158764,0.889325587172662,0.03472658188610267,0.35,0,0,0.0
3.907639504001054,85,754.7,98.2,7.1,-37.4,-0.78,-0.33,-0.3,0.14,0.92,-0.23,-172.6,-2.6,-15.0,0.17,0.1,-0.03,0.0,0.9585927185202274,0.8984987479123162,0.035513263894116576,0.35,0,0,0.0
3.9196484180010884,86,754.71,98.2,7.1,-37.4,-0.65,-0.25,-0.29,0.14,0.92,-0.22,-172.7,-6.3,-35.0,0.17,0.23,0.11,0.0,0.9562426470305536,0.7543871685016919,0.037106068676114545,0.35,0,0,0.0
3.9276989980007784,87,754.72,98.2,7.1,-37.3,-0.5,-0.22,-0.33,0.15,0.92,-0.21,-172.8,-9.9,-23.0,0.17,0.27,0.01,0.0,0.9555103348473003,0.638200595424354,0.03708161324218051,0.35,0,0,0.0
3.9397498320013256,88,754.73,98.2,7.0,-37.3,-0.44,-0.17,-0.42,0.14,0.94,-0.2,-172.9,-11.0,-22.0,0.17,0.34,0.09,0.0,0.9711848433743187,0.6315853069855251,0.020978962620858965,0.35,0,0,0.0
3.9476651460008725,89,754.74,98.2,7.0,-37.3,-0.41,-0.16,-0.55,0.13,0.95,-0.2,-173.0,-13.0,-14.0,0.18,0.35,-0.01,0.0,0.9794896630388705,0.7044146506142529,0.012420660097180902,0.35,0,0,0.0
3.959490884000843,90,754.75,98.2,6.9,-37.3,-0.5,-0.22,-0.71,0.11,0.95,-0.2,-173.2,-15.8,-34.0,0.18,0.48,0.16,0.0,0.9770363350459388,0.8958236433584459,0.014576508328310367,0.35,0,0,0.0
3.967693579999832,91,754.76,98.2,6.9,-37.3,-0.65,-0.28,-0.8,0.1,0.96,-0.21,-173.3,-19.2,-30.0,0.19,0.55,0.03,0.0,0.9877752780870759,1.0681292056675542,0.0037608139814298003,0.35,0,0,0.0
3.9795706889999565,92,754.77,98.1,6.8,-37.2,-0.85,-0.38,-0.87,0.09,0.95,-0.21,-173.6,-23.8,-52.0,0.2,0.73,-0.1,0.0,0.9770875088752287,1.274284112747232,0.014159611529411475,0.35,0,0,0.0
3.9876685819999693,93,754.78,98.1,6.7,-37.2,-0.95,-0.46,-0.95,0.1,0.93,-0.22,-173.8,-30.2,-50.0,0.2,0.86,-0.08,0.0,0.9608850087289322,1.4200704207890538,0.029754869442193743,0.35,0,0,0.0
3.9995184050003445,94,754.79,98.0,6.6,-37.2,-1.07,-0.4,-1.03,0.11,0.93,-0.24,-174.2,-34.8,-43.0,0.21,0.98,0.02,0.0,0.9667471230885563,1.5381157303662167,0.02341489998091828,0.35,0,0,0.0
4.007593947000714,95,754.8,98.0,6.4,-37.1,-1.13,-0.31,-1.04,0.11,0.93,-0.23,-174.5,-37.4,-31.0,0.22,1.05,-0.03,0.0,0.9643132271207319,1.5667163112701674,0.02533182002976786,0.35,0,0,0.0
4.01968369899987,96,754.81,97.9,6.3,-37.1,-1.02,-0.19,-1.04,0.12,0.9,-0.25,-174.9,-39.0,-20.0,0.23,1.09,0.03,0.0,0.9417536832951597,1.46904731033415,0.04693353657823318,0.35,0,0,0.0
4.02758956300022,97,754.82,97.8,6.2,-37.1,-0.71,0.05,-1.07,0.14,0.89,-0.27,-175.3,-41.5,-23.0,0.25,1.15,-0.01,0.0,0.9405317644821997,1.2851069994362336,0.047192346283369435,0.35,0,0,0.0
4.040060670000457,98,754.83,97.8,6.1,-37.2,-0.34,0.33,-1.02,0.14,0.91,-0.26,-175.8,-43.5,-19.0,0.26,1.2,0.08,0.0,0.9567131231461184,1.1246777316191514,0.03039076786706163,0.35,0,0,0.0
4.047518004999802,99,754.84,97.8,6.0,-37.2,0.09,0.61,-0.91,0.14,0.92,-0.28,-176.2,-45.4,-15.0,0.27,1.23,-0.04,0.0,0.9718024490605074,1.0992270011239715,0.014995413113619183,0.35,0,0,0.0
4.059524715999942,100,754.85,97.8,6.0,-37.3,0.61,0.94,-0.82,0.14,0.93,-0.3,-176.7,-46.4,-18.0,0.28,1.29,-0.06,0.0,0.9871676655968833,1.3885604055999867,0.0003624073543015971,0.35,0,0,0.0
4.067743072000667,101,754.86,97.9,5.9,-37.5,0.96,1.22,-0.71,0.13,0.97,-0.28,-177.1,-46.1,10.0,0.29,1.21,-0.11,0.0,1.0179390944452424,1.7070735192135107,0.030511159478607497,0.35,0,0,0.0
4.079582133001168,102,754.87,98.0,5.9,-37.6,1.05,1.39,-0.54,0.12,1.02,-0.27,-177.6,-42.7,24.0,0.31,1.12,0.03,0.0,1.0619322012256713,1.8237872682963876,0.0730141809338557,0.35,0,0,0.0
4.0875407319999795,103,754.88,98.1,5.8,-37.7,1.13,1.51,-0.33,0.11,1.04,-0.27,-178.0,-38.0,37.0,0.32,0.99,-0.03,0.0,1.0800925886237718,1.914654015742792,0.08935107696531697,0.35,0,0,0.0
4.099651825001274,104,754.89,98.3,5.8,-37.9,1.25,1.61,-0.17,0.09,1.06,-0.25,-178.3,-34.1,45.0,0.33,0.86,0.12,0.0,1.0927945827098522,2.0453606039033803,0.10001200963036938,0.35,0,0,0.0
4.1076380200011045,105,754.9,98.4,5.8,-38.0,1.27,1.55,-0.08,0.08,1.06,-0.22,-178.6,-28.8,54.0,0.33,0.69,-0.12,0.0,1.085541339608953,2.005442594541165,0.0909035911988808,0.35,0,0,0.0
4.119588788000328,106,754.91,98.6,5.9,-38.2,1.16,1.33,-0.04,0.09,1.06,-0.19,-178.9,-22.3,53.0,0.34,0.54,-0.14,0.0,1.0806479537758817,1.7652478579508317,0.08429000125849329,0.35,0,0,0.0
4.127372624001509,107,754.92,98.7,5.9,-38.3,1.04,1.16,-0.01,0.09,1.09,-0.16,-179.1,-16.7,56.0,0.34,0.38,-0.2,0.0,1.105350623105628,1.5579794607118542,0.10681281717647484,0.35,0,0,0.0
4.138981447000333,108,754.93,98.7,5.9,-38.4,1.05,1.08,0.08,0.07,1.12,-0.11,-179.2,-10.1,66.0,0.35,0.19,-0.03,0.0,1.127563745426395,1.5084097586531322,0.12644542070729692,0.35,0,0,0.0
4.151696779999838,109,754.94,98.8,5.9,-38.5,1.25,0.97,0.22,0.07,1.15,-0.07,-179.3,-4.4,54.0,0.35,0.06,-0.06,0.0,1.1542530051942683,1.5974354447050434,0.1500719868656668,0.35,0,0,0.0
4.1596193260011205,110,754.95,98.9,5.9,-38.6,1.4,0.82,0.41,0.1,1.17,-0.03,-179.3,0.7,45.0,0.35,-0.04,-0.03,0.0,1.1746488837095108,1.6734694499751106,0.16705850807329115,0.35,0,0,0.0
4.167711717000202,111,754.96,99.0,6.0,-38.7,1.27,0.63,0.63,0.14,1.14,-0.02,-179.2,1.0,15.0,0.35,-0.03,-0.03,0.0,1.1487384384619503,1.5513542471015447,0.13832510156921596,0.35,0,0,0.0
4.179525747000298,112,754.97,99.1,6.0,-38.7,1.05,0.54,0.63,0.17,1.03,-0.04,-179.2,3.2,27.0,0.35,-0.13,0.11,0.0,1.04470091413763,1.3382824813917278,0.0336018256999977,0.35,0,0,0.0
4.187527617999876,113,754.98,99.2,6.1,-38.8,0.95,0.69,0.42,0.19,0.93,-0.09,-179.2,9.1,56.0,0.34,-0.34,0.03,0.0,0.9534673565466204,1.2469963913339925,0.05647909725319156,0.35,0,0,0.0
4.199642908000897,114,754.99,99.3,6.1,-38.9,0.98,1.16,0.15,0.2,0.88,-0.11,-179.0,15.8,58.0,0.34,-0.49,0.06,0.0,0.9091204540653565,1.5259423318068084,0.09880947973976639,0.35,0,0,0.0
4.210051482999916,115,755.0,99.3,6.1,-38.9,0.98,1.16,0.15,0.2,0.88,-0.11,-178.9,21.3,93.0,0.33,-0.82,-0.05,0.0,0.9091204540653565,1.5259423318068084,0.096833290144971,0.35,0,0,0.0
4.219513145000747,116,755.01,99.4,6.2,-39.2,1.16,2.48,0.02,0.17,0.89,-0.08,-178.4,38.8,143.0,0.32,-1.24,0.0,0.0,0.9096153033013462,2.737955441565841,0.09441167209080159,0.35,0,0,0.0
4.230030538999927,117,755.02,99.5,6.3,-39.5,1.45,2.97,0.18,0.16,0.92,-0.03,-177.9,54.9,162.0,0.3,-1.73,-0.36,0.0,0.9342911751697112,3.309954682469233,0.0683410842179879,0.35,0,0,0.0
4.239618999001323,118,755.03,99.7,6.4,-39.8,1.85,3.17,0.47,0.14,0.98,0.01,-177.3,75.6,203.0,0.28,-2.34,0.0,0.0,0.9899999999999999,3.7003107977573992,0.012379614199945155,0.35,0,0,0.0
4.250044047001211,119,755.04,99.8,6.5,-40.1,2.19,3.09,0.82,0.11,1.04,0.03,-176.3,98.0,209.0,0.25,-2.91,-0.05,0.0,1.0462313319720453,3.8751258044094516,0.04297468341665822,0.35,0,0,0.0
4.259668220000094,120,755.05,100.0,6.6,-40.4,2.47,2.79,1.1,0.07,1.09,0.03,-175.2,119.3,217.0,0.22,-3.52,-0.21,0.0,1.0926573113286708,3.8852284360124827,0.087612649517818,0.35,0,0,0.0
4.270139146001384,121,755.06,100.3,6.8,-40.6,2.59,2.29,1.21,0.03,1.13,0.02,-173.9,142.8,231.0,0.18,-4.17,-0.17,0.0,1.1305750749065715,3.662826777230941,0.12301980483380426,0.35,0,0,0.0
4.279642974001035,122,755.07,100.5,6.9,-40.8,2.52,1.54,1.08,0.0,1.13,0.0,-172.3,166.8,237.0,0.14,-4.82,0.18,0.0,1.13,3.1445826432135635,0.11999583532868807,0.35,0,0,0.0
4.290112178001436,123,755.08,100.7,7.0,-40.9,2.33,0.74,0.71,0.0,1.13,-0.03,-170.4,190.9,234.0,0.08,-5.47,-0.29,0.0,1.130398159941885,2.5457022606738597,0.11798611536516179,0.35,0,0,0.0
4.2996084120004525,124,755.09,100.9,7.1,-40.9,1.81,0.11,0.28,0.01,1.12,-0.1,-168.4,212.6,219.0,0.02,-6.03,-0.01,0.0,1.1244998888394788,1.8348296923692944,0.10984608737750046,0.35,0,0,0.0
4.310053261000576,125,755.1,101.1,7.1,-40.9,1.0,-0.21,-0.09,0.04,1.08,-0.15,-166.1,235.0,235.0,-0.03,-6.69,-0.02,0.0,1.0911003620199198,1.0257680049601858,0.07491762934678259,0.35,0,0,0.0
4.31966987800115,126,755.11,101.1,7.0,-40.9,0.46,-0.25,-0.34,0.08,1.03,-0.16,-163.6,261.8,261.0,-0.1,-7.46,-0.06,0.0,1.0454185764563397,0.6242595614005444,0.02865112690753846,0.35,0,0,0.0
4.330127545001233,127,755.12,101.1,7.0,-40.9,0.49,-0.16,-0.49,0.11,0.97,-0.16,-160.7,288.3,248.0,-0.18,-8.11,-0.01,0.0,0.9892421341612982,0.7111961754677819,0.026974809079753026,0.35,0,0,0.0
4.339566571999967,128,755.13,101.2,6.9,-40.9,1.0,0.02,-0.61,0.14,0.94,-0.18,-157.7,308.8,213.0,-0.27,-8.63,-0.09,0.0,0.9672641831474997,1.1715374513859982,0.0479737048916804,0.35,0,0,0.0
4.350185785000576,129,755.14,101.3,6.9,-40.9,1.54,0.27,-0.74,0.17,0.93,-0.19,-154.5,329.3,214.0,-0.36,-9.22,0.13,0.0,0.9643132271207319,1.7297687706742773,0.049906167700079274,0.35,0,0,0.0
4.359514081999805,130,755.15,101.5,6.8,-41.0,1.82,0.54,-0.88,0.17,0.95,-0.18,-151.0,351.6,218.0,-0.45,-9.82,-0.05,0.0,0.9817331613019904,2.0924626639440906,0.031836508848444245,0.35,0,0,0.0
4.369906081001318,131,755.16,101.7,6.8,-41.0,1.73,0.71,-1.01,0.15,0.99,-0.16,-147.4,375.0,247.0,-0.56,-10.55,-0.22,0.0,1.0140019723846694,2.1253470304870214,0.0004236561895500923,0.35,0,0,0.0
4.380185252000956,132,755.17,101.8,6.7,-41.1,1.28,0.77,-1.1,0.13,1.02,-0.14,-143.4,402.3,241.0,-0.67,-11.18,-0.22,0.0,1.0377379245262264,1.8550741225083165,0.023676416164484904,0.35,0,0,0.0
4.3877821330006554,133,755.18,101.8,6.6,-41.2,0.43,0.72,-1.12,0.1,1.03,-0.12,-139.3,418.1,181.0,-0.78,-11.58,0.03,0.0,1.0417773274553443,1.3991783303067555,0.0271615027117309,0.35,0,0,0.0
4.400251163000576,134,755.19,101.7,6.5,-41.3,-0.41,0.6,-1.14,0.07,0.99,-0.1,-135.0,436.5,178.0,-0.9,-12.05,-0.25,0.0,0.9974968671630001,1.3519245541079576,0.016776578429001154,0.35,0,0,0.0
4.409878297999967,135,755.2,101.7,6.4,-41.4,-1.03,0.49,-1.16,0.04,0.95,-0.08,-130.6,443.1,76.0,-1.02,-12.08,0.02,0.0,0.95420123663722,1.6268374227316016,0.058870764775685536,0.35,0,0,0.0
4.420028047001324,136,755.21,101.5,6.3,-41.5,-1.48,0.37,-1.21,0.02,0.92,-0.07,-126.1,453.2,115.0,-1.15,-12.47,0.05,0.0,0.9228759396581969,1.9471517660418767,0.08839214051961441,0.35,0,0,0.0
4.431601146001412,137,755.22,101.3,6.2,-41.5,-1.79,0.3,-1.21,0.0,0.9,-0.05,-121.5,456.7,20.0,-1.27,-12.36,-0.06,0.0,0.9013878188659973,2.181329869597902,0.10768265608557781,0.35,0,0,0.0
4.439437323000675,138,755.23,101.2,6.1,-41.6,-1.87,0.16,-1.15,-0.01,0.89,-0.03,-116.9,456.0,29.0,-1.39,-12.47,0.02,0.0,0.8905616205518853,2.201136070305514,0.11613867731169603,0.35,0,0,0.0
4.447714334000921,139,755.24,101.0,6.0,-41.6,-1.63,0.0,-1.03,-0.01,0.89,-0.01,-112.3,459.9,33.0,-1.52,-12.56,0.19,0.0,0.8901123524589466,1.928159744419533,0.11425618649654201,0.35,0,0,0.0
4.46003792600095,140,755.25,100.8,5.9,-41.6,-1.17,-0.24,-0.84,-0.01,0.89,0.0,-107.7,466.9,51.0,-1.65,-12.72,-0.16,0.0,0.8900561780022652,1.4601712228365549,0.11202611373415883,0.35,0,0,0.0
4.4700968060005835,141,755.26,100.7,5.8,-41.6,-0.63,-0.48,-0.66,0.0,0.89,-0.02,-103.1,462.2,-37.0,-1.77,-12.47,-0.06,0.0,0.8902246907382427,1.030970416646375,0.10962044897821765,0.35,0,0,0.0
4.479617393000808,142,755.27,100.7,5.7,-41.5,-0.26,-0.72,-0.5,0.01,0.9,-0.04,-98.5,458.1,-38.0,-1.9,-12.36,-0.17,0.0,0.9009439494219382,0.9143303560529968,0.09692316648863175,0.35,0,0,0.0
4.4901354080011515,143,755.28,100.7,5.7,-41.5,-0.14,-0.93,-0.3,0.02,0.92,-0.07,-94.0,438.9,-201.0,-2.01,-11.53,0.03,0.0,0.9228759396581969,0.9871676655968833,0.07349135272732554,0.35,0,0,0.0
4.499578812001346,144,755.29,100.7,5.6,-41.4,-0.32,-1.02,-0.11,0.04,0.95,-0.11,-89.8,403.6,-344.0,-2.12,-10.36,0.29,0.0,0.957183368012629,1.0746627377926528,0.03840024588543556,0.35,0,0,0.0
4.510092091000843,145,755.3,100.6,5.6,-41.3,-0.64,-0.94,0.1,0.04,1.0,-0.15,-86.2,333.4,-697.0,-2.21,-7.85,0.45,0.0,1.0119782606360672,1.1415778554264269,0.016066753803242517,0.35,0,0,0.0
4.519544115000826,146,755.31,100.5,5.5,-41.2,-1.34,-0.83,0.29,0.06,1.02,-0.16,-83.6,230.3,-936.0,-2.27,-4.95,0.24,0.0,1.0342146779078316,1.6026852467031698,0.03753710765350682,0.35,0,0,0.0
4.530015583000932,147,755.32,100.3,5.5,-41.1,-1.87,-0.83,0.3,0.09,1.03,-0.16,-82.0,125.6,-988.0,-2.3,-2.19,0.28,0.0,1.0462313319720453,2.067800764096967,0.048562686483366146,0.35,0,0,0.0
4.539949830999831,148,755.33,100.1,5.6,-41.0,-2.41,-0.84,0.25,0.12,1.05,-0.21,-81.5,29.8,-931.0,-2.3,0.2,0.17,0.0,1.0774970997640783,2.5644102635888824,0.0782318851898911,0.35,0,0,0.0
4.5477331210004195,149,755.34,99.9,5.6,-40.9,-3.45,-0.61,0.3,0.15,1.08,-0.26,-81.6,-35.6,-649.0,-2.29,1.49,0.17,0.0,1.120937107959229,3.5163333175340474,0.11923845551734091,0.35,0,0,0.0
4.559930838000582,150,755.35,99.5,5.6,-40.9,-4.44,0.07,0.52,0.16,1.03,-0.29,-82.3,-74.5,-458.0,-2.27,2.44,0.05,0.0,1.081942697188719,4.470894765033058,0.07863916385189418,0.35,0,0,0.0
4.5701044310008,151,755.36,99.0,5.7,-40.9,-4.34,0.89,0.71,0.16,0.88,-0.26,-83.3,-109.9,-398.0,-2.24,3.44,0.12,0.0,0.9314504817756014,4.486847445590278,0.07041599052999892,0.35,0,0,0.0
4.579632834000222,152,755.37,98.7,5.8,-41.1,-2.9,1.47,0.79,0.13,0.77,-0.19,-84.6,-147.0,-384.0,-2.2,4.47,0.13,0.0,0.8036790404135223,3.3458930048643216,0.19422368325423645,0.35,0,0,0.0
4.590172281999912,153,755.38,98.5,5.9,-41.2,-0.9,1.6,0.82,0.12,0.77,-0.13,-86.4,-183.6,-362.0,-2.15,5.4,0.11,0.0,0.7900632886041472,2.0105720578979507,0.20368264636233935,0.35,0,0,0.0
4.599611491001269,154,755.39,98.5,6.1,-41.3,0.97,1.27,0.84,0.1,0.85,-0.12,-88.4,-218.4,-349.0,-2.08,6.34,0.26,0.0,0.8642337646724987,1.8053808462482368,0.1269219268881081,0.35,0,0,0.0
4.610056909001287,155,755.4,98.6,6.2,-41.4,1.6,1.0,0.75,0.1,0.96,-0.16,-90.8,-246.0,-270.0,-2.02,6.93,-0.06,0.0,0.9783659846908006,2.0303940504246953,0.012533912732410113,0.35,0,0,0.0
4.619474832999913,156,755.41,98.8,6.2,-41.5,1.13,0.93,0.65,0.09,1.04,-0.2,-93.4,-264.0,-205.0,-1.94,7.39,0.09,0.0,1.0628734637763801,1.6013431862033822,0.07053409502610608,0.35,0,0,0.0
4.629987854999854,157,755.42,98.9,6.3,-41.6,0.13,0.95,0.5,0.07,1.07,-0.21,-96.2,-280.5,-174.0,-1.87,7.8,0.2,0.0,1.0926573113286708,1.081387996974259,0.0983115837268288,0.35,0,0,0.0
4.6396010410007875,158,755.43,98.8,6.3,-41.7,-0.63,0.83,0.44,0.05,1.05,-0.18,-99.1,-291.8,-113.0,-1.79,8.01,-0.06,0.0,1.0664895686315923,1.1311056537742175,0.07070096420915528,0.35,0,0,0.0
4.6501535560000775,159,755.44,98.8,6.3,-41.7,-0.78,0.55,0.44,0.04,1.02,-0.16,-102.0,-294.5,-36.0,-1.71,7.98,-0.1,0.0,1.0332473082471592,1.050951949424901,0.03670952974822772,0.35,0,0,0.0
4.65958615999989,160,755.45,98.7,6.3,-41.8,-0.62,0.2,0.49,0.02,0.99,-0.17,-104.9,-294.1,-16.0,-1.63,8.0,-0.01,0.0,1.0046890066085126,0.8151686941977102,0.007988203547389494,0.35,0,0,0.0
4.670168456001193,161,755.46,98.7,6.3,-41.8,-0.16,-0.14,0.54,0.01,0.97,-0.17,-107.9,-293.5,13.0,-1.55,7.91,-0.32,0.0,0.9848350115628506,0.5803447251418764,0.011628475668307048,0.35,0,0,0.0
4.679511922000529,162,755.47,98.7,6.3,-41.7,0.21,-0.52,0.54,0.02,0.97,-0.19,-110.5,-287.4,53.0,-1.48,7.72,0.02,0.0,0.9886354231970448,0.7785242449660769,0.007671502753430537,0.35,0,0,0.0
4.687731015999816,163,755.48,98.7,6.4,-41.6,0.26,-0.86,0.5,0.03,0.96,-0.22,-113.4,-278.7,74.0,-1.4,7.47,0.07,0.0,0.9853425800197615,1.0282023147221562,0.010745059012099545,0.35,0,0,0.0
4.700096234000739,164,755.49,98.8,6.4,-41.5,0.14,-1.13,0.37,0.04,0.96,-0.25,-116.3,-270.0,91.0,-1.32,7.2,0.0,0.0,0.9928242543370907,1.197246841716444,0.0031981170008750226,0.35,0,0,0.0
4.710121273001278,165,755.5,98.8,6.4,-41.4,-0.22,-1.3,0.24,0.04,0.98,-0.26,-118.9,-256.9,118.0,-1.25,6.83,0.0,0.0,1.0146920715172658,1.3401492454200765,0.018296306175714094,0.35,0,0,0.0
4.719452188001014,166,755.51,98.7,6.4,-41.3,-0.6,-1.38,0.12,0.04,0.97,-0.27,-121.4,-244.2,126.0,-1.19,6.46,-0.4,0.0,1.007670581092849,1.5095694750490949,0.011049319436271299,0.35,0,0,0.0
4.727688275999753,167,755.52,98.7,6.4,-41.1,-0.72,-1.3,-0.04,0.06,0.94,-0.29,-123.7,-230.5,139.0,-1.12,6.07,0.11,0.0,0.9855455342093535,1.4866068747318506,0.010854212898279703,0.35,0,0,0.0
4.740330595001069,168,755.53,98.6,6.4,-41.0,-0.57,-1.12,-0.22,0.07,0.93,-0.29,-125.9,-213.4,175.0,-1.07,5.54,-0.03,0.0,0.9766780431646859,1.2758134659894447,0.019327269864088392,0.35,0,0,0.0
4.750105316999907,169,755.54,98.6,6.3,-40.9,-0.41,-0.92,-0.36,0.07,0.92,-0.29,-127.9,-192.7,198.0,-1.02,4.97,-0.22,0.0,0.9671607932500159,1.0696261028976433,0.028267629383183168,0.35,0,0,0.0
4.759550562001095,170,755.55,98.6,6.3,-40.8,-0.4,-0.71,-0.4,0.08,0.91,-0.29,-129.7,-171.6,202.0,-0.97,4.42,-0.34,0.0,0.9584362263604188,0.9077995373429092,0.03625235234732471,0.35,0,0,0.0
4.770066787001269,171,755.56,98.5,6.2,-40.8,-0.28,-0.5,-0.39,0.08,0.9,-0.29,-131.3,-152.4,189.0,-0.93,3.93,0.03,0.0,0.9489467845985885,0.6931810730249348,0.044826958226971914,0.35,0,0,0.0
4.779644205000295,172,755.57,98.5,6.2,-40.7,0.02,-0.39,-0.31,0.08,0.9,-0.28,-132.7,-135.7,174.0,-0.89,3.47,0.05,0.0,0.9459386872308374,0.49859803449271645,0.04687835448282851,0.35,0,0,0.0
4.789985535000596,173,755.58,98.6,6.2,-40.7,0.52,-0.36,-0.18,0.08,0.9,-0.28,-133.9,-119.8,163.0,-0.86,3.06,-0.06,0.0,0.9459386872308374,0.6575712889109439,0.04594078739317198,0.35,0,0,0.0
4.7997264210007415,174,755.59,98.6,6.1,-40.7,0.96,-0.36,-0.01,0.07,0.91,-0.27,-135.0,-105.8,139.0,-0.83,2.72,0.12,0.0,0.9517877914745493,1.025329215423027,0.03928984948647085,0.35,0,0,0.0
4.811693553001533,175,755.6,98.8,6.1,-40.6,1.0,-0.55,0.2,0.05,0.93,-0.22,-136.0,-95.2,110.0,-0.81,2.47,0.07,0.0,0.9569743988216195,1.1586630226256467,0.03342117729661265,0.35,0,0,0.0
4.819520778000879,176,755.61,98.9,6.1,-40.5,1.17,-0.89,0.39,0.04,0.95,-0.2,-136.9,-87.8,69.0,-0.78,2.35,0.0,0.0,0.9716480844420988,1.5208878985645193,0.018372541842610612,0.35,0,0,0.0
4.829937297001379,177,755.62,99.1,6.1,-40.4,1.55,-1.27,0.5,0.04,0.98,-0.2,-137.8,-86.0,28.0,-0.76,2.33,-0.02,0.0,1.000999500499376,2.065284484036037,0.010759296730373125,0.35,0,0,0.0
4.840419936999751,178,755.63,99.3,6.1,-40.3,1.57,-1.6,0.58,0.04,1.03,-0.18,-138.7,-88.7,-15.0,-0.74,2.46,0.01,0.0,1.0463746938836012,2.3154481207748967,0.05501180031230635,0.35,0,0,0.0
4.850005419000809,179,755.64,99.4,6.1,-40.1,0.77,-1.98,0.77,0.05,1.08,-0.12,-139.6,-91.9,-28.0,-0.71,2.55,-0.03,0.0,1.0877959367454908,2.259690244259155,0.09450438231071212,0.35,0,0,0.0
4.859921893999854,180,755.65,99.4,6.1,-39.8,-0.42,-2.32,0.96,0.09,1.04,-0.05,-140.5,-94.1,-7.0,-0.69,2.54,-0.08,0.0,1.045083728703112,2.54566297847928,0.05075633078296671,0.35,0,0,0.0
4.8677392629997485,181,755.66,99.3,6.2,-39.6,-1.09,-2.52,0.8,0.14,0.91,0.0,-141.3,-90.6,33.0,-0.66,2.32,0.0,0.0,0.9207062506576134,2.8598076858418295,0.07214872431728137,0.35,0,0,0.0
4.8798763640006655,182,755.67,99.3,6.2,-39.3,-0.61,-2.56,0.2,0.2,0.83,0.07,-142.2,-79.3,105.0,-0.64,1.92,-0.13,0.0,0.8566212698736823,2.639261260277201,0.1335090309991882,0.35,0,0,0.0
4.890030451000712,183,755.68,99.3,6.1,-39.1,0.46,-2.5,-0.73,0.26,0.8,0.11,-142.8,-60.2,182.0,-0.63,1.28,-0.04,0.0,0.848351342310484,2.6447117045152577,0.13894337939113865,0.35,0,0,0.0
4.900103465000939,184,755.69,99.4,6.0,-38.9,1.6,-2.16,-1.78,0.31,0.88,0.07,-143.3,-31.6,247.0,-0.62,0.51,-0.3,0.0,0.9356281312572854,3.223972704599095,0.05063325863545054,0.35,0,0,0.0
4.910098120000839,185,755.7,99.6,5.7,-38.7,1.63,-1.37,-2.41,0.31,1.06,0.01,-143.4,-6.8,234.0,-0.62,-0.09,-0.12,0.0,1.104445562261898,3.2158824605386314,0.11582048892177887,0.35,0,0,0.0
4.9233771880008135,186,755.71,99.7,5.5,-38.7,0.63,-0.76,-2.29,0.21,1.12,0.0,-143.4,8.2,135.0,-0.62,-0.27,0.03,0.0,1.1395174417269796,2.4937120924437126,0.14787452101912313,0.35,0,0,0.0
4.935215314000743,187,755.72,99.8,5.2,-38.7,0.39,-0.55,-1.99,0.09,1.06,0.05,-143.3,11.7,64.0,-0.62,-0.33,0.13,0.0,1.0649882628461218,2.1011187496188786,0.07187843529550009,0.35,0,0,0.0
4.943141720001222,188,755.73,99.8,5.1,-38.6,0.72,-0.87,-1.62,-0.01,1.05,0.07,-143.2,9.2,-20.0,-0.63,-0.14,0.11,0.0,1.0523782589924593,1.9747658088998807,0.058083062813000796,0.35,0,0,0.0
4.951586725001107,189,755.74,99.9,4.9,-38.5,1.31,-1.51,-1.16,-0.08,1.06,0.04,-143.1,0.6,-58.0,-0.63,0.06,-0.17,0.0,1.063766891757776,2.3112334369336214,0.06808226166675124,0.35,0,0,0.0
4.9596135940009844,190,755.75,100.1,4.8,-38.4,2.08,-2.19,-0.69,-0.11,1.12,0.0,-143.2,-2.1,-18.0,-0.62,0.03,0.13,0.0,1.1253888216967505,3.0981607446999906,0.1271101077736112,0.35,0,0,0.0
4.970222908001233,191,755.76,100.4,4.7,-38.1,2.74,-2.79,-0.15,-0.1,1.22,-0.08,-143.2,-0.5,-3.0,-0.62,0.03,0.13,0.0,1.2267028980156522,3.913336172628158,0.22385570041066272,0.35,0,0,0.0
4.979495538000265,192,755.77,100.7,4.6,-37.8,2.86,-3.06,0.35,-0.05,1.29,-0.14,-143.2,-2.4,-22.0,-0.62,0.12,-0.02,0.0,1.2985376390386225,4.203058410253181,0.2897766326049602,0.35,0,0,0.0
4.990084428000046,193,755.78,101.0,4.6,-37.5,2.06,-3.24,0.77,0.0,1.31,-0.16,-143.2,-5.7,-25.0,-0.62,0.18,-0.14,0.0,1.3197348218486926,3.9158779347676305,0.3047543391067298,0.35,0,0,0.0
4.999536444000114,194,755.79,101.1,4.6,-37.1,0.68,-3.42,1.04,0.06,1.26,-0.18,-143.3,-8.6,-34.0,-0.62,0.29,-0.03,0.0,1.274205634895718,3.638736044287906,0.25404064911068014,0.35,0,0,0.0
5.009971573001167,195,755.8,101.1,4.7,-36.8,-0.57,-3.43,1.15,0.09,1.15,-0.17,-143.4,-17.9,-91.0,-0.61,0.64,0.0,0.0,1.165975986030587,3.66228071015863,0.14289478024063818,0.35,0,0,0.0
5.019457999000224,196,755.81,101.0,4.7,-36.4,-1.24,-3.63,1.07,0.11,1.06,-0.13,-143.7,-30.5,-130.0,-0.6,1.06,0.16,0.0,1.0735921013122256,3.9823862193413637,0.04950067761183119,0.35,0,0,0.0
5.029701374000069,197,755.82,100.9,4.8,-36.0,-1.38,-3.65,0.91,0.14,1.0,-0.14,-144.2,-50.7,-168.0,-0.59,1.59,0.04,0.0,1.0194115949899727,4.006869101929834,0.004586232136213342,0.35,0,0,0.0
5.040374788000918,198,755.83,100.7,4.8,-35.7,-1.36,-3.54,0.76,0.17,0.96,-0.14,-144.8,-70.0,-187.0,-0.57,2.14,0.19,0.0,0.9849365461794988,3.8676607917447985,0.03828005532775358,0.35,0,0,0.0
5.050033433000863,199,755.84,100.6,4.9,-35.3,-1.36,-3.2,0.65,0.21,0.94,-0.17,-145.6,-89.2,-181.0,-0.55,2.62,-0.17,0.0,0.9780593029055038,3.537244690433502,0.04425415262971355,0.35,0,0,0.0
5.05965448400093,200,755.85,100.5,4.9,-35.0,-1.45,-2.74,0.63,0.23,0.91,-0.18,-146.7,-106.3,-175.0,-0.52,3.09,-0.05,0.0,0.9557196241576292,3.1633842637276937,0.06526195475003627,0.35,0,0,0.0
5.070133975001227,201,755.86,100.4,4.9,-34.8,-1.32,-2.08,0.71,0.25,0.88,-0.17,-147.8,-124.5,-186.0,-0.48,3.62,0.21,0.0,0.9304837451562493,2.5637667600622334,0.08868787707638792,0.35,0,0,0.0
5.079591142000936,202,755.87,100.3,5.0,-34.6,-0.81,-1.49,0.81,0.25,0.86,-0.14,-149.2,-140.3,-152.0,-0.44,3.96,0.03,0.0,0.9064766957842876,1.8794414063758413,0.1104410279193826,0.35,0,0,0.0
5.090079831001276,203,755.88,100.3,5.0,-34.5,-0.18,-0.93,0.89,0.25,0.85,-0.13,-150.7,-152.7,-128.0,-0.4,4.28,-0.02,0.0,0.8954886933959579,1.299769210283118,0.1190004497015581,0.35,0,0,0.0
5.099581739999849,204,755.89,100.3,5.1,-34.4,0.38,-0.36,0.89,0.24,0.86,-0.15,-152.3,-160.7,-82.0,-0.36,4.44,0.15,0.0,0.9053728513711905,1.0325211862233143,0.10693396589179893,0.35,0,0,0.0
5.11013146500045,205,755.9,100.3,5.2,-34.4,0.58,0.17,0.88,0.23,0.9,-0.15,-153.9,-164.9,-45.0,-0.31,4.49,-0.05,0.0,0.9409569596958194,1.0675673280875544,0.06992286041582663,0.35,0,0,0.0
5.119527964001463,206,755.91,100.4,5.3,-34.4,0.61,0.61,0.85,0.21,0.91,-0.14,-155.6,-166.3,-23.0,-0.27,4.52,-0.03,0.0,0.944351629426243,1.2110739036078682,0.06519762687169506,0.35,0,0,0.0
5.130009095000787,207,755.92,100.4,5.4,-34.4,0.58,0.86,0.74,0.19,0.91,-0.14,-157.2,-163.9,23.0,-0.22,4.38,-0.06,0.0,0.9401063769595439,1.274205634895718,0.06805402175162611,0.35,0,0,0.0
5.139578046000679,208,755.93,100.5,5.5,-34.5,0.49,1.01,0.56,0.18,0.92,-0.15,-158.8,-158.9,42.0,-0.18,4.24,0.13,0.0,0.9493682109698007,1.2545118572576348,0.05761634398654181,0.35,0,0,0.0
5.15019157900133,209,755.94,100.5,5.6,-34.6,0.25,1.11,0.39,0.15,0.92,-0.14,-160.4,-152.6,57.0,-0.14,4.07,-0.92,0.0,0.9426027795418386,1.2027884269479816,0.06309413990621393,0.35,0,0,0.0
5.159647225000299,210,755.95,100.5,5.7,-34.7,0.0,1.13,0.19,0.12,0.92,-0.14,-161.9,-143.7,87.0,-0.1,3.77,0.0,0.0,0.938296328459192,1.1458621208504973,0.06605257916908325,0.35,0,0,0.0
5.170003193999946,211,755.96,100.4,5.7,-34.8,-0.2,1.07,0.0,0.11,0.93,-0.13,-163.2,-132.6,99.0,-0.06,3.47,-0.08,0.0,0.9454628496138809,1.0885311203635843,0.05770833685410637,0.35,0,0,0.0
5.179523365000932,212,755.97,100.4,5.7,-34.9,-0.47,0.97,-0.07,0.08,0.94,-0.11,-164.5,-122.0,106.0,-0.03,3.18,-0.03,0.0,0.949789450352024,1.0801388799594245,0.05231410139364401,0.35,0,0,0.0
5.190106928001114,213,755.98,100.3,5.7,-35.0,-0.75,0.76,-0.13,0.05,0.94,-0.11,-165.6,-110.4,110.0,0.0,2.87,0.12,0.0,0.9477341399358787,1.0756393447619885,0.05328202357359357,0.35,0,0,0.0
5.199597471000743,214,755.99,100.1,5.7,-35.1,-0.92,0.57,-0.14,0.02,0.93,-0.11,-166.6,-100.5,104.0,0.02,2.6,-0.16,0.0,0.9366963221877195,1.091283647820309,0.06303344449531778,0.35,0,0,0.0
5.210104933001276,215,756.0,100.1,5.7,-35.1,-0.92,0.57,-0.14,0.02,0.93,-0.11,-167.3,-93.0,109.0,0.04,2.36,-0.16,0.0,0.9366963221877195,1.091283647820309,0.06177277560541139,0.35,0,0,0.0
5.219465385000149,216,756.01,99.9,5.6,-35.2,-0.68,0.31,-0.04,0.03,0.89,-0.15,-168.4,-82.9,91.0,0.06,2.16,0.05,0.0,0.9030503861911582,0.7483982896827064,0.0935103373699332,0.35,0,0,0.0
5.229860108000139,217,756.02,99.9,5.6,-35.2,-0.29,0.19,-0.02,0.06,0.86,-0.19,-169.2,-76.5,78.0,0.08,1.97,-0.03,0.0,0.8827797007181349,0.34727510708370674,0.1115054023860973,0.35,0,0,0.0
5.239950480001426,218,756.03,99.9,5.6,-35.2,0.09,0.2,-0.07,0.1,0.83,-0.23,-169.9,-68.0,76.0,0.1,1.77,-0.03,0.0,0.8670640114778148,0.23021728866442678,0.12467666979388914,0.35,0,0,0.0
5.250086028001533,219,756.04,100.0,5.6,-35.3,0.42,0.32,-0.22,0.13,0.83,-0.29,-170.6,-62.8,51.0,0.12,1.66,-0.06,0.0,0.8887631855561975,0.5720139858430037,0.10091794580119628,0.35,0,0,0.0
5.259593792001397,220,756.05,100.0,5.6,-35.3,0.67,0.54,-0.39,0.16,0.87,-0.35,-171.2,-58.5,46.0,0.13,1.54,0.0,0.0,0.9513148795220223,0.9447751055145347,0.037598926798664056,0.35,0,0,0.0
5.2700244990010106,221,756.06,100.1,5.5,-35.4,0.6,0.86,-0.48,0.18,0.92,-0.37,-171.7,-55.2,43.0,0.15,1.43,-0.14,0.0,1.0078194282707593,1.1532562594670794,0.018527509511071516,0.35,0,0,0.0
5.279561422999905,222,756.07,100.1,5.5,-35.5,0.24,1.16,-0.52,0.2,0.95,-0.33,-172.2,-50.8,43.0,0.16,1.31,-0.1,0.0,1.0253779790886872,1.2936769303036983,0.03536433912241943,0.35,0,0,0.0
5.290267141001095,223,756.08,100.1,5.5,-35.6,-0.4,1.33,-0.69,0.19,0.93,-0.3,-172.7,-47.3,35.0,0.17,1.25,-0.07,0.0,0.9954898291795854,1.5508062419270823,0.005366665429051287,0.35,0,0,0.0
5.299548512000911,224,756.09,100.0,5.4,-35.8,-1.14,1.61,-0.92,0.17,0.93,-0.31,-173.2,-43.5,39.0,0.19,1.12,0.16,0.0,0.9949371839468059,2.1767177125203903,0.004717739792346354,0.35,0,0,0.0
5.309922711001491,225,756.1,99.8,5.3,-36.0,-1.68,1.93,-0.96,0.14,0.93,-0.31,-173.6,-41.0,15.0,0.2,1.13,0.15,0.0,0.9902524930541705,2.732928831857866,3.2387921716781065e-05,0.35,0,0,0.0
5.323631891000332,226,756.11,99.6,5.3,-36.2,-1.46,2.2,-0.87,0.11,0.89,-0.28,-174.0,-40.7,7.0,0.21,1.11,-0.02,0.0,0.9394679345246436,2.780017985553331,0.04973712719565393,0.35,0,0,0.0
5.331536790999962,227,756.12,99.5,5.2,-36.4,-0.56,2.21,-0.79,0.08,0.88,-0.23,-174.4,-39.8,14.0,0.22,1.06,-0.04,0.0,0.9130717386930777,2.412840649524954,0.07461065656667543,0.35,0,0,0.0
5.339391561999946,228,756.13,99.6,5.2,-36.7,0.44,2.16,-0.8,0.05,0.88,-0.24,-174.8,-38.0,21.0,0.23,0.99,0.16,0.0,0.9135097153287424,2.3450373131359767,0.0726892263323905,0.35,0,0,0.0
5.3477728980014945,229,756.14,99.7,5.1,-36.9,0.76,2.11,-0.89,0.05,0.93,-0.25,-175.2,-36.9,6.0,0.24,1.0,-0.15,0.0,0.9643132271207318,2.4128406495249535,0.021448000249593147,0.35,0,0,0.0
5.360474365999835,230,756.15,99.8,5.0,-37.1,0.31,2.15,-0.9,0.04,0.98,-0.26,-175.5,-37.4,0.0,0.25,1.02,-0.03,0.0,1.0146920715172658,2.3512975141397994,0.028352227264002106,0.35,0,0,0.0
5.367638194000392,231,756.16,99.8,5.0,-37.3,-0.43,2.18,-0.83,0.04,0.97,-0.27,-175.9,-37.5,-5.0,0.26,1.04,0.02,0.0,1.007670581092849,2.3719612138481523,0.020904122102793576,0.35,0,0,0.0
5.3803612450010405,232,756.17,99.7,4.9,-37.6,-0.42,2.22,-0.79,0.05,0.94,-0.27,-176.3,-38.0,-2.0,0.27,1.03,0.02,0.0,0.9792854537876072,2.3935120638927225,0.007331385098399257,0.35,0,0,0.0
5.390113929001018,233,756.18,99.7,4.9,-37.8,0.17,2.26,-0.66,0.06,0.98,-0.27,-176.7,-37.7,0.0,0.28,1.02,-0.12,0.0,1.0182828683622247,2.360529601593676,0.03103270888669385,0.35,0,0,0.0
5.399511652000001,234,756.19,99.8,4.9,-38.0,0.54,2.25,-0.47,0.07,0.97,-0.29,-177.0,-35.5,27.0,0.29,0.9,0.03,0.0,1.0148398888494676,2.361143790623519,0.027037934786457996,0.35,0,0,0.0
5.4076972660004685,235,756.2,99.9,4.9,-38.3,0.83,2.39,-0.37,0.1,0.99,-0.31,-177.4,-30.4,43.0,0.3,0.76,0.0,0.0,1.0422091920531118,2.55693175505331,0.05331909323030015,0.35,0,0,0.0
5.420600661000208,236,756.21,99.9,4.9,-38.5,0.81,2.6,-0.19,0.12,1.03,-0.33,-177.6,-25.5,44.0,0.31,0.64,0.06,0.0,1.0882095386459356,2.729871791861296,0.09733305102666145,0.35,0,0,0.0
5.430255393001062,237,756.22,100.0,4.9,-38.8,0.86,3.06,0.03,0.14,1.06,-0.35,-177.8,-19.4,77.0,0.31,0.34,0.11,0.0,1.125033332839521,3.178694700659376,0.13147370831584193,0.35,0,0,0.0
5.439443068000401,238,756.23,100.1,5.0,-39.1,1.2,3.47,0.29,0.15,1.06,-0.32,-177.9,-9.3,64.0,0.31,0.22,0.04,0.0,1.1173629669896887,3.683069372140579,0.12132727561668943,0.35,0,0,0.0
5.44773505700141,239,756.24,100.2,5.1,-39.5,1.66,3.65,0.36,0.16,1.01,-0.3,-178.0,-7.2,35.0,0.31,0.16,-0.13,0.0,1.0656922632730332,4.025878786054046,0.06826344046203325,0.35,0,0,0.0
5.460179891000735,240,756.25,100.3,5.2,-39.8,1.7,3.59,0.23,0.16,0.98,-0.26,-178.1,-2.1,55.0,0.31,-0.02,-0.17,0.0,1.026450193628507,3.978818920232485,0.028440943401156993,0.35,0,0,0.0
5.467724433001422,241,756.26,100.5,5.3,-40.2,1.34,3.38,0.04,0.16,0.99,-0.21,-178.1,0.6,16.0,0.31,0.0,0.03,0.0,1.0245974819410792,3.6361518120122542,0.026056467079454526,0.35,0,0,0.0
5.479971560000195,242,756.27,100.5,5.4,-40.5,0.89,3.19,-0.04,0.12,1.01,-0.15,-178.1,-0.2,7.0,0.31,-0.01,-0.04,0.0,1.02810505299799,3.3120688398642923,0.028972757373638025,0.35,0,0,0.0
5.489905797001484,243,756.28,100.5,5.4,-40.8,0.64,3.06,0.02,0.05,1.07,-0.07,-178.1,0.2,1.0,0.31,0.0,0.03,0.0,1.0734523743510933,3.1262757395981566,0.07283367715220646,0.35,0,0,0.0
5.500000785999873,244,756.29,100.6,5.5,-41.1,0.69,2.95,0.29,-0.01,1.13,0.0,-178.1,0.4,3.0,0.31,-0.01,0.03,0.0,1.1300442469213317,3.043468416133146,0.126837038727996,0.35,0,0,0.0
5.509920585000145,245,756.3,100.6,5.6,-41.4,0.65,2.75,0.77,-0.07,1.2,0.08,-178.0,2.5,22.0,0.31,-0.11,0.0,0.0,1.2046991325638114,2.9288052171491366,0.19746208588306624,0.35,0,0,0.0
5.519612351999967,246,756.31,100.7,5.8,-41.6,0.37,2.46,1.29,-0.11,1.2,0.13,-178.0,7.1,40.0,0.31,-0.25,-0.04,0.0,1.212023102090055,2.802249096707857,0.20069033430112349,0.35,0,0,0.0
5.53003262600032,247,756.32,100.6,6.0,-41.8,-0.06,2.07,1.77,-0.11,1.18,0.17,-177.9,14.3,82.0,0.31,-0.54,0.06,0.0,1.197246841716444,2.7242246603391576,0.1821957924489621,0.35,0,0,0.0
5.539571823001097,248,756.33,100.6,6.2,-41.9,-0.67,1.4,2.18,-0.08,1.11,0.19,-177.6,29.4,130.0,0.3,-0.98,-0.2,0.0,1.1289818421923359,2.6760605374318422,0.111652177066357,0.35,0,0,0.0
5.550113915000111,249,756.34,100.5,6.4,-42.0,-0.78,0.74,2.33,-0.01,0.99,0.17,-177.2,45.9,163.0,0.28,-1.47,0.03,0.0,1.0045396955820112,2.566105999369473,0.012534170153088331,0.35,0,0,0.0
5.559567853000772,250,756.35,100.5,6.7,-42.0,-0.2,0.04,2.22,0.07,0.91,0.14,-176.6,65.8,182.0,0.27,-2.0,-0.25,0.0,0.9233634170791044,2.2293496809607953,0.09183623968287524,0.35,0,0,0.0
5.570137776001502,251,756.36,100.5,6.9,-41.9,0.72,-0.48,1.88,0.16,0.88,0.08,-175.8,84.5,187.0,0.24,-2.53,-1.26,0.0,0.8979977728257459,2.0695893312442446,0.11485784625750906,0.35,0,0,0.0
5.579659678000098,252,756.37,100.6,7.0,-41.8,1.65,-0.73,1.37,0.22,0.9,0.0,-174.8,106.2,217.0,0.21,-3.18,-0.01,0.0,0.9264987857520376,2.2654580110873828,0.08462969666459308,0.35,0,0,0.0
5.590095465000559,253,756.38,100.8,7.1,-41.7,2.14,-0.75,0.87,0.27,0.95,-0.08,-173.6,130.5,230.0,0.18,-3.82,-0.07,0.0,0.9908582138732059,2.428785704832767,0.019864863172556313,0.35,0,0,0.0
5.599520850000772,254,756.39,101.1,7.1,-41.7,2.35,-0.51,0.3,0.29,0.99,-0.16,-172.1,152.8,226.0,0.13,-4.44,-0.13,0.0,1.0439348638684312,2.423344795938044,0.03254755108621543,0.35,0,0,0.0
5.609982368001511,255,756.4,101.3,7.1,-41.6,2.23,-0.1,-0.25,0.28,1.04,-0.23,-170.5,175.2,218.0,0.09,-5.01,-0.11,0.0,1.1013173929435602,2.246196785680186,0.08813147855811754,0.35,0,0,0.0
5.619585338999968,256,756.41,101.5,7.1,-41.7,1.59,0.42,-0.79,0.23,1.08,-0.27,-168.6,195.5,207.0,0.03,-5.56,0.03,0.0,1.1367497525840944,1.8244451211258728,0.12109256143467872,0.35,0,0,0.0
5.6300420420011505,257,756.42,101.6,7.0,-41.7,0.67,0.92,-1.16,0.18,1.12,-0.26,-166.5,216.6,220.0,-0.02,-6.17,-0.07,0.0,1.1637869220780925,1.625084613181726,0.14516713631010325,0.35,0,0,0.0
5.640305666000131,258,756.43,101.6,7.0,-41.9,-0.13,1.39,-1.3,0.13,1.13,-0.23,-164.1,241.8,246.0,-0.09,-6.89,0.08,0.0,1.1604740410711476,1.9076163136228417,0.13901717019709525,0.35,0,0,0.0
5.650080278001042,259,756.44,101.6,6.8,-42.1,-0.34,1.72,-1.27,0.07,1.11,-0.17,-161.5,267.0,237.0,-0.16,-7.53,-0.14,0.0,1.1251222155837115,2.164924940962157,0.101592037815466,0.35,0,0,0.0
5.659578368000439,260,756.45,101.5,6.7,-42.3,-0.2,1.78,-1.14,0.02,1.08,-0.12,-158.7,287.7,211.0,-0.24,-8.05,-0.11,0.0,1.086830253535482,2.1232051243344343,0.06203407425189167,0.35,0,0,0.0
5.6701053800006775,261,756.46,101.5,6.7,-42.5,-0.14,1.59,-0.99,-0.01,1.05,-0.06,-155.7,308.4,215.0,-0.32,-8.65,0.17,0.0,1.0517604289951206,1.8782438606315208,0.026424964717299826,0.35,0,0,0.0
5.679568634001043,262,756.47,101.4,6.6,-42.6,-0.32,1.16,-0.84,-0.02,1.0,-0.02,-152.5,330.1,212.0,-0.41,-9.2,-0.19,0.0,1.000399920031984,1.4675149062275312,0.02443683336091995,0.35,0,0,0.0
5.690147082001204,263,756.48,101.4,6.5,-42.7,-0.57,0.64,-0.77,-0.02,0.94,0.0,-149.0,349.6,201.0,-0.51,-9.75,-0.05,0.0,0.9402127418834526,1.152128465059344,0.08293153127926234,0.35,0,0,0.0
5.699648152000009,264,756.49,101.3,6.5,-42.8,-0.69,0.05,-0.79,-0.02,0.89,-0.01,-145.4,372.3,222.0,-0.61,-10.39,-0.01,0.0,0.8902808545621994,1.0500952337764418,0.13020615022850524,0.35,0,0,0.0
5.710054033999768,265,756.5,101.2,6.4,-42.8,-0.57,-0.44,-0.87,-0.03,0.86,-0.03,-141.5,388.7,148.0,-0.72,-10.67,-0.14,0.0,0.8610458756651703,1.12933608815091,0.15625230654302358,0.35,0,0,0.0
5.719723856000201,266,756.51,101.2,6.3,-42.7,-0.31,-0.8,-0.96,-0.03,0.87,-0.06,-137.6,398.6,126.0,-0.83,-10.98,-0.25,0.0,0.8725823743349392,1.2875169901791588,0.14182149171578962,0.35,0,0,0.0
5.729981950000365,267,756.52,101.2,6.2,-42.6,-0.09,-1.02,-0.96,-0.02,0.92,-0.09,-133.5,408.5,75.0,-0.94,-11.1,0.19,0.0,0.9246080250571049,1.4036025078347503,0.08799992417375146,0.35,0,0,0.0
5.73957662400062,268,756.53,101.2,6.1,-42.6,0.02,-1.1,-0.79,0.0,0.98,-0.13,-129.4,406.6,25.0,-1.05,-11.1,-0.03,0.0,0.9885848471426213,1.354437152473307,0.023542640046470442,0.35,0,0,0.0
5.75008773800073,269,756.54,101.2,6.0,-42.5,0.05,-1.07,-0.54,0.01,1.01,-0.16,-125.3,414.4,62.0,-1.16,-11.33,0.03,0.0,1.0226436329435586,1.1995832609702421,0.010305822839377532,0.35,0,0,0.0
5.759625841001252,270,756.55,101.2,5.9,-42.4,-0.14,-1.02,-0.34,0.05,1.03,-0.18,-121.2,415.4,7.0,-1.27,-11.26,0.0,0.0,1.0468046618161384,1.084250893474384,0.03377751467771817,0.35,0,0,0.0
5.770080620000954,271,756.56,101.2,5.8,-42.3,-0.48,-0.88,-0.14,0.08,1.03,-0.19,-117.0,415.4,18.0,-1.39,-11.35,0.38,0.0,1.0504284840006957,1.0121264743103997,0.036653310125029925,0.35,0,0,0.0
5.779572634000942,272,756.57,101.1,5.8,-42.2,-0.93,-0.69,0.02,0.1,1.03,-0.2,-112.8,417.4,12.0,-1.5,-11.36,-0.07,0.0,1.0539924098398432,1.1581882403132921,0.03941289124489389,0.35,0,0,0.0
5.789965862000827,273,756.58,101.0,5.8,-42.1,-1.37,-0.43,0.16,0.1,1.01,-0.18,-108.6,422.0,53.0,-1.62,-11.57,0.07,0.0,1.0307764064044151,1.4447837208385206,0.015872950053276602,0.35,0,0,0.0
5.799891634000232,274,756.59,100.8,5.8,-42.1,-1.73,-0.24,0.29,0.1,0.99,-0.15,-104.4,421.6,-36.0,-1.73,-11.31,0.17,0.0,1.0062802790475425,1.7704801608603242,0.008450713757524264,0.35,0,0,0.0
5.81000240800131,275,756.6,100.6,5.8,-42.1,-1.96,-0.08,0.42,0.1,0.96,-0.14,-100.3,411.1,-64.0,-1.84,-11.1,0.19,0.0,0.9752948272189287,2.0060907257649143,0.0386474422744153,0.35,0,0,0.0
5.819854707000559,276,756.61,100.4,5.9,-42.1,-2.05,0.0,0.48,0.09,0.93,-0.12,-96.2,397.9,-163.0,-1.95,-10.47,0.06,0.0,0.942019108086455,2.105445321066306,0.07048469817875136,0.35,0,0,0.0
5.830160773000898,277,756.62,100.1,5.9,-42.1,-2.16,0.02,0.49,0.07,0.92,-0.11,-92.5,361.4,-337.0,-2.04,-9.26,0.31,0.0,0.9291931984253867,2.214971783115984,0.08164439568302329,0.35,0,0,0.0
5.839607280000564,278,756.63,99.9,5.9,-42.1,-2.46,0.0,0.5,0.04,0.93,-0.11,-89.2,308.2,-517.0,-2.13,-7.56,0.21,0.0,0.9373366524360393,2.510298786997277,0.07203092283892343,0.35,0,0,0.0
5.850099103001412,279,756.64,99.6,6.0,-42.1,-2.85,-0.04,0.51,0.0,0.95,-0.09,-86.7,231.6,-724.0,-2.19,-5.24,0.41,0.0,0.9542536350467835,2.8955483073159045,0.054011661423615576,0.35,0,0,0.0
5.859679926999888,280,756.65,99.3,6.0,-42.0,-3.05,-0.31,0.5,-0.01,0.95,-0.08,-84.9,146.7,-802.0,-2.22,-2.96,0.31,0.0,0.9534149149242421,3.1062195672553474,0.053753373915233826,0.35,0,0,0.0
5.867674734001412,281,756.66,99.0,6.1,-42.0,-3.13,-0.67,0.52,-0.01,0.97,-0.11,-84.0,62.0,-828.0,-2.24,-0.66,0.43,0.0,0.9762684057163787,3.2428691000408882,0.03028188546063537,0.35,0,0,0.0
5.8799580290015,282,756.67,98.7,6.1,-41.9,-3.48,-0.91,0.67,0.01,0.98,-0.14,-84.0,-10.9,-665.0,-2.23,0.84,0.0,0.0,0.9899999999999999,3.6588796099352603,0.016219285353474056,0.35,0,0,0.0
5.887666639000599,283,756.68,98.3,6.1,-41.8,-3.67,-0.88,0.86,0.04,0.93,-0.16,-84.3,-48.4,-444.0,-2.22,1.71,0.09,0.0,0.94451045520947,3.8707751161750537,0.06047465354112391,0.35,0,0,0.0
5.900307948000773,284,756.69,98.0,6.2,-41.7,-3.06,-0.71,0.95,0.06,0.85,-0.15,-85.1,-80.3,-350.0,-2.19,2.52,-0.1,0.0,0.8652167358529306,3.281798287524692,0.13697300543971003,0.35,0,0,0.0
5.910005726000236,285,756.7,97.8,6.2,-41.6,-1.79,-0.54,0.86,0.09,0.81,-0.14,-86.1,-107.7,-295.0,-2.16,3.25,0.06,0.0,0.826922003577121,2.057984450864486,0.17176238296120927,0.35,0,0,0.0
5.9199897830003465,286,756.71,97.7,6.3,-41.6,-0.92,-0.54,0.74,0.11,0.85,-0.11,-87.3,-133.4,-269.0,-2.13,3.92,-0.07,0.0,0.8641180474911978,1.2983065893693986,0.1318750122661898,0.35,0,0,0.0
5.9299943670012,287,756.72,97.6,6.4,-41.5,-0.64,-0.66,0.62,0.12,0.89,-0.13,-88.8,-158.3,-251.0,-2.08,4.59,0.05,0.0,0.9074139077620532,1.108873302050329,0.08680756895542774,0.35,0,0,0.0
5.939955412000927,288,756.73,97.6,6.4,-41.4,-0.88,-0.74,0.51,0.12,0.92,-0.17,-90.6,-180.1,-215.0,-2.03,5.11,0.06,0.0,0.9432391001225512,1.2578155667664477,0.04996272906303112,0.35,0,0,0.0
5.949837558000581,289,756.74,97.5,6.5,-41.3,-1.17,-0.74,0.43,0.11,0.93,-0.18,-92.5,-197.8,-185.0,-1.98,5.57,0.01,0.0,0.9536246641105713,1.4496206400296594,0.03878562177351075,0.35,0,0,0.0
5.9606001720003405,290,756.75,97.4,6.5,-41.2,-1.28,-0.84,0.4,0.09,0.91,-0.17,-94.6,-214.2,-170.0,-1.92,6.02,0.04,0.0,0.9301075206662938,1.5824032355881985,0.061056709913432594,0.35,0,0,0.0
5.970037406001211,291,756.76,97.4,6.5,-41.1,-1.15,-0.97,0.36,0.07,0.89,-0.19,-96.8,-229.7,-153.0,-1.86,6.4,0.04,0.0,0.9127431182978045,1.5469324484281788,0.07685269003628337,0.35,0,0,0.0
5.97956940900076,292,756.77,97.3,6.5,-41.0,-0.78,-1.08,0.36,0.05,0.89,-0.2,-99.2,-241.4,-118.0,-1.79,6.67,-0.07,0.0,0.9135644476444998,1.3800000000000001,0.07451073347579629,0.35,0,0,0.0
5.990103158999773,293,756.78,97.3,6.6,-40.9,-0.27,-1.27,0.37,0.03,0.9,-0.2,-101.7,-248.6,-80.0,-1.72,6.82,0.12,0.0,0.9224424101265076,1.350074072041975,0.0643201155739127,0.35,0,0,0.0
5.999596123001538,294,756.79,97.3,6.6,-40.7,0.15,-1.45,0.31,0.03,0.9,-0.22,-104.2,-253.5,-59.0,-1.65,6.95,0.24,0.0,0.9269843580125827,1.4903355326905414,0.05858260433408091,0.35,0,0,0.0
6.010149726000236,295,756.8,97.3,6.6,-40.6,0.26,-1.6,0.21,0.04,0.92,-0.25,-106.8,-258.0,-44.0,-1.58,7.04,0.05,0.0,0.9542012366372201,1.6345335726133008,0.030738411195254667,0.35,0,0,0.0
6.019500914000673,296,756.81,97.4,6.6,-40.4,0.11,-1.69,0.03,0.04,0.93,-0.25,-109.3,-258.1,-1.0,-1.51,6.97,0.07,0.0,0.9638464608017193,1.6938417871808453,0.02067132329014032,0.35,0,0,0.0
6.03020813600051,297,756.82,97.4,6.5,-40.3,-0.21,-1.77,-0.12,0.06,0.93,-0.27,-111.9,-254.3,22.0,-1.44,6.88,0.02,0.0,0.9702576977277738,1.7864489917151287,0.013974884636804075,0.35,0,0,0.0
6.039442369999961,298,756.83,97.4,6.5,-40.1,-0.32,-1.75,-0.25,0.08,0.9,-0.3,-114.4,-251.8,27.0,-1.38,6.8,0.0,0.0,0.9520504188329524,1.7964965905895842,0.03153852026099302,0.35,0,0,0.0
6.050026304999847,299,756.84,97.4,6.4,-39.9,-0.06,-1.64,-0.38,0.08,0.87,-0.33,-116.9,-246.2,57.0,-1.31,6.59,0.09,0.0,0.9339164844888433,1.6845177351396452,0.04867900551299997,0.35,0,0,0.0
6.0595558370005165,300,756.85,97.4,6.4,-39.8,0.54,-1.51,-0.49,0.1,0.85,-0.33,-119.3,-236.7,84.0,-1.24,6.31,-0.08,0.0,0.9172785836374902,1.6768422704595682,0.06401056823706608,0.35,0,0,0.0
6.070202570001129,301,756.86,97.5,6.3,-39.6,1.16,-1.34,-0.61,0.12,0.86,-0.33,-121.6,-225.8,107.0,-1.18,5.98,-0.15,0.0,0.9289241088485107,1.874379897459424,0.05131774216552454,0.35,0,0,0.0
6.079541930001142,302,756.87,97.7,6.2,-39.5,1.71,-1.16,-0.68,0.13,0.9,-0.31,-123.8,-211.5,142.0,-1.13,5.53,-0.26,0.0,0.960728889958036,2.175339054032727,0.019122701834879297,0.35,0,0,0.0
6.090217824999854,303,756.88,97.9,6.1,-39.4,2.05,-0.94,-0.68,0.12,0.95,-0.31,-125.8,-193.2,178.0,-1.07,4.99,-0.23,0.0,1.0064790112068904,2.355525419094432,0.026094871025695632,0.35,0,0,0.0
6.099521406000349,304,756.89,98.1,6.1,-39.3,2.16,-0.86,-0.58,0.11,1.02,-0.28,-127.5,-171.2,209.0,-1.03,4.37,0.0,0.0,1.063437821407533,2.3961636004246456,0.08139260760181155,0.35,0,0,0.0
6.110073861000274,305,756.9,98.4,6.0,-39.3,1.88,-0.78,-0.36,0.11,1.08,-0.21,-129.1,-149.0,211.0,-0.99,3.79,0.01,0.0,1.1057124400132252,2.066978471102203,0.12119388168335365,0.35,0,0,0.0
6.119636794001053,306,756.91,98.5,6.0,-39.2,1.57,-1.03,-0.16,0.09,1.1,-0.11,-130.4,-128.8,193.0,-0.96,3.31,0.01,0.0,1.1091438139393828,1.8845158529447292,0.12213275049732097,0.35,0,0,0.0
6.1302068940003664,307,756.92,98.7,5.9,-39.0,1.77,-1.51,-0.32,0.08,1.08,0.0,-131.6,-112.1,175.0,-0.93,2.85,0.03,0.0,1.0829589096544707,2.3484888758518743,0.09402888928816078,0.35,0,0,0.0
6.139438298001551,308,756.93,98.9,5.8,-38.9,1.91,-2.13,-0.81,0.09,1.1,0.08,-132.6,-93.1,206.0,-0.9,2.22,0.08,0.0,1.1065712810298305,2.9733987287277834,0.11528843545025014,0.35,0,0,0.0
6.149915929001509,309,756.94,99.1,5.7,-38.6,1.59,-2.7,-1.44,0.12,1.13,0.1,-133.4,-66.6,254.0,-0.88,1.45,-0.02,0.0,1.1407453703609758,3.4484344273887535,0.1464732742857675,0.35,0,0,0.0
6.159817456000383,310,756.95,99.3,5.4,-38.4,0.96,-2.9,-2.11,0.17,1.16,0.09,-133.8,-38.7,273.0,-0.87,0.68,-0.21,0.0,1.1758401251870936,3.7126405697293134,0.17793666852964762,0.35,0,0,0.0
6.170033296000838,311,756.96,99.3,5.2,-38.2,-0.22,-2.59,-2.48,0.21,1.21,0.05,-134.0,-7.4,303.0,-0.87,-0.16,-0.15,0.0,1.2291053657030384,3.5926174302310567,0.22657787086468062,0.35,0,0,0.0
6.179966757999864,312,756.97,99.2,4.9,-38.0,-1.54,-2.02,-2.22,0.2,1.19,0.01,-133.9,14.5,193.0,-0.88,-0.51,0.06,0.0,1.206731121667126,3.3734848450823076,0.20011955429219275,0.35,0,0,0.0
6.187682183001016,313,756.98,99.1,4.7,-37.8,-1.64,-1.52,-1.79,0.16,1.07,0.02,-133.7,18.5,57.0,-0.88,-0.44,0.02,0.0,1.082081327812286,2.8642800142444176,0.07396036522860583,0.35,0,0,0.0
6.2003504109998175,314,756.99,99.0,4.5,-37.7,-0.46,-1.22,-1.47,0.1,0.99,0.03,-133.6,12.9,-18.0,-0.89,-0.28,0.06,0.0,0.9954898291795853,1.9649173010587493,0.012378510736013038,0.35,0,0,0.0
6.2116877759999625,315,757.0,99.0,4.5,-37.7,-0.46,-1.22,-1.47,0.1,0.99,0.03,-133.5,6.1,-92.0,-0.89,0.1,0.0,0.0,0.9954898291795853,1.9649173010587493,0.012130940521292821,0.35,0,0,0.0
6.21953428300003,316,757.01,99.2,4.2,-37.5,1.56,-1.42,-1.22,0.02,1.05,0.03,-133.6,-5.1,-62.0,-0.89,0.14,0.08,0.0,1.0506188652408637,2.4368832553078943,0.04213813362918595,0.35,0,0,0.0
6.230922296999779,317,757.02,99.3,4.1,-37.4,1.48,-1.6,-1.1,0.02,1.16,0.0,-133.6,-6.7,-39.0,-0.88,0.22,0.04,0.0,1.160172400981854,2.4413930449642884,0.1486578359827726,0.35,0,0,0.0
6.239521761001015,318,757.03,99.5,3.9,-37.2,0.87,-1.74,-0.81,0.03,1.25,-0.03,-133.7,-15.4,-92.0,-0.88,0.57,0.04,0.0,1.2507197927593534,2.1072731194603134,0.23442112320506658,0.35,0,0,0.0
6.250895492999916,319,757.04,99.5,3.8,-37.1,0.45,-1.81,-0.36,0.05,1.29,-0.09,-134.0,-27.2,-102.0,-0.87,0.86,0.18,0.0,1.2941020052530636,1.89952625672824,0.2722472689848012,0.35,0,0,0.0
6.25948763300039,320,757.05,99.5,3.8,-36.9,-0.23,-1.85,0.08,0.08,1.24,-0.13,-134.3,-40.6,-139.0,-0.86,1.31,0.09,0.0,1.2493598360760603,1.8659581988887106,0.22295499781164185,0.35,0,0,0.0
6.270893341999908,321,757.06,99.4,3.8,-36.7,-0.9,-1.76,0.51,0.1,1.19,-0.12,-134.9,-60.2,-187.0,-0.84,1.91,0.14,0.0,1.2002083152519816,2.041494550568284,0.17032740744781183,0.35,0,0,0.0
6.279403941000055,322,757.07,99.2,3.9,-36.5,-1.28,-1.67,0.84,0.1,1.12,-0.09,-135.6,-81.3,-198.0,-0.82,2.45,0.09,0.0,1.1280514172678477,2.2655904307707515,0.0962070992744044,0.35,0,0,0.0
6.290650775999893,323,757.08,99.1,3.9,-36.3,-1.15,-1.58,1.05,0.12,1.05,-0.09,-136.6,-103.4,-224.0,-0.79,3.12,0.32,0.0,1.0606601717798212,2.218422863207103,0.02823953671065027,0.35,0,0,0.0
6.303706485001385,324,757.09,99.0,4.1,-36.2,-0.96,-1.45,1.17,0.13,1.0,-0.09,-137.8,-129.7,-250.0,-0.75,3.84,0.15,0.0,1.0124228365658292,2.095948472649077,0.01959784253327479,0.35,0,0,0.0
6.3116764160004095,325,757.1,98.8,4.2,-36.0,-0.91,-1.29,1.25,0.14,0.96,-0.1,-139.3,-155.3,-254.0,-0.71,4.54,0.1,0.0,0.9752948272189287,2.0136285655502606,0.05559133484257173,0.35,0,0,0.0
6.319510544000877,326,757.11,98.7,4.4,-35.9,-1.02,-1.08,1.21,0.15,0.91,-0.09,-140.8,-177.6,-237.0,-0.67,5.08,0.06,0.0,0.9266606714434362,1.9159592897553956,0.102140980805703,0.35,0,0,0.0
6.330844207001064,327,757.12,98.6,4.5,-35.8,-0.87,-0.84,1.08,0.17,0.87,-0.1,-142.8,-198.7,-214.0,-0.61,5.63,0.15,0.0,0.8920762299265685,1.6213882940245992,0.13399091387611928,0.35,0,0,0.0
6.339529141001549,328,757.13,98.6,4.5,-35.7,-0.81,-0.58,0.99,0.19,0.84,-0.1,-145.1,-216.9,-176.0,-0.55,6.05,0.15,0.0,0.8670063436907482,1.4044927910103349,0.1558795841097007,0.35,0,0,0.0
6.350798343000861,329,757.14,98.5,4.6,-35.6,-0.56,-0.21,0.9,0.21,0.84,-0.11,-147.3,-226.5,-108.0,-0.48,6.24,0.01,0.0,0.8728115489611717,1.0806016842481785,0.14707289126249157,0.35,0,0,0.0
6.359400602999813,330,757.15,98.5,4.7,-35.6,-0.31,0.08,0.86,0.22,0.85,-0.11,-149.6,-231.9,-68.0,-0.42,6.37,0.0,0.0,0.8848728722251575,0.9176600677810929,0.13231133663853556,0.35,0,0,0.0
6.370725182001479,331,757.16,98.4,4.8,-35.6,-0.04,0.43,0.84,0.21,0.86,-0.12,-152.0,-234.8,-26.0,-0.36,6.36,0.0,0.0,0.8933644273195569,0.9445104552094699,0.12134338591325355,0.35,0,0,0.0
6.37941257500097,332,757.17,98.4,4.9,-35.7,0.12,0.77,0.77,0.21,0.87,-0.12,-154.3,-232.5,13.0,-0.29,6.26,-0.06,0.0,0.9029950165975447,1.0955363982999378,0.10947854070256047,0.35,0,0,0.0
6.3908241120007006,333,757.18,98.5,5.0,-35.8,0.04,0.97,0.7,0.2,0.9,-0.12,-156.6,-227.6,39.0,-0.23,6.11,0.18,0.0,0.9297311439335568,1.1968709203585823,0.08108756509921744,0.35,0,0,0.0
6.40354696400027,334,757.19,98.4,5.1,-35.9,-0.3,1.14,0.66,0.18,0.91,-0.13,-158.8,-222.4,47.0,-0.17,5.98,0.0,0.0,0.9366963221877195,1.3509996299037244,0.0726399391081537,0.35,0,0,0.0
6.411573830000634,335,757.2,98.4,5.2,-36.0,-0.62,1.25,0.58,0.16,0.91,-0.12,-161.0,-215.6,74.0,-0.11,5.73,-0.03,0.0,0.9317188417113824,1.5110592311355635,0.07606507119280104,0.35,0,0,0.0
6.4193987360013125,336,757.21,98.3,5.4,-36.1,-0.8,1.28,0.52,0.14,0.91,-0.11,-163.1,-202.2,124.0,-0.06,5.31,0.0,0.0,0.9272540105062905,1.5964961634780086,0.078919304349935,0.35,0,0,0.0
6.430680047000351,337,757.22,98.2,5.5,-36.2,-0.85,1.23,0.45,0.12,0.9,-0.1,-165.0,-185.0,163.0,-0.01,4.8,-0.24,0.0,0.913454979733539,1.5613775968675867,0.09086396842023281,0.35,0,0,0.0
6.439393492000818,338,757.23,98.1,5.5,-36.3,-0.84,1.16,0.36,0.11,0.88,-0.11,-166.7,-166.3,172.0,0.03,4.31,0.0,0.0,0.8936442245099556,1.4767531953579784,0.10846122917093992,0.35,0,0,0.0
6.450576670000373,339,757.24,98.0,5.6,-36.4,-0.79,1.09,0.27,0.1,0.87,-0.12,-168.1,-151.8,163.0,0.07,3.9,0.1,0.0,0.883911760301898,1.3729894391436521,0.11582981951141758,0.35,0,0,0.0
6.459385074000238,340,757.25,97.9,5.6,-36.5,-0.68,0.95,0.21,0.09,0.87,-0.12,-169.5,-136.3,162.0,0.1,3.47,0.05,0.0,0.8828363381737296,1.1870130580579137,0.1145671368067942,0.35,0,0,0.0
6.470690774000104,341,757.26,97.8,5.7,-36.6,-0.46,0.77,0.13,0.08,0.86,-0.12,-170.8,-119.7,167.0,0.13,3.0,-0.16,0.0,0.8720091742636655,0.9063112048297759,0.12288641470252115,0.35,0,0,0.0
6.479415143001461,342,757.27,97.8,5.7,-36.7,-0.26,0.55,0.05,0.07,0.87,-0.14,-171.9,-103.4,164.0,0.16,2.57,-0.27,0.0,0.8839683252243826,0.6104096984812741,0.10870871846696795,0.35,0,0,0.0
6.490778339000826,343,757.28,97.8,5.7,-36.7,-0.35,0.39,-0.09,0.07,0.87,-0.16,-172.8,-87.0,162.0,0.18,2.12,-0.04,0.0,0.8873556220591606,0.5316954015223377,0.10321499319954619,0.35,0,0,0.0
6.499540783001066,344,757.29,97.8,5.6,-36.8,-0.5,0.27,-0.3,0.07,0.84,-0.19,-173.6,-70.4,142.0,0.2,1.78,0.15,0.0,0.8640601830891179,0.6425729530566938,0.12398022352619709,0.35,0,0,0.0
6.510856382999918,345,757.3,97.8,5.6,-36.8,-0.6,0.24,-0.56,0.09,0.83,-0.22,-174.2,-59.9,114.0,0.22,1.5,0.02,0.0,0.8633655077659751,0.855102333057278,0.12218140087235307,0.35,0,0,0.0
6.519359629000974,346,757.31,97.7,5.5,-36.8,-0.78,0.28,-0.79,0.11,0.81,-0.23,-174.8,-50.0,105.0,0.23,1.24,0.0,0.0,0.8491760712596652,1.1449454135459909,0.1336434206310897,0.35,0,0,0.0
6.530908930000805,347,757.32,97.6,5.5,-36.9,-0.81,0.33,-1.03,0.14,0.79,-0.25,-175.2,-44.6,52.0,0.24,1.19,0.05,0.0,0.8403570669661796,1.3512586724976088,0.13961317642608373,0.35,0,0,0.0
6.539598461000423,348,757.33,97.5,5.3,-36.9,-0.73,0.51,-1.23,0.17,0.8,-0.29,-175.7,-43.6,20.0,0.25,1.19,0.0,0.0,0.8677557259966655,1.518519015356739,0.10997022704768589,0.35,0,0,0.0
6.550833139001043,349,757.34,97.5,5.2,-37.0,-0.49,0.94,-1.27,0.19,0.83,-0.33,-176.1,-45.2,-12.0,0.27,1.28,0.04,0.0,0.9131812525451889,1.654267209370965,0.06325380648917922,0.35,0,0,0.0
6.5596593620011845,350,757.35,97.4,5.1,-37.2,-0.3,1.45,-1.14,0.19,0.85,-0.34,-176.6,-48.6,-37.0,0.28,1.41,-0.07,0.0,0.934986630920464,1.8687161368169323,0.04061945955162605,0.35,0,0,0.0
6.570778349001557,351,757.36,97.4,5.0,-37.3,0.16,1.87,-0.96,0.18,0.86,-0.34,-177.1,-53.9,-34.0,0.3,1.48,0.0,0.0,0.9421252570651102,2.108103413023185,0.03281121673884024,0.35,0,0,0.0
6.579523152000547,352,757.37,97.4,5.0,-37.6,0.63,2.39,-0.73,0.15,0.91,-0.31,-177.7,-56.4,-35.0,0.31,1.58,0.0,0.0,0.9729850975220535,2.5771883904751705,0.001912348756259008,0.35,0,0,0.0
6.590964443999837,353,757.38,97.5,5.0,-37.8,0.94,2.73,-0.46,0.12,0.98,-0.26,-178.3,-60.4,-37.0,0.33,1.68,0.0,0.0,1.0209799214480175,2.923713392246237,0.045160825666310855,0.35,0,0,0.0
6.599530143001175,354,757.39,97.6,5.0,-38.1,1.02,2.89,-0.14,0.05,1.03,-0.2,-178.9,-63.4,-29.0,0.34,1.76,-0.08,0.0,1.0504284840006957,3.0679146011582525,0.07311720045460923,0.35,0,0,0.0
6.610844085000281,355,757.4,97.7,5.0,-38.4,0.83,2.78,0.05,0.0,1.02,-0.16,-179.5,-66.2,-25.0,0.36,1.81,0.08,0.0,1.0324727599312244,2.901689163228894,0.05405824685743521,0.35,0,0,0.0
6.6195289280003635,356,757.41,97.7,4.9,-38.6,0.48,2.4,0.13,-0.03,0.99,-0.12,-180.2,-66.3,2.0,0.38,1.76,0.0,0.0,0.9976973488989535,2.450979396078229,0.018897179108660955,0.35,0,0,0.0
6.630852792000951,357,757.42,97.7,5.0,-38.9,0.05,1.84,0.04,-0.04,0.92,-0.13,-180.8,-63.7,21.0,0.4,1.68,-0.08,0.0,0.93,1.8411137933327206,0.04782416639448661,0.35,0,0,0.0
6.639515075999952,358,757.43,97.7,5.0,-39.0,0.26,1.34,-0.16,-0.02,0.88,-0.21,-181.5,-60.4,28.0,0.41,1.6,0.07,0.0,0.9049309365912959,1.3743362034087585,0.07143536520712701,0.35,0,0,0.0
6.650934614001017,359,757.44,97.8,5.0,-39.1,0.8,1.2,-0.36,0.03,0.88,-0.34,-182.0,-55.7,43.0,0.43,1.44,0.06,0.0,0.9438749917229505,1.4864723340849637,0.031841483873962906,0.35,0,0,0.0
6.659539902000688,360,757.45,97.9,5.0,-39.3,1.24,1.56,-0.41,0.07,0.9,-0.43,-182.5,-48.2,74.0,0.44,1.19,-0.29,0.0,0.9998999949995,2.0345269720502603,0.023699849014534813,0.35,0,0,0.0
6.671044964001339,361,757.46,98.0,4.9,-39.5,1.74,2.16,-0.41,0.12,0.91,-0.47,-183.0,-41.0,63.0,0.45,1.04,-0.07,0.0,1.0312128781197412,2.803800991511345,0.0539124774920805,0.35,0,0,0.0
6.679564105001191,362,757.47,98.2,4.9,-39.7,2.65,2.81,-0.29,0.15,0.99,-0.44,-183.4,-35.8,48.0,0.46,0.93,0.0,0.0,1.0937092849564731,3.8733318990244046,0.11408070664223624,0.35,0,0,0.0
6.690949568001088,363,757.48,98.5,5.0,-40.0,3.56,3.21,-0.1,0.16,1.08,-0.39,-183.7,-32.2,41.0,0.47,0.83,-0.01,0.0,1.1593532679903913,4.794548988173966,0.17613019588263135,0.35,0,0,0.0
6.699555713001246,364,757.49,98.9,5.0,-40.4,4.29,3.47,0.0,0.15,1.16,-0.38,-184.0,-28.6,43.0,0.48,0.7,0.09,0.0,1.2298373876248843,5.517698795693726,0.24168202920678183,0.35,0,0,0.0
6.710919336001098,365,757.5,99.3,5.1,-40.7,4.25,3.56,-0.04,0.15,1.21,-0.36,-184.2,-24.3,28.0,0.49,0.65,-0.08,0.0,1.2712985487288184,5.544159088626516,0.2774803265045017,0.35,0,0,0.0
6.719399567000437,366,757.51,99.6,5.1,-41.1,3.07,3.49,-0.21,0.14,1.24,-0.32,-184.5,-23.6,27.0,0.49,0.58,-0.09,0.0,1.2882546332150333,4.65285933593527,0.28854768277090226,0.35,0,0,0.0
6.730861171001379,367,757.52,99.8,5.2,-41.4,0.85,3.49,-0.33,0.11,1.27,-0.27,-184.7,-19.1,45.0,0.5,0.44,0.07,0.0,1.3030349189488362,3.6071456859960622,0.2972614091346111,0.35,0,0,0.0
6.739411818000008,368,757.53,99.8,5.2,-41.8,-1.01,3.69,-0.21,0.06,1.24,-0.15,-184.8,-11.9,73.0,0.5,0.19,-0.18,0.0,1.2504799078753726,3.8314879616149127,0.23981227009992456,0.35,0,0,0.0
6.7508472179997625,369,757.54,99.6,5.2,-42.2,-1.55,3.94,0.14,-0.01,1.22,0.0,-184.9,0.0,103.0,0.5,-0.12,0.13,0.0,1.2200409829181968,4.2362365373052535,0.20518587823989387,0.35,0,0,0.0
6.75940531300148,370,757.55,99.4,5.3,-42.5,-0.96,3.9,0.68,-0.07,1.21,0.15,-184.8,5.1,41.0,0.5,-0.12,-0.08,0.0,1.2212698309546501,4.073573369905101,0.20228643175082017,0.35,0,0,0.0
6.770679209999798,371,757.56,99.3,5.5,-42.9,0.08,3.56,1.29,-0.11,1.19,0.27,-184.8,6.4,32.0,0.5,-0.22,0.07,0.0,1.2251938622112013,3.7873605584892496,0.2020862537472239,0.35,0,0,0.0
6.779394949000562,372,757.57,99.4,5.7,-43.2,0.76,2.89,1.79,-0.12,1.14,0.33,-184.7,12.4,62.0,0.49,-0.44,-0.08,0.0,1.1928537211242625,3.4833604464654533,0.16635119040707935,0.35,0,0,0.0
6.790874144000554,373,757.58,99.4,5.9,-43.4,0.96,2.0,2.0,-0.08,1.08,0.32,-184.5,23.2,109.0,0.48,-0.81,-0.07,0.0,1.1292475370794484,2.986904752415115,0.10069010623501984,0.35,0,0,0.0
6.7994263710006635,374,757.59,99.5,6.2,-43.5,0.82,1.02,2.01,-0.01,1.04,0.3,-184.1,38.9,153.0,0.47,-1.31,-0.22,0.0,1.0824509226750192,2.3985203772325967,0.05281562199397882,0.35,0,0,0.0
6.810859384000651,375,757.6,99.6,6.4,-43.5,0.49,-0.07,1.9,0.09,0.99,0.24,-183.6,59.4,193.0,0.46,-1.89,-0.08,0.0,1.0226436329435586,1.9634153916071861,0.00685183438273218,0.35,0,0,0.0
6.819515730001513,376,757.61,99.6,6.5,-43.4,0.58,-0.77,1.61,0.2,0.92,0.14,-182.9,81.9,219.0,0.43,-2.51,-0.23,0.0,0.9518403227432635,1.8765393680922338,0.07610204169136692,0.35,0,0,0.0
6.830844551001064,377,757.62,99.7,6.7,-43.3,1.22,-1.07,1.15,0.26,0.88,0.04,-181.9,106.3,233.0,0.4,-3.18,0.04,0.0,0.9184770002564028,1.9889193045470699,0.10727605689466302,0.35,0,0,0.0
6.839486337999915,378,757.63,99.9,6.7,-43.2,2.06,-1.17,0.63,0.28,0.93,-0.03,-180.6,129.5,227.0,0.37,-3.79,-0.08,0.0,0.9716995420396164,2.451407758819409,0.052972444809220365,0.35,0,0,0.0
6.851002301000335,379,757.64,100.2,6.7,-43.1,2.46,-1.02,0.16,0.28,1.01,-0.09,-179.2,151.3,219.0,0.33,-4.37,-0.12,0.0,1.0519505691808908,2.667883055907811,0.026733010685412895,0.35,0,0,0.0
6.859596395001063,380,757.65,100.4,6.7,-43.0,2.42,-0.73,-0.25,0.25,1.08,-0.13,-177.5,173.3,222.0,0.28,-4.99,0.0,0.0,1.1161541112229978,2.540039369773626,0.08911782167296955,0.35,0,0,0.0
6.870917030000783,381,757.66,100.6,6.7,-42.9,1.87,-0.38,-0.6,0.19,1.13,-0.15,-175.6,196.4,231.0,0.22,-5.63,0.06,0.0,1.1556383517346591,2.0003249735980404,0.12603002094093818,0.35,0,0,0.0
6.879579751001074,382,757.67,100.7,6.6,-42.9,0.9,-0.13,-0.83,0.12,1.14,-0.15,-173.5,220.7,241.0,0.16,-6.3,-0.25,0.0,1.1560709320798614,1.2311782974045635,0.12393334926041777,0.35,0,0,0.0
6.890970424999978,383,757.68,100.8,6.5,-43.0,0.3,0.01,-0.96,0.06,1.11,-0.14,-171.1,245.6,242.0,0.09,-6.95,-0.08,0.0,1.1204017136723776,1.005832988124768,0.08649884823587528,0.35,0,0,0.0
6.89952957100104,384,757.69,100.8,6.4,-43.0,0.22,0.07,-0.99,0.02,1.08,-0.12,-168.5,267.3,214.0,0.02,-7.49,-0.08,0.0,1.086830253535482,1.0165628362280414,0.05186884033700001,0.35,0,0,0.0
6.910881199000869,385,757.7,100.8,6.3,-43.0,0.28,0.05,-0.85,0.0,1.06,-0.07,-165.7,289.1,235.0,-0.05,-8.19,-0.28,0.0,1.0623088063270492,0.8963258336118624,0.02680044526599601,0.35,0,0,0.0
6.91952978000154,386,757.71,100.8,6.2,-43.0,0.24,-0.09,-0.62,-0.01,1.03,-0.03,-162.6,317.6,271.0,-0.14,-8.96,-0.17,0.0,1.0304853225543777,0.6708949247087803,0.004922577736541811,0.35,0,0,0.0
6.93078505000085,387,757.72,100.8,6.2,-43.0,0.26,-0.36,-0.34,0.0,1.0,-0.01,-159.2,341.6,229.0,-0.23,-9.52,-0.23,0.0,1.0000499987500624,0.5592852581643826,0.03465074351004005,0.35,0,0,0.0
6.939553994001471,388,757.73,100.9,6.1,-43.0,0.33,-0.68,-0.15,0.0,0.95,-0.01,-155.7,361.7,218.0,-0.33,-10.1,0.03,0.0,0.9500526301210896,0.7705841939723395,0.08295514989623265,0.35,0,0,0.0
6.950720802000433,389,757.74,100.9,6.1,-42.9,0.47,-1.09,-0.1,-0.01,0.91,0.0,-151.9,385.4,232.0,-0.43,-10.76,0.07,0.0,0.9100549433962765,1.1912178642045292,0.12049377988862486,0.35,0,0,0.0
6.959592163000707,390,757.75,101.0,6.1,-42.7,0.52,-1.61,-0.18,-0.01,0.89,0.0,-147.9,408.6,247.0,-0.55,-11.46,0.03,0.0,0.8900561780022652,1.7014405661086138,0.13768269437698344,0.35,0,0,0.0
6.970683946999998,391,757.76,101.0,6.0,-42.6,0.45,-2.13,-0.26,-0.01,0.89,-0.01,-143.6,438.5,265.0,-0.67,-12.21,-0.23,0.0,0.8901123524589466,2.192487172140352,0.1348739895218961,0.35,0,0,0.0
6.9796159610014,392,757.77,101.1,5.9,-42.3,0.22,-2.49,-0.34,0.0,0.89,-0.05,-139.1,458.5,222.0,-0.79,-12.74,0.27,0.0,0.891403387922662,2.522716789495008,0.13091129497701715,0.35,0,0,0.0
6.990770538001016,393,757.78,101.1,5.8,-42.1,0.05,-2.71,-0.39,0.01,0.88,-0.09,-134.3,483.4,226.0,-0.92,-13.35,-0.04,0.0,0.8846468221838588,2.738375430798341,0.13491450350150402,0.35,0,0,0.0
6.999563000001217,394,757.79,101.2,5.7,-41.8,0.07,-2.75,-0.42,0.03,0.88,-0.12,-129.4,496.2,172.0,-1.06,-13.76,-0.07,0.0,0.8886506625215558,2.7827684057427415,0.1282924499005309,0.35,0,0,0.0
7.010915200000454,395,757.8,101.2,5.6,-41.6,0.19,-2.66,-0.44,0.06,0.89,-0.15,-124.3,520.1,200.0,-1.2,-14.32,-0.13,0.0,0.9045440840556087,2.7028318482658147,0.1101510477991483,0.35,0,0,0.0
7.019504748001054,396,757.81,101.2,5.5,-41.3,0.11,-2.52,-0.4,0.09,0.91,-0.16,-119.0,528.1,99.0,-1.35,-14.42,-0.14,0.0,0.9283318372220141,2.553918557824427,0.08463602874008813,0.35,0,0,0.0
7.030937986000936,397,757.82,101.2,5.4,-41.1,-0.14,-2.34,-0.34,0.1,0.92,-0.16,-113.7,533.6,63.0,-1.49,-14.54,0.16,0.0,0.9391485505499116,2.3687127305775175,0.07234292910394668,0.35,0,0,0.0
7.039553519000037,398,757.83,101.2,5.4,-40.9,-0.42,-2.17,-0.28,0.11,0.92,-0.16,-108.3,542.6,96.0,-1.64,-14.86,0.08,0.0,0.9402659198333203,2.227936264797537,0.06980104862412717,0.35,0,0,0.0
7.050974961000975,399,757.84,101.1,5.3,-40.7,-0.68,-1.96,-0.25,0.11,0.92,-0.15,-102.8,542.6,-2.0,-1.79,-14.7,0.03,0.0,0.9386160024205852,2.089617189822097,0.07002194671612516,0.35,0,0,0.0
7.059418578000987,400,757.85,101.1,5.3,-40.5,-0.88,-1.79,-0.2,0.09,0.93,-0.15,-97.4,542.6,1.0,-1.93,-14.7,-0.05,0.0,0.9463086177352503,2.0046196646745735,0.0610827447734309,0.35,0,0,0.0
7.0709142180003255,401,757.86,101.0,5.2,-40.3,-0.89,-1.63,-0.11,0.08,0.94,-0.15,-92.1,533.6,-43.0,-2.08,-14.51,0.09,0.0,0.9552486587271399,1.8604031821086524,0.051099849705910416,0.35,0,0,0.0
7.079433935999987,402,757.87,100.9,5.2,-40.2,-0.77,-1.53,0.01,0.06,0.95,-0.14,-86.7,536.0,-33.0,-2.23,-14.43,0.19,0.0,0.9621330469326994,1.71286310019219,0.0433311522703439,0.35,0,0,0.0
7.090800718000537,403,757.88,100.8,5.2,-40.0,-0.61,-1.46,0.13,0.05,0.95,-0.14,-81.4,524.1,-78.0,-2.37,-14.16,0.16,0.0,0.9615612304996494,1.5876397576276553,0.04302490932932612,0.35,0,0,0.0
7.099544386001071,404,757.89,100.7,5.1,-39.9,-0.47,-1.4,0.24,0.04,0.94,-0.14,-76.2,518.4,-60.0,-2.51,-14.03,-0.04,0.0,0.9512097560475291,1.4961617559608986,0.05230885610581748,0.35,0,0,0.0
7.110970674000782,405,757.9,100.7,5.1,-39.7,-0.43,-1.39,0.35,0.03,0.93,-0.15,-71.0,518.4,-15.0,-2.65,-14.07,-0.04,0.0,0.9424966843443006,1.4964959071110082,0.0598014892528651,0.35,0,0,0.0
7.119559319000473,406,757.91,100.6,5.1,-39.6,-0.36,-1.41,0.42,0.03,0.92,-0.15,-65.9,507.4,-107.0,-2.79,-13.62,0.12,0.0,0.9326306878931231,1.5146286673637204,0.06827413598996179,0.35,0,0,0.0
7.130845125000633,407,757.92,100.6,5.1,-39.4,-0.12,-1.51,0.42,0.05,0.91,-0.15,-60.9,500.6,-70.0,-2.92,-13.48,0.17,0.0,0.9236341266973628,1.571909666615738,0.07572528324200767,0.35,0,0,0.0
7.139572482001313,408,757.93,100.6,5.1,-39.3,0.25,-1.66,0.4,0.05,0.94,-0.17,-56.0,478.4,-220.0,-3.05,-12.63,0.05,0.0,0.9565563234854495,1.7257172421923588,0.041947024724842574,0.35,0,0,0.0
7.150904056999934,409,757.94,100.7,5.1,-39.1,-0.2,-1.84,0.5,0.06,0.99,-0.2,-51.5,446.1,-342.0,-3.17,-11.48,0.37,0.0,1.0117806086301517,1.9171854370404549,0.013011715211462493,0.35,0,0,0.0
7.159507250000388,410,757.95,100.7,5.1,-38.9,-0.77,-1.87,0.66,0.06,1.0,-0.24,-47.5,367.0,-799.0,-3.27,-8.54,0.54,0.0,1.030145620774073,2.127298756639509,0.030749192808276038,0.35,0,0,0.0
7.170906612000181,411,757.96,100.6,5.1,-38.7,-1.91,-1.73,0.92,0.0,1.05,-0.29,-44.7,238.2,-1175.0,-3.33,-4.75,0.39,0.0,1.0893117092916977,2.736311385789271,0.08811697569938293,0.35,0,0,0.0
7.179576608001298,412,757.97,100.3,5.2,-38.5,-2.77,-1.86,1.13,-0.02,1.06,-0.25,-43.3,97.3,-1323.0,-3.35,-0.95,0.53,0.0,1.0892658077806354,3.5226978297889815,0.08630965270455415,0.35,0,0,0.0
7.19076533200132,413,757.98,100.1,5.3,-38.3,-2.76,-2.39,1.11,-0.01,1.07,-0.25,-43.2,-21.9,-1065.0,-3.34,1.48,-0.03,0.0,1.0988630487917956,3.81599266246674,0.0939887558414001,0.35,0,0,0.0
7.199501019000309,414,757.99,99.8,5.3,-38.0,-3.84,-2.81,1.16,0.01,1.15,-0.32,-43.9,-83.8,-723.0,-3.31,2.92,0.19,0.0,1.1937336386313322,4.897683125723836,0.18508215876731793,0.35,0,0,0.0
7.210965764999855,415,758.0,99.8,5.3,-38.0,-3.84,-2.81,1.16,0.01,1.15,-0.32,-44.6,-116.8,-708.0,-3.27,4.33,0.26,0.0,1.1937336386313322,4.897683125723836,0.18138051559197166,0.35,0,0,0.0
7.219480634001229,416,758.01,98.7,5.5,-37.5,-7.19,-1.73,1.86,0.13,1.0,-0.33,-46.8,-190.6,-678.0,-3.22,5.9,0.34,0.0,1.061037228376083,7.6255229328879475,0.047710423229987864,0.35,0,0,0.0
7.230860888001189,417,758.02,98.0,5.7,-37.3,-6.38,-0.9,1.89,0.16,0.81,-0.25,-49.1,-251.1,-645.0,-3.15,7.61,0.02,0.0,0.862670273047588,6.714648166508801,0.14764340145653698,0.35,0,0,0.0
7.239565589999984,418,758.03,97.5,5.9,-37.2,-4.17,-0.55,1.78,0.19,0.71,-0.18,-52.1,-313.6,-614.0,-3.06,9.23,0.08,0.0,0.7567033764957045,4.567253003721165,0.24853809204825206,0.35,0,0,0.0
7.25076597000043,419,758.04,97.2,6.0,-37.1,-1.98,-0.44,1.63,0.22,0.71,-0.17,-55.6,-364.1,-510.0,-2.96,10.43,0.12,0.0,0.76249590162833,2.6020953095534374,0.23789065557731404,0.35,0,0,0.0
7.259517574000711,420,758.05,97.1,6.2,-37.1,-0.43,-0.49,1.4,0.23,0.76,-0.17,-59.5,-411.8,-500.0,-2.85,11.79,0.11,0.0,0.8120344820264717,1.54434452114805,0.18458503367558898,0.35,0,0,0.0
7.270900614001221,421,758.06,97.1,6.3,-37.0,0.05,-0.42,1.05,0.24,0.83,-0.22,-63.9,-451.2,-376.0,-2.72,12.6,0.08,0.0,0.8915716460273958,1.1319893992436503,0.10294691228117159,0.35,0,0,0.0
7.2795829250007955,422,758.07,97.1,6.4,-37.0,-0.03,-0.03,0.64,0.21,0.88,-0.26,-68.6,-479.5,-328.0,-2.59,13.42,0.04,0.0,0.9413288479590965,0.6414047084329831,0.05212591614248141,0.35,0,0,0.0
7.2907980300005875,423,758.08,97.1,6.4,-37.0,-0.14,0.3,0.35,0.17,0.92,-0.27,-73.6,-500.9,-186.0,-2.45,13.68,-0.02,0.0,0.973755616158387,0.48176757881783616,0.019305164984327106,0.35,0,0,0.0
7.299459239000498,424,758.09,97.1,6.5,-37.0,-0.07,0.51,0.2,0.13,0.93,-0.25,-78.7,-508.4,-119.0,-2.32,13.91,-0.42,0.0,0.971750996912275,0.552268050859363,0.02088358854583039,0.35,0,0,0.0
7.310875402001329,425,758.1,97.1,6.5,-37.1,0.2,0.54,0.13,0.09,0.93,-0.24,-83.8,-513.3,-68.0,-2.18,14.03,0.0,0.0,0.9646761114488117,0.5903388857258177,0.02739930452910777,0.35,0,0,0.0
7.319341264001196,426,758.11,97.1,6.5,-37.1,0.61,0.51,0.03,0.04,0.93,-0.23,-88.9,-517.1,-4.0,-2.04,13.9,0.12,0.0,0.9588534820294496,0.7956758133813042,0.03255749526950047,0.35,0,0,0.0
7.3308959910009435,427,758.12,97.2,6.5,-37.2,0.83,0.39,-0.09,0.0,0.94,-0.22,-94.0,-499.6,113.0,-1.9,13.43,0.0,0.0,0.9654014708917735,0.9214662229295222,0.02548931627903306,0.35,0,0,0.0
7.339538505000746,428,758.13,97.3,6.5,-37.2,0.49,0.2,-0.16,-0.02,0.96,-0.24,-98.9,-486.2,152.0,-1.77,12.93,0.04,0.0,0.9897474425326898,0.5529014378711634,0.001120477745354509,0.35,0,0,0.0
7.350915109000198,429,758.14,97.3,6.5,-37.2,-0.06,-0.04,-0.14,-0.03,0.94,-0.28,-103.6,-460.2,225.0,-1.64,12.22,-0.15,0.0,0.9812746812182611,0.15748015748023622,0.009401374278587449,0.35,0,0,0.0
7.359538161001183,430,758.15,97.3,6.5,-37.2,-0.19,-0.3,-0.18,-0.02,0.88,-0.28,-108.0,-437.5,237.0,-1.53,11.54,-0.08,0.0,0.9236882591004392,0.39812058474788764,0.06564804046848116,0.35,0,0,0.0
7.370876920000228,431,758.16,97.3,6.4,-37.2,0.84,-0.65,-0.47,0.01,0.82,-0.3,-112.2,-405.4,299.0,-1.42,10.63,-0.11,0.0,0.8732124598286489,1.1614645926587688,0.11380136294546594,0.35,0,0,0.0
7.379553364000458,432,758.17,97.5,6.3,-37.1,2.17,-0.91,-0.93,0.05,0.86,-0.33,-116.1,-376.1,291.0,-1.32,9.85,-0.23,0.0,0.9224966124599049,2.5301976207403247,0.06322686610792583,0.35,0,0,0.0
7.390638362001482,433,758.18,97.7,6.2,-37.0,2.52,-1.11,-1.24,0.07,0.95,-0.33,-119.6,-344.4,313.0,-1.22,8.96,-0.25,0.0,1.0081170566953026,3.019950330717378,0.02194570656492245,0.35,0,0,0.0
7.3995377810006175,434,758.19,97.9,6.1,-36.9,1.81,-1.15,-1.29,0.12,1.06,-0.33,-122.8,-312.6,312.0,-1.14,8.12,-0.04,0.0,1.1166467659918244,2.5025387109893025,0.12786590754421545,0.35,0,0,0.0
7.41082963900044,435,758.2,98.1,5.9,-36.8,0.65,-0.87,-1.1,0.18,1.13,-0.31,-125.7,-277.3,364.0,-1.07,7.03,-0.01,0.0,1.1854956769216831,1.5457684173251827,0.19278052210459262,0.35,0,0,0.0
7.419440936000683,436,758.21,98.1,5.8,-36.8,-0.31,-0.46,-0.88,0.22,1.11,-0.24,-128.2,-234.9,409.0,-1.0,5.84,-0.22,0.0,1.156762724157379,1.040240356840668,0.1607666179534828,0.35,0,0,0.0
7.430922495001141,437,758.22,98.1,5.8,-36.7,-0.26,-0.2,-0.98,0.22,1.04,-0.14,-130.2,-192.2,410.0,-0.95,4.74,-0.12,0.0,1.072194012294417,1.033440854621105,0.0746739479687103,0.35,0,0,0.0
7.439561880000838,438,758.23,98.1,5.7,-36.7,0.2,-0.19,-1.5,0.2,1.04,-0.03,-131.9,-151.9,411.0,-0.91,3.6,-0.16,0.0,1.0594810050208545,1.5251557297535225,0.06072172188124492,0.35,0,0,0.0
7.4508294420011225,439,758.24,98.1,5.5,-36.8,0.41,-0.25,-2.03,0.2,1.1,0.02,-133.1,-109.2,426.0,-0.89,2.42,-0.25,0.0,1.118212859879549,2.086024927943096,0.11706450520514067,0.35,0,0,0.0
7.459460557000057,440,758.25,98.1,5.2,-36.8,0.25,-0.23,-2.36,0.18,1.15,0.05,-133.9,-66.2,431.0,-0.87,1.25,-0.34,0.0,1.1650751048752177,2.3843238035132726,0.16064821519679318,0.35,0,0,0.0
7.471013350999783,441,758.26,98.1,5.0,-36.8,-0.42,-0.14,-2.43,0.12,1.18,0.08,-134.3,-23.4,424.0,-0.87,0.12,-0.09,0.0,1.1887808881370863,2.47,0.18066691848948846,0.35,0,0,0.0
7.479452008001317,442,758.27,98.0,4.8,-36.8,-1.17,-0.21,-2.16,0.05,1.13,0.13,-134.2,14.6,350.0,-0.87,-0.7,-0.24,0.0,1.1385517116055817,2.465481697356523,0.12782898711882407,0.35,0,0,0.0
7.490969633001441,443,758.28,97.9,4.6,-36.8,-1.11,-0.55,-1.79,0.01,1.06,0.17,-133.9,36.3,250.0,-0.88,-1.22,-0.06,0.0,1.0735921013122256,2.1768555303464674,0.06161198928895861,0.35,0,0,0.0
7.499449996999829,444,758.29,97.8,4.4,-36.7,-0.52,-0.9,-1.46,-0.01,0.99,0.14,-133.5,50.9,167.0,-0.9,-1.53,0.19,0.0,0.9998999949994999,1.7922053453775881,0.011838514683291668,0.35,0,0,0.0
7.510930123000435,445,758.3,97.8,4.3,-36.6,0.33,-1.33,-1.23,-0.04,0.95,0.11,-132.9,59.9,101.0,-0.91,-1.7,0.0,0.0,0.957183368012629,1.8413853480464104,0.05346403883675921,0.35,0,0,0.0
7.5194558940002025,446,758.31,97.9,4.1,-36.5,1.19,-1.68,-1.17,-0.05,0.97,0.07,-132.2,63.5,42.0,-0.93,-1.7,-0.1,0.0,0.9738069623903908,2.3679949324270098,0.03610363556981755,0.35,0,0,0.0
7.5310961909999605,447,758.32,98.1,4.0,-36.3,1.6,-2.08,-1.23,-0.04,1.08,0.04,-131.6,57.5,-51.0,-0.94,-1.41,0.27,0.0,1.081480466767662,2.898154585249034,0.0701384714313047,0.35,0,0,0.0
7.539453660001527,448,758.33,98.3,3.8,-36.1,1.46,-2.44,-1.16,0.0,1.21,0.0,-131.2,43.2,-127.0,-0.96,-0.93,0.16,0.0,1.21,3.0709607617161114,0.19468484457036972,0.35,0,0,0.0
7.550959078000233,449,758.34,98.4,3.7,-35.9,0.6,-2.72,-0.86,0.05,1.31,-0.06,-130.9,22.6,-191.0,-0.96,-0.32,0.02,0.0,1.3123261789661897,2.9151329300736872,0.2910708030658282,0.35,0,0,0.0
7.559450414000821,450,758.35,98.3,3.6,-35.6,-0.85,-2.85,-0.39,0.09,1.33,-0.1,-130.8,-0.5,-195.0,-0.96,0.19,0.08,0.0,1.3367871932360813,2.9995166277252077,0.3092211809890053,0.35,0,0,0.0
7.570838823001395,451,758.36,98.2,3.5,-35.3,-2.08,-2.9,0.07,0.11,1.28,-0.12,-130.9,-10.7,-100.0,-0.96,0.32,-0.07,0.0,1.2903100402616419,3.5694957627093493,0.25748914745427465,0.35,0,0,0.0
7.579447795000306,452,758.37,97.9,3.5,-35.0,-2.87,-2.95,0.38,0.1,1.17,-0.06,-131.0,-13.8,-68.0,-0.95,0.47,0.0,0.0,1.1757976016304845,4.133255375608916,0.14011717464665496,0.35,0,0,0.0
7.590959602001021,453,758.38,97.6,3.5,-34.7,-2.83,-3.05,0.51,0.1,1.08,-0.06,-131.2,-23.1,-93.0,-0.95,0.76,0.16,0.0,1.0862780491200217,4.191837306003181,0.049585669693468226,0.35,0,0,0.0
7.599444546000086,454,758.39,97.3,3.6,-34.4,-2.49,-2.93,0.55,0.1,1.01,-0.06,-131.5,-36.0,-135.0,-0.94,1.19,0.28,0.0,1.0167103815738285,3.884263121880391,0.01958235789567042,0.35,0,0,0.0
7.610831875999793,455,758.4,97.0,3.6,-34.1,-2.27,-2.75,0.6,0.1,0.97,-0.07,-132.0,-55.4,-182.0,-0.92,1.77,0.0,0.0,0.9776502442080194,3.615992256628877,0.05746964535624988,0.35,0,0,0.0
7.623529208000036,456,758.41,96.8,3.7,-33.9,-2.07,-2.53,0.69,0.12,0.94,-0.08,-132.7,-76.4,-203.0,-0.9,2.35,0.22,0.0,0.9509994742374992,3.3409429806568083,0.08243800702023463,0.35,0,0,0.0
7.631561479000084,457,758.42,96.6,3.8,-33.6,-1.78,-2.19,0.83,0.14,0.91,-0.1,-133.7,-101.3,-243.0,-0.87,3.06,-0.01,0.0,0.9261209424259879,2.941666194523097,0.10517020805511101,0.35,0,0,0.0
7.6393321200012,458,758.43,96.5,3.9,-33.4,-1.54,-1.9,1.03,0.16,0.89,-0.09,-134.9,-127.3,-251.0,-0.83,3.77,-0.05,0.0,0.9087353850269065,2.65377090194312,0.12010465014510852,0.35,0,0,0.0
7.651242498001011,459,758.44,96.3,4.0,-33.2,-1.14,-1.61,1.24,0.19,0.88,-0.09,-136.3,-152.2,-249.0,-0.79,4.44,-0.06,0.0,0.9047651629014017,2.330085835328819,0.12159337482520094,0.35,0,0,0.0
7.659472095001547,460,758.45,96.3,4.1,-33.1,-0.6,-1.32,1.36,0.21,0.87,-0.09,-138.0,-176.0,-231.0,-0.74,5.04,0.0,0.0,0.899499861033897,1.9879637823662686,0.12432150315885149,0.35,0,0,0.0
7.670841737000956,461,758.46,96.2,4.3,-32.9,-0.27,-0.97,1.38,0.24,0.87,-0.11,-139.9,-195.9,-207.0,-0.69,5.56,-0.02,0.0,0.9091754506144565,1.7082739827088627,0.11235299530672616,0.35,0,0,0.0
7.679512140000952,462,758.47,96.2,4.4,-32.9,-0.24,-0.52,1.31,0.27,0.85,-0.13,-142.0,-213.1,-174.0,-0.63,5.97,-0.01,0.0,0.9012768719988326,1.4297202523570827,0.11784654244390314,0.35,0,0,0.0
7.690975025001535,463,758.48,96.2,4.5,-32.8,-0.21,-0.02,1.2,0.27,0.85,-0.15,-144.2,-225.4,-125.0,-0.57,6.23,0.04,0.0,0.9043782394551518,1.218400590938793,0.11245027148783215,0.35,0,0,0.0
7.69955217200004,464,758.49,96.2,4.6,-32.8,-0.02,0.44,1.07,0.27,0.84,-0.13,-146.5,-231.3,-59.0,-0.51,6.28,0.11,0.0,0.8918520056601319,1.1571084650973738,0.12247697517719514,0.35,0,0,0.0
7.710971006999898,465,758.5,96.2,4.7,-32.9,0.19,0.82,0.93,0.25,0.84,-0.14,-148.8,-232.1,-25.0,-0.44,6.3,-0.04,0.0,0.8875246475450695,1.2543524225671188,0.12426824662641245,0.35,0,0,0.0
7.719556273999842,466,758.51,96.2,4.8,-33.0,0.39,1.14,0.8,0.22,0.85,-0.14,-151.1,-232.2,-3.0,-0.38,6.29,0.11,0.0,0.8891006692158092,1.4462710672622887,0.12023838045655943,0.35,0,0,0.0
7.730796269001075,467,758.52,96.3,4.9,-33.1,0.52,1.35,0.63,0.2,0.86,-0.13,-153.4,-228.3,38.0,-0.32,6.11,0.03,0.0,0.892468486838611,1.577910010108308,0.11453315157708244,0.35,0,0,0.0
7.739409564001107,468,758.53,96.3,5.0,-33.2,0.51,1.48,0.47,0.18,0.87,-0.14,-155.7,-220.8,62.0,-0.26,5.91,-0.1,0.0,0.8993886812718959,1.634441800738099,0.10546069800092162,0.35,0,0,0.0
7.750812795000456,469,758.54,96.3,5.1,-33.4,0.32,1.53,0.34,0.15,0.9,-0.14,-157.8,-212.8,74.0,-0.2,5.69,0.07,0.0,0.9230926280715278,1.599656213065795,0.08012161617726388,0.35,0,0,0.0
7.759543697000481,470,758.55,96.4,5.2,-33.5,0.04,1.54,0.24,0.11,0.9,-0.15,-159.9,-204.0,87.0,-0.15,5.42,0.14,0.0,0.9190212184710427,1.5591023058157536,0.0825091652621941,0.35,0,0,0.0
7.770876104001218,471,758.56,96.4,5.2,-33.7,-0.21,1.44,0.18,0.09,0.9,-0.16,-161.9,-193.9,105.0,-0.09,5.11,0.01,0.0,0.918531436587774,1.4663219291819922,0.08133896820255349,0.35,0,0,0.0
7.783703722001519,472,758.57,96.4,5.2,-33.8,-0.41,1.39,0.14,0.07,0.89,-0.2,-163.7,-180.8,126.0,-0.04,4.73,-0.19,0.0,0.9148770409186144,1.4559532959542347,0.08329349659427887,0.35,0,0,0.0
7.791663590000098,473,758.58,96.4,5.3,-33.9,-0.43,1.38,0.17,0.07,0.89,-0.21,-165.4,-166.2,140.0,0.0,4.34,-0.14,0.0,0.9171150418568,1.455403724057349,0.07943438574297146,0.35,0,0,0.0
7.799561113000891,474,758.59,96.4,5.3,-34.1,-0.38,1.3,0.16,0.07,0.86,-0.21,-167.0,-151.6,141.0,0.03,3.95,-0.08,0.0,0.888031530971733,1.3638181696985856,0.10634753869547764,0.35,0,0,0.0
7.810954605000006,475,758.6,96.4,5.3,-34.2,-0.3,1.23,-0.03,0.08,0.8,-0.22,-168.4,-140.0,115.0,0.07,3.69,-0.08,0.0,0.8335466393669884,1.266412255152326,0.15761578169421786,0.35,0,0,0.0
7.819605686001523,476,758.61,96.3,5.3,-34.3,-0.22,1.17,-0.31,0.1,0.79,-0.25,-169.8,-129.7,111.0,0.1,3.38,0.0,0.0,0.8346256645946134,1.2302032352420473,0.153406021337261,0.35,0,0,0.0
7.8308829570014495,477,758.62,96.3,5.3,-34.4,-0.27,1.2,-0.58,0.13,0.79,-0.29,-171.0,-117.6,114.0,0.14,3.07,0.07,0.0,0.8515280382935139,1.35988970140964,0.13377357468559337,0.35,0,0,0.0
7.839605556000606,478,758.63,96.3,5.2,-34.6,-0.16,1.32,-0.79,0.16,0.8,-0.32,-172.1,-107.4,107.0,0.16,2.79,-0.08,0.0,0.8763560920082658,1.546641522784126,0.10676661055142456,0.35,0,0,0.0
7.850883410999813,479,758.64,96.3,5.1,-34.7,0.0,1.52,-0.96,0.18,0.82,-0.34,-173.1,-96.3,108.0,0.19,2.49,-0.16,0.0,0.9057593499379402,1.7977764043395386,0.07581608556931518,0.35,0,0,0.0
7.859530243000336,480,758.65,96.2,5.1,-34.9,0.05,1.88,-1.1,0.19,0.83,-0.35,-174.0,-87.7,91.0,0.21,2.27,-0.01,0.0,0.9205976319760985,2.178738166921395,0.05975824746053371,0.35,0,0,0.0
7.870969169000091,481,758.66,96.2,5.0,-35.1,0.09,2.33,-1.16,0.19,0.85,-0.34,-174.8,-78.8,88.0,0.23,2.04,0.08,0.0,0.934986630920464,2.60434252739535,0.044461863545844804,0.35,0,0,0.0
7.8795968770009495,482,758.67,96.2,4.9,-35.4,0.57,2.79,-1.03,0.17,0.93,-0.28,-175.5,-72.9,62.0,0.25,1.92,-0.03,0.0,0.9860020283954796,3.028184274445662,0.0064224632505873736,0.35,0,0,0.0
7.8908536180006195,483,758.68,96.3,4.8,-35.7,1.21,3.01,-0.71,0.14,0.98,-0.21,-176.2,-68.3,45.0,0.27,1.82,0.15,0.0,1.0119782606360672,3.320888435343771,0.031750721581351504,0.35,0,0,0.0
7.8995745749998605,484,758.69,96.5,4.8,-36.0,1.73,3.06,-0.46,0.09,0.99,-0.2,-176.9,-66.2,31.0,0.29,1.76,0.04,0.0,1.0140019723846694,3.545151618760473,0.03309894466335461,0.35,0,0,0.0
7.910958626000138,485,758.7,96.7,4.8,-36.3,1.63,2.98,-0.38,0.05,0.97,-0.2,-177.5,-61.2,48.0,0.31,1.6,0.0,0.0,0.9916652661054535,3.4178502015155665,0.010546993616455946,0.35,0,0,0.0
7.919471105000412,486,758.71,96.8,4.8,-36.6,1.08,2.81,-0.38,0.03,0.99,-0.24,-178.1,-55.0,55.0,0.32,1.42,-0.03,0.0,1.0191172650877818,3.034287395748794,0.03723901274680852,0.35,0,0,0.0
7.930840459001047,487,758.72,96.9,4.8,-36.9,0.85,2.73,-0.26,0.0,1.01,-0.26,-178.6,-48.4,66.0,0.33,1.22,0.34,0.0,1.0429285689825551,2.871062521088665,0.05982931030875027,0.35,0,0,0.0
7.939466600000742,488,758.73,97.0,4.8,-37.1,1.05,2.61,-0.2,0.0,0.96,-0.25,-179.0,-41.5,67.0,0.35,1.04,-0.22,0.0,0.9920181449953422,2.8203900439478224,0.008740508595106666,0.35,0,0,0.0
7.951022750001357,489,758.74,97.1,4.8,-37.4,1.87,2.63,-0.37,0.04,0.95,-0.24,-179.4,-34.5,77.0,0.35,0.81,-0.09,0.0,0.9806630410084801,3.2481841080825453,0.0025623034839203918,0.35,0,0,0.0
7.959458844999972,490,758.75,97.3,4.8,-37.7,2.54,2.77,-0.49,0.06,1.05,-0.18,-179.7,-24.4,87.0,0.36,0.56,-0.07,0.0,1.0670051546267245,3.7900659624866693,0.08210421393163747,0.35,0,0,0.0
7.971007109001221,491,758.76,97.6,4.8,-38.0,3.09,3.02,-0.42,0.07,1.17,-0.17,-179.9,-13.4,120.0,0.36,0.18,0.05,0.0,1.1843563652887588,4.341071296350706,0.19546631610179832,0.35,0,0,0.0
7.979461824999817,492,758.77,97.9,4.8,-38.3,3.42,3.35,-0.1,0.05,1.26,-0.15,-179.9,0.5,115.0,0.36,-0.11,-0.12,0.0,1.2698818842711317,4.788413098303028,0.2753719983824878,0.35,0,0,0.0
7.990841798000474,493,758.78,98.2,4.8,-38.6,3.31,3.32,0.38,0.04,1.29,-0.11,-179.8,5.2,51.0,0.36,-0.15,0.03,0.0,1.2952991932368367,4.70349869777807,0.294773521201229,0.35,0,0,0.0
7.999451386000146,494,758.79,98.4,4.9,-38.9,2.87,2.96,0.88,0.04,1.25,-0.06,-179.8,4.0,1.0,0.36,-0.07,-0.01,0.0,1.252078272313676,4.215791740586814,0.24652154827250694,0.35,0,0,0.0
8.011001595999915,495,758.8,98.7,5.0,-39.2,2.21,2.47,1.24,0.03,1.17,0.0,-179.8,2.2,0.0,0.36,-0.08,0.02,0.0,1.1703845521878695,3.53872858524075,0.16153127158376646,0.35,0,0,0.0
8.019462915000986,496,758.81,98.8,5.2,-39.4,1.63,2.08,1.41,0.01,1.09,0.03,-179.7,4.1,16.0,0.36,-0.14,-0.01,0.0,1.0904586191139947,2.9952295404526175,0.07997323173969373,0.35,0,0,0.0
8.030913401000362,497,758.82,99.0,5.4,-39.6,1.16,2.01,1.44,-0.01,1.05,0.04,-179.7,8.1,44.0,0.36,-0.31,-0.1,0.0,1.0508092119885513,2.7311719096387908,0.03951734812196528,0.35,0,0,0.0
8.039464332001444,498,758.83,99.0,5.6,-39.8,0.88,2.16,1.51,-0.03,1.08,0.11,-179.5,19.4,107.0,0.35,-0.71,-0.12,0.0,1.0860018416190647,2.778506793225455,0.0732157781974292,0.35,0,0,0.0
8.050799497999833,499,758.84,99.1,5.7,-40.0,0.89,2.29,1.7,-0.04,1.1,0.18,-179.2,35.6,146.0,0.34,-1.18,-0.32,0.0,1.115347479487895,2.98767468108561,0.10051018774493437,0.35,0,0,0.0
8.059350925001127,500,758.85,99.2,6.0,-40.1,1.32,2.09,2.0,-0.02,1.13,0.23,-178.7,53.5,176.0,0.33,-1.7,-0.17,0.0,1.153342967204465,3.1797012438277905,0.1357355619522742,0.35,0,0,0.0
8.071057436000046,501,758.86,99.3,6.2,-40.3,1.67,1.54,2.4,0.01,1.16,0.21,-178.1,74.8,203.0,0.3,-2.3,-0.37,0.0,1.1788977903109328,3.304617980947268,0.15806457735756707,0.35,0,0,0.0
8.079486475000522,502,758.87,99.5,6.5,-40.4,1.54,0.82,2.72,0.06,1.16,0.17,-177.1,97.9,230.0,0.28,-2.97,-0.14,0.0,1.173925040196349,3.231470253615218,0.15002999069812373,0.35,0,0,0.0
8.090777229001105,503,758.88,99.6,6.8,-40.4,1.25,0.16,2.79,0.12,1.12,0.07,-176.0,120.7,221.0,0.24,-3.55,-0.04,0.0,1.128583182578936,3.0614049062481103,0.10259437041909658,0.35,0,0,0.0
8.099542214000394,504,758.89,99.7,7.0,-40.3,1.13,-0.32,2.58,0.16,1.06,0.0,-174.7,142.4,226.0,0.2,-4.16,-0.24,0.0,1.0720074626605918,2.834731027804931,0.04509827749073714,0.35,0,0,0.0
8.110942220000652,505,758.9,99.9,7.3,-40.2,1.42,-0.57,2.06,0.2,1.04,-0.07,-173.1,166.2,230.0,0.16,-4.79,-0.21,0.0,1.0613670430157516,2.5661059993694724,0.03376870068897908,0.35,0,0,0.0
8.119386415000918,506,758.91,100.1,7.4,-40.1,1.73,-0.62,1.37,0.24,1.04,-0.14,-171.2,188.8,233.0,0.1,-5.43,-0.07,0.0,1.0764757312638313,2.292204179387168,0.04789984115831758,0.35,0,0,0.0
8.131611558001168,507,758.92,100.2,7.6,-40.1,1.76,-0.43,0.66,0.25,1.08,-0.17,-169.2,211.4,215.0,0.05,-5.98,-0.23,0.0,1.1215168300119263,1.928237537234456,0.09108212110828418,0.35,0,0,0.0
8.139676093000162,508,758.93,100.4,7.6,-40.0,1.3,-0.19,0.07,0.23,1.11,-0.16,-166.9,232.1,219.0,-0.01,-6.59,-0.23,0.0,1.1448143954370946,1.3156747318391426,0.11209209280278354,0.35,0,0,0.0
8.150818928999797,509,758.94,100.5,7.6,-40.0,0.67,-0.06,-0.34,0.19,1.1,-0.16,-164.4,257.3,257.0,-0.08,-7.36,-0.03,0.0,1.1276967677527503,0.7537240874484509,0.0930749758160705,0.35,0,0,0.0
8.159838479001337,510,758.95,100.5,7.6,-40.0,0.36,0.03,-0.63,0.15,1.04,-0.16,-161.7,285.8,261.0,-0.16,-8.07,-0.16,0.0,1.0628734637763801,0.7262231062146123,0.027686638402906416,0.35,0,0,0.0
8.170765097000185,511,758.96,100.5,7.5,-40.0,0.37,0.06,-0.91,0.11,0.96,-0.15,-158.7,307.7,222.0,-0.24,-8.6,-0.06,0.0,0.9778547949465708,0.9841747812253675,0.05618538981836485,0.35,0,0,0.0
8.179147834000105,512,758.97,100.5,7.4,-40.1,0.49,0.01,-1.15,0.08,0.93,-0.12,-155.4,329.1,225.0,-0.33,-9.23,-0.01,0.0,0.9411163583744574,1.2500799974401637,0.09106534986266868,0.35,0,0,0.0
8.190592327000559,513,758.98,100.5,7.3,-40.1,0.57,-0.19,-1.29,0.04,0.9,-0.09,-152.0,352.9,235.0,-0.43,-9.88,0.12,0.0,0.9053728513711906,1.4230600830604447,0.12427267972861678,0.35,0,0,0.0
8.203613486000904,514,758.99,100.6,7.1,-40.1,0.48,-0.51,-1.38,0.0,0.89,-0.05,-148.3,375.6,238.0,-0.53,-10.54,0.09,0.0,0.891403387922662,1.5475464451834717,0.1354773003136024,0.35,0,0,0.0
8.215378261000296,515,759.0,100.6,7.1,-40.1,0.48,-0.51,-1.38,0.0,0.89,-0.05,-145.8,393.1,302.0,-0.64,-11.26,0.11,0.0,0.891403387922662,1.5475464451834717,0.13276775430733034,0.35,0,0,0.0
8.227558803000647,516,759.01,100.7,6.8,-39.9,-0.03,-1.41,-1.49,-0.04,0.86,-0.01,-140.2,422.5,239.0,-0.76,-11.69,-0.19,0.0,0.8609878047916822,2.051609124565398,0.15991967068954394,0.35,0,0,0.0
8.235632366000573,517,759.02,100.7,6.6,-39.8,-0.38,-1.87,-1.53,-0.07,0.85,-0.02,-135.8,443.5,240.0,-0.88,-12.35,-0.16,0.0,0.8531119504496464,2.4458536342144437,0.16443961453094824,0.35,0,0,0.0
8.243586135000442,518,759.03,100.6,6.4,-39.6,-0.7,-2.28,-1.53,-0.08,0.85,-0.02,-131.2,458.6,133.0,-1.0,-12.52,0.08,0.0,0.8539906322671226,2.833601948051278,0.16028971405920267,0.35,0,0,0.0
8.251543393000247,519,759.04,100.6,6.2,-39.4,-0.94,-2.64,-1.46,-0.09,0.86,-0.04,-126.6,471.5,167.0,-1.13,-13.05,0.05,0.0,0.8656211642514293,3.159873415186121,0.14568599843339802,0.35,0,0,0.0
8.259662565000326,520,759.05,100.5,6.0,-39.2,-1.05,-2.89,-1.31,-0.08,0.9,-0.07,-121.8,480.3,55.0,-1.26,-13.0,-0.06,0.0,0.9062560344626678,3.342259714624224,0.10295010565771645,0.35,0,0,0.0
8.270739721001519,521,759.06,100.4,5.9,-38.9,-1.08,-2.99,-1.1,-0.04,0.93,-0.09,-117.0,478.4,24.0,-1.39,-13.03,-0.11,0.0,0.9352005132590552,3.364000594530269,0.07252551432410248,0.35,0,0,0.0
8.279560760000095,522,759.07,100.3,5.7,-38.6,-0.97,-2.93,-0.88,-0.01,0.97,-0.12,-112.2,479.8,24.0,-1.53,-13.1,0.07,0.0,0.977445650662992,3.20939246587263,0.029674769381762278,0.35,0,0,0.0
8.290962091001347,523,759.08,100.2,5.6,-38.3,-0.97,-2.71,-0.64,0.03,1.0,-0.16,-107.4,488.4,65.0,-1.66,-13.35,-0.16,0.0,1.01316336293808,2.9486607129339246,0.005922084035459241,0.35,0,0,0.0
8.299469214000055,524,759.09,100.1,5.5,-38.1,-1.33,-2.34,-0.33,0.08,1.02,-0.19,-102.5,485.1,-43.0,-1.79,-13.03,0.16,0.0,1.0406248123122954,2.711715324291988,0.032715862741481194,0.35,0,0,0.0
8.310884487000294,525,759.1,100.0,5.4,-37.9,-1.9,-1.73,0.01,0.1,1.01,-0.21,-97.7,469.5,-154.0,-1.92,-12.42,0.02,0.0,1.0364362016062543,2.56963032360688,0.027956706994731295,0.35,0,0,0.0
8.319513184000243,526,759.11,99.8,5.4,-37.8,-2.65,-1.13,0.43,0.12,0.98,-0.19,-93.3,426.6,-412.0,-2.03,-10.86,0.3,0.0,1.0054352291420865,2.912782175172047,0.002983380160047844,0.35,0,0,0.0
8.330760343000293,527,759.12,99.6,5.5,-37.7,-2.79,-0.54,0.85,0.1,0.91,-0.18,-89.5,356.6,-680.0,-2.12,-8.57,0.31,0.0,0.9330058949438638,2.966175989384312,0.07390446007110518,0.35,0,0,0.0
8.339546451999922,528,759.13,99.3,5.6,-37.6,-2.95,-0.19,1.17,0.07,0.88,-0.14,-86.6,250.8,-999.0,-2.19,-5.33,0.6,0.0,0.8938120607823549,3.1792294663959066,0.11083632834796175,0.35,0,0,0.0
8.350874933999876,529,759.14,99.0,5.7,-37.6,-2.6,-0.13,1.33,0.06,0.84,-0.11,-85.0,130.8,-1118.0,-2.22,-2.12,0.56,0.0,0.8492938243034621,2.9233200303764213,0.1522474735303173,0.35,0,0,0.0
8.359629684000538,530,759.15,98.8,5.8,-37.5,-1.73,-0.38,1.2,0.08,0.84,-0.1,-84.4,17.0,-1075.0,-2.22,0.67,0.24,0.0,0.84970583144992,2.13946254933336,0.14879875705618228,0.35,0,0,0.0
8.370760023000912,531,759.16,98.6,5.9,-37.5,-1.47,-0.54,0.96,0.1,0.91,-0.19,-84.8,-54.5,-724.0,-2.2,2.05,0.17,0.0,0.9349866309204641,1.8368723417809958,0.062247598433925355,0.35,0,0,0.0
8.37952400300128,532,759.17,98.5,6.0,-37.4,-1.82,-0.18,0.9,0.13,0.96,-0.27,-85.7,-99.5,-537.0,-2.17,3.23,0.05,0.0,1.0056838469419702,2.0383326519486458,0.008280625235829175,0.35,0,0,0.0
8.39093141200101,533,759.18,98.4,6.1,-37.4,-1.9,0.43,0.86,0.13,0.92,-0.22,-87.0,-143.2,-466.0,-2.13,4.41,0.1,0.0,0.954829827770373,2.129436545192178,0.041721926057052716,0.35,0,0,0.0
8.39955647700117,534,759.19,98.2,6.2,-37.5,-1.42,0.9,0.74,0.13,0.89,-0.17,-88.7,-183.2,-408.0,-2.08,5.41,0.14,0.0,0.9153687781435415,1.836845121397011,0.0795593161702065,0.35,0,0,0.0
8.410730523000893,535,759.2,98.1,6.3,-37.6,-1.08,1.11,0.71,0.12,0.9,-0.12,-90.8,-215.5,-327.0,-2.02,6.17,0.19,0.0,0.9158602513484249,1.7037018518508456,0.0774864861060166,0.35,0,0,0.0
8.419510167001135,536,759.21,98.0,6.4,-37.7,-0.92,1.09,0.72,0.11,0.89,-0.13,-93.1,-238.0,-246.0,-1.96,6.71,0.01,0.0,0.9061456836513652,1.597779709471866,0.08545703272701477,0.35,0,0,0.0
8.430752102000042,537,759.22,97.9,6.5,-37.8,-0.69,1.04,0.7,0.12,0.89,-0.13,-95.6,-256.9,-201.0,-1.89,7.17,0.0,0.0,0.9074139077620532,1.4309786860746738,0.0825050324440002,0.35,0,0,0.0
8.439394070001072,538,759.23,97.8,6.6,-37.9,-0.2,0.92,0.64,0.11,0.89,-0.12,-98.3,-270.1,-129.0,-1.81,7.42,-0.02,0.0,0.9047651629014017,1.1384199576606167,0.08345070175855862,0.35,0,0,0.0
8.450793369000166,539,759.24,97.9,6.7,-37.9,0.34,0.74,0.48,0.1,0.89,-0.13,-101.0,-274.3,-54.0,-1.74,7.45,-0.03,0.0,0.9049861877399014,0.9453041838477179,0.0815650833816578,0.35,0,0,0.0
8.45957141800136,540,759.25,97.9,6.7,-38.0,0.72,0.49,0.27,0.08,0.9,-0.16,-103.7,-272.7,-2.0,-1.66,7.37,0.19,0.0,0.9176055797563569,0.9118113840043893,0.06756677753789819,0.35,0,0,0.0
8.47092164300011,541,759.26,98.0,6.7,-38.0,0.91,0.2,0.07,0.06,0.94,-0.2,-106.4,-269.0,28.0,-1.59,7.24,0.09,0.0,0.9629122493768578,0.9343446901438462,0.02181490575904932,0.35,0,0,0.0
8.479603165000299,542,759.27,98.2,6.7,-38.0,1.01,-0.07,-0.04,0.04,0.98,-0.23,-109.1,-261.4,74.0,-1.52,6.96,-0.14,0.0,1.007422453591342,1.0132127121192271,0.022241392486326284,0.35,0,0,0.0
8.49093550300131,543,759.28,98.3,6.7,-38.0,0.95,-0.33,-0.1,0.02,1.01,-0.25,-111.6,-248.8,112.0,-1.45,6.6,-0.02,0.0,1.0406728592598156,1.0106433594498112,0.05438196219170377,0.35,0,0,0.0
8.499539923001066,544,759.29,98.4,6.7,-37.9,0.9,-0.52,-0.23,0.0,1.02,-0.28,-114.0,-236.3,121.0,-1.39,6.25,-0.06,0.0,1.0577334257741882,1.0645656391223606,0.0700136781319548,0.35,0,0,0.0
8.51087949200155,545,759.3,98.4,6.6,-37.9,0.83,-0.73,-0.39,0.0,1.07,-0.3,-116.3,-222.5,134.0,-1.33,5.87,0.17,0.0,1.1112605455067683,1.1721348045340176,0.12106998190724427,0.35,0,0,0.0
8.519579450001402,546,759.31,98.5,6.6,-37.8,0.23,-0.75,-0.4,0.01,1.07,-0.34,-118.4,-209.0,129.0,-1.27,5.53,-0.09,0.0,1.1227644454648535,0.8805679985100526,0.12992240422802293,0.35,0,0,0.0
8.530750464000448,547,759.32,98.5,6.5,-37.7,-0.42,-0.76,-0.37,0.01,1.02,-0.36,-120.4,-196.0,134.0,-1.22,5.14,0.0,0.0,1.0817116066678771,0.9438749917229505,0.08709217412242554,0.35,0,0,0.0
8.539425835000657,548,759.33,98.4,6.5,-37.7,-0.61,-0.83,-0.38,0.01,0.96,-0.35,-122.3,-182.3,136.0,-1.17,4.78,-0.07,0.0,1.0218610473053564,1.0979070998950686,0.026696782464706748,0.35,0,0,0.0
8.550778003000232,549,759.34,98.4,6.4,-37.6,-0.38,-0.9,-0.42,0.01,0.91,-0.36,-124.0,-168.9,136.0,-1.13,4.4,-0.22,0.0,0.9786725703727472,1.0633908030446755,0.016161860578544407,0.35,0,0,0.0
8.55955320800058,550,759.35,98.4,6.4,-37.5,-0.04,-0.9,-0.46,0.02,0.86,-0.35,-125.6,-155.5,136.0,-1.08,4.05,0.06,0.0,0.9287087810503354,1.0115334893121435,0.06480313690293715,0.35,0,0,0.0
8.570880582001337,551,759.36,98.4,6.3,-37.4,0.62,-0.91,-0.61,0.04,0.84,-0.33,-127.1,-143.2,120.0,-1.04,3.75,0.03,0.0,0.9033825324855468,1.2588089608832629,0.08832679775837127,0.35,0,0,0.0
8.579577198001061,552,759.37,98.6,6.2,-37.3,1.4,-0.9,-0.79,0.07,0.87,-0.35,-128.4,-132.0,118.0,-1.01,3.44,-0.08,0.0,0.9403722667114338,1.8423083346714795,0.05031032226183452,0.35,0,0,0.0
8.59096980600043,553,759.38,98.7,6.1,-37.3,1.68,-0.75,-0.8,0.09,0.95,-0.35,-129.7,-122.2,98.0,-0.98,3.21,0.08,0.0,1.0164152694642086,2.0062153423797753,0.025218026881121403,0.35,0,0,0.0
8.599549268001283,554,759.39,98.9,6.0,-37.2,1.24,-0.44,-0.52,0.08,1.03,-0.33,-130.8,-115.7,66.0,-0.95,3.08,0.0,0.0,1.0845275469069469,1.4147791347061915,0.09146369823738254,0.35,0,0,0.0
8.610924698001327,555,759.4,99.0,6.0,-37.2,0.62,-0.29,-0.08,0.09,1.03,-0.25,-132.0,-113.0,28.0,-0.91,3.07,0.16,0.0,1.0637198879404295,0.6891298861608021,0.06924291848544784,0.35,0,0,0.0
8.619551499999943,556,759.41,99.1,6.0,-37.2,0.56,-0.3,0.17,0.08,0.95,-0.15,-133.1,-113.4,4.0,-0.88,3.1,0.01,0.0,0.965090669315583,0.6576473218982953,0.02879857413661069,0.35,0,0,0.0
8.630823941000926,557,759.42,99.1,6.0,-37.1,1.3,-0.6,-0.05,0.09,0.89,-0.08,-134.3,-116.5,-24.0,-0.85,3.22,0.0,0.0,0.8981091247727082,1.4326548781894404,0.09386451630589576,0.35,0,0,0.0
8.639519759000905,558,759.43,99.3,6.0,-37.1,2.04,-0.81,-0.56,0.14,0.92,-0.05,-135.5,-121.0,-30.0,-0.82,3.31,-0.08,0.0,0.9319334740205439,2.265237294413104,0.058839363716898796,0.35,0,0,0.0
8.650927381000656,559,759.44,99.5,5.9,-37.0,1.83,-0.9,-1.09,0.21,1.0,-0.01,-136.7,-122.6,-14.0,-0.79,3.33,-0.09,0.0,1.0218610473053564,2.3123581037546934,0.030466445376555407,0.35,0,0,0.0
8.65954444199997,560,759.45,99.6,5.7,-36.9,0.83,-0.76,-1.47,0.26,1.06,0.03,-137.9,-119.1,41.0,-0.75,3.12,-0.15,0.0,1.0918333206126292,1.8513238506539043,0.09842994431015162,0.35,0,0,0.0
8.670964210999955,561,759.46,99.7,5.5,-36.9,-0.15,-0.41,-1.78,0.32,1.07,0.07,-139.0,-106.3,119.0,-0.73,2.66,-0.17,0.0,1.11901742613777,1.8327574853209576,0.1231017688385867,0.35,0,0,0.0
8.679600397001195,562,759.47,99.6,5.3,-36.9,-0.27,0.05,-2.07,0.35,1.06,0.06,-139.9,-86.2,182.0,-0.7,2.06,-0.03,0.0,1.1178998166204341,2.0881331375178163,0.11954447613482566,0.35,0,0,0.0
8.690837259000546,563,759.48,99.6,5.1,-37.0,0.14,0.7,-2.31,0.32,1.08,0.08,-140.6,-60.7,244.0,-0.69,1.3,0.07,0.0,1.1292475370794484,2.417788245483876,0.1282743526619632,0.35,0,0,0.0
8.699547864000124,564,759.49,99.6,4.9,-37.1,0.29,1.21,-2.4,0.21,1.09,0.13,-141.0,-33.7,264.0,-0.68,0.55,-0.09,0.0,1.1176314240392493,2.703368269400231,0.11432507482932897,0.35,0,0,0.0
8.710805343000175,565,759.5,99.7,4.7,-37.3,0.37,1.4,-2.32,0.07,1.07,0.15,-141.2,-6.4,251.0,-0.68,-0.09,0.14,0.0,1.082728036027515,2.734830890567093,0.07783325308124289,0.35,0,0,0.0
8.719461677001163,566,759.51,99.7,4.5,-37.5,0.89,1.26,-2.14,-0.04,1.05,0.11,-141.1,7.4,138.0,-0.68,-0.26,0.06,0.0,1.0565036677645754,2.6380485211610494,0.05057670712193718,0.35,0,0,0.0
8.730842835000658,567,759.52,99.8,4.3,-37.6,1.67,0.88,-1.81,-0.13,1.06,0.09,-141.0,10.7,52.0,-0.68,-0.27,-0.09,0.0,1.0717275773255068,2.615224655741835,0.06448460434921133,0.35,0,0,0.0
8.739650240000628,568,759.53,100.0,4.2,-37.7,2.93,0.18,-1.35,-0.17,1.15,0.08,-141.0,3.1,-58.0,-0.68,0.06,-0.01,0.0,1.1652467549836814,3.2310679349094475,0.1548437063672381,0.35,0,0,0.0
8.75072826700125,569,759.54,100.4,4.1,-37.7,3.72,-0.64,-0.82,-0.16,1.21,0.02,-141.0,-3.6,-27.0,-0.68,0.07,-0.01,0.0,1.2206965224821442,3.862693360855868,0.20608760438838702,0.35,0,0,0.0
8.759470732000409,570,759.55,100.8,4.0,-37.6,3.47,-1.36,-0.34,-0.11,1.28,-0.06,-141.0,-2.0,-1.0,-0.68,0.04,0.05,0.0,1.286118190525272,3.7424724447883384,0.2660790869828846,0.35,0,0,0.0
8.770861777000391,571,759.56,101.1,4.0,-37.4,2.69,-1.8,0.08,-0.04,1.29,-0.13,-141.1,-3.2,-20.0,-0.68,0.13,0.13,0.0,1.29715072370176,3.237668914512415,0.2715693877561851,0.35,0,0,0.0
8.779613519000122,572,759.57,101.3,3.9,-37.2,1.64,-2.03,0.36,0.02,1.25,-0.17,-141.1,-10.6,-82.0,-0.68,0.47,0.04,0.0,1.2616655658295506,2.6344069541359776,0.23136254528629618,0.35,0,0,0.0
8.790726360000917,573,759.58,101.4,3.9,-37.0,0.66,-2.1,0.49,0.09,1.19,-0.21,-141.4,-30.0,-175.0,-0.67,1.09,0.07,0.0,1.2117342943071308,2.25514966243928,0.17780264828859882,0.35,0,0,0.0
8.799675514001137,574,759.59,101.4,4.0,-36.8,-0.11,-2.01,0.52,0.15,1.12,-0.23,-141.8,-53.2,-220.0,-0.65,1.75,0.39,0.0,1.15316954521007,2.079086337793599,0.1168531412077074,0.35,0,0,0.0
8.810731903000487,575,759.6,101.4,4.0,-36.6,-0.95,-1.85,0.54,0.2,1.04,-0.25,-142.5,-80.2,-257.0,-0.63,2.51,0.11,0.0,1.08816359064251,2.1486274688740252,0.05081024290734426,0.35,0,0,0.0
8.819595316999767,576,759.61,101.3,4.0,-36.4,-1.67,-1.53,0.49,0.23,0.94,-0.26,-143.5,-108.9,-286.0,-0.6,3.34,0.09,0.0,1.0020479030465559,2.3173044685582425,0.03459933579483776,0.35,0,0,0.0
8.830840059001275,577,759.62,101.1,4.0,-36.3,-1.98,-1.11,0.44,0.24,0.87,-0.25,-144.8,-140.3,-302.0,-0.56,4.18,0.19,0.0,0.9364827814754524,2.3121634890292686,0.09816116821862253,0.35,0,0,0.0
8.839609767001093,578,759.63,100.9,4.1,-36.2,-1.9,-0.61,0.42,0.24,0.83,-0.23,-146.4,-168.1,-272.0,-0.51,4.87,0.09,0.0,0.8940917178902844,2.039240054530118,0.13774118716771466,0.35,0,0,0.0
8.85084307500074,579,759.64,100.7,4.1,-36.2,-1.32,-0.11,0.47,0.25,0.81,-0.19,-148.3,-191.1,-231.0,-0.46,5.43,0.06,0.0,0.8687347120957007,1.4054892386638895,0.1598362291030524,0.35,0,0,0.0
8.85947026500071,580,759.65,100.7,4.2,-36.2,-0.44,0.42,0.49,0.26,0.82,-0.19,-150.3,-208.8,-181.0,-0.4,5.85,-0.02,0.0,0.8809653795694811,0.7810889834071404,0.14465345039668664,0.35,0,0,0.0
8.870873297000799,581,759.66,100.6,4.2,-36.2,0.02,1.04,0.47,0.27,0.84,-0.21,-152.5,-219.9,-120.0,-0.34,6.07,0.06,0.0,0.9069729874698583,1.1414464507807627,0.11627292564638314,0.35,0,0,0.0
8.879481433001274,582,759.67,100.6,4.3,-36.4,0.12,1.76,0.44,0.26,0.87,-0.22,-154.7,-224.1,-48.0,-0.28,6.08,-0.03,0.0,0.9342911751697112,1.8181309083781618,0.08717564318759963,0.35,0,0,0.0
8.890795695000634,583,759.68,100.6,4.4,-36.6,0.09,2.49,0.37,0.24,0.87,-0.22,-157.0,-224.0,-12.0,-0.22,6.07,-0.15,0.0,0.9289241088485108,2.51894819319493,0.09069185531862389,0.35,0,0,0.0
8.89954860600119,584,759.69,100.6,4.5,-36.8,0.2,3.04,0.32,0.19,0.89,-0.18,-159.2,-222.7,9.0,-0.16,6.01,-0.04,0.0,0.9276852914647294,3.0633315197673268,0.09009205924835728,0.35,0,0,0.0
8.910961450999821,585,759.7,100.6,4.6,-37.1,0.27,3.28,0.34,0.15,0.92,-0.16,-161.4,-216.8,54.0,-0.1,5.79,-0.15,0.0,0.9457801012920498,3.308609980036934,0.0705573044326161,0.35,0,0,0.0
8.919559829000718,586,759.71,100.6,4.7,-37.5,0.17,3.4,0.35,0.11,0.92,-0.15,-163.5,-206.0,103.0,-0.05,5.41,-0.02,0.0,0.9386160024205852,3.4221922798112905,0.0761669752379992,0.35,0,0,0.0
8.930866052000056,587,759.72,100.6,4.8,-37.8,-0.2,3.36,0.37,0.07,0.93,-0.13,-165.5,-190.7,141.0,0.0,4.98,-0.12,0.0,0.9416474924301557,3.3862220836796864,0.0716727755238602,0.35,0,0,0.0
8.93958044000101,588,759.73,100.5,4.9,-38.1,-0.69,3.07,0.35,0.03,0.91,-0.1,-167.2,-173.8,155.0,0.04,4.54,0.04,0.0,0.9159694318043589,3.1659911560204965,0.09540381942666387,0.35,0,0,0.0
8.950957991000905,589,759.74,100.3,5.0,-38.4,-1.05,2.6,0.26,0.01,0.89,-0.08,-168.9,-158.2,157.0,0.08,4.1,0.15,0.0,0.8936442245099556,2.816043323530375,0.11537444618664572,0.35,0,0,0.0
8.959414355000263,590,759.75,100.2,5.1,-38.6,-1.26,2.08,0.15,0.0,0.86,-0.1,-170.3,-141.1,165.0,0.12,3.62,-0.23,0.0,0.8657944328765345,2.4364933818912786,0.14035975306366544,0.35,0,0,0.0
8.970607940000264,591,759.76,100.0,5.1,-38.8,-1.26,1.66,0.04,-0.01,0.85,-0.12,-171.6,-124.1,169.0,0.15,3.16,0.06,0.0,0.85848704125339,2.084418384106223,0.14471380179307358,0.35,0,0,0.0
8.979543740000736,592,759.77,99.9,5.1,-38.9,-1.12,1.33,-0.02,0.0,0.85,-0.14,-172.7,-105.2,184.0,0.18,2.63,-0.07,0.0,0.8614522621712708,1.7388789492083687,0.13891360925768903,0.35,0,0,0.0
8.990980092999962,593,759.78,99.8,5.0,-39.1,-0.94,1.08,-0.09,0.01,0.85,-0.16,-173.7,-87.6,172.0,0.21,2.18,0.05,0.0,0.8649855490122363,1.4346079603849966,0.13267271596838903,0.35,0,0,0.0
8.999563973000477,594,759.79,99.7,5.0,-39.2,-0.75,0.9,-0.15,0.03,0.85,-0.2,-174.4,-71.1,170.0,0.22,1.73,-0.02,0.0,0.8737276463521112,1.1811011811017718,0.12145200625594388,0.35,0,0,0.0
9.010845427999811,595,759.8,99.7,5.0,-39.2,-0.77,0.82,-0.21,0.07,0.85,-0.24,-175.0,-54.4,157.0,0.24,1.31,-0.14,0.0,0.8860022573334675,1.1442901729893515,0.10699384736909578,0.35,0,0,0.0
9.01930034399993,596,759.81,99.6,5.0,-39.3,-0.79,0.84,-0.3,0.1,0.84,-0.26,-175.5,-40.7,139.0,0.25,0.95,-0.07,0.0,0.8849858755935034,1.1915116449284078,0.10585002452687864,0.35,0,0,0.0
9.030793751000601,597,759.82,99.5,4.9,-39.4,-0.76,0.83,-0.47,0.13,0.82,-0.26,-175.8,-28.9,115.0,0.26,0.67,-0.15,0.0,0.87,1.2195900950729306,0.11841918211797442,0.35,0,0,0.0
9.039534260000437,598,759.83,99.5,4.9,-39.5,-0.42,0.87,-0.65,0.14,0.84,-0.29,-176.0,-20.3,96.0,0.26,0.44,-0.11,0.0,0.8996110270555824,1.1643882514007087,0.0870319919611442,0.35,0,0,0.0
9.050845571000536,599,759.84,99.4,4.8,-39.6,-0.27,1.03,-0.8,0.14,0.86,-0.31,-176.2,-13.0,65.0,0.26,0.32,-0.02,0.0,0.9248243076390239,1.3318408313308314,0.0605823371501486,0.35,0,0,0.0
9.059553290000622,600,759.85,99.4,4.8,-39.7,-0.21,1.29,-0.89,0.15,0.88,-0.32,-176.3,-10.6,40.0,0.27,0.24,0.11,0.0,0.9483142938920619,1.5812336955681157,0.03635050387916838,0.35,0,0,0.0
9.07088886100064,601,759.86,99.4,4.7,-39.9,-0.29,1.55,-0.9,0.15,0.91,-0.31,-176.4,-6.7,33.0,0.27,0.16,0.28,0.0,0.9729850975220535,1.8156541520895437,0.011446106244193177,0.35,0,0,0.0
9.079530692000844,602,759.87,99.3,4.7,-40.1,-0.11,1.78,-0.77,0.14,0.93,-0.27,-176.4,-5.9,2.0,0.27,0.2,-0.05,0.0,0.9784681905918046,1.9425241311242443,0.005843752910953293,0.35,0,0,0.0
9.090963075999753,603,759.88,99.4,4.6,-40.3,0.39,1.81,-0.57,0.1,0.98,-0.23,-176.5,-9.0,-22.0,0.27,0.29,-0.12,0.0,1.0115829180052418,1.9372919243108406,0.026725555012434232,0.35,0,0,0.0
9.09953398000107,604,759.89,99.4,4.6,-40.5,0.84,1.79,-0.35,0.04,1.02,-0.2,-176.7,-16.7,-73.0,0.28,0.57,0.09,0.0,1.0401922899156675,2.008033864256278,0.054228228384402666,0.35,0,0,0.0
9.110857782001403,605,759.9,99.5,4.6,-40.6,1.03,1.46,-0.23,0.0,1.03,-0.15,-176.9,-23.4,-44.0,0.28,0.64,-0.08,0.0,1.0408650248711404,1.8014993755202915,0.05380294407307806,0.35,0,0,0.0
9.11952533800104,606,759.91,99.6,4.5,-40.8,0.63,1.07,-0.3,-0.02,1.02,-0.19,-177.1,-22.3,-6.0,0.29,0.59,0.12,0.0,1.0377379245262264,1.2774192733789482,0.049662326853600725,0.35,0,0,0.0
9.130782492000435,607,759.92,99.6,4.5,-40.8,0.06,0.77,-0.52,-0.01,0.99,-0.24,-177.3,-20.3,15.0,0.3,0.51,-0.11,0.0,1.0187246929372038,0.931074647920348,0.030036113359286576,0.35,0,0,0.0
9.13955315900057,608,759.93,99.6,4.4,-40.9,-0.16,0.68,-0.71,0.0,0.95,-0.33,-177.5,-16.4,24.0,0.3,0.43,0.16,0.0,1.0056838469419702,0.9960421677820674,0.01665536201677198,0.35,0,0,0.0
9.150882579000609,609,759.94,99.6,4.4,-41.0,-0.04,0.88,-0.83,0.06,0.91,-0.41,-177.6,-14.1,24.0,0.3,0.35,-0.08,0.0,0.9998999949995,1.2103305333668155,0.010654079872815747,0.35,0,0,0.0
9.159531937000793,610,759.95,99.6,4.3,-41.1,0.66,1.44,-0.79,0.14,0.93,-0.42,-177.8,-11.5,34.0,0.31,0.24,-0.09,0.0,1.03,1.7701129907438113,0.03993900317584942,0.35,0,0,0.0
9.170777006000208,611,759.96,99.7,4.3,-41.3,1.74,2.14,-0.58,0.17,0.96,-0.42,-177.8,-4.8,67.0,0.31,0.01,-0.11,0.0,1.06155546251715,2.818439284426755,0.07006457637913932,0.35,0,0,0.0
9.179484637999849,612,759.97,100.0,4.3,-41.6,3.17,3.08,-0.25,0.17,1.05,-0.4,-177.8,0.9,28.0,0.31,0.01,0.05,0.0,1.136397817667739,4.426940252589818,0.14200879289913382,0.35,0,0,0.0
9.1909758590009,613,759.98,100.3,4.3,-41.9,4.23,3.55,0.15,0.15,1.11,-0.39,-177.8,0.0,13.0,0.31,-0.01,-0.09,0.0,1.1860438440462477,5.524300860742471,0.18782172289208976,0.35,0,0,0.0
9.19957347700074,614,759.99,100.7,4.4,-42.3,4.55,3.73,0.58,0.13,1.15,-0.33,-177.8,0.0,2.0,0.31,0.0,0.05,0.0,1.2034533642813086,5.912004736128008,0.20112661826460765,0.35,0,0,0.0
9.210771489000763,615,760.0,100.7,4.4,-42.3,4.55,3.73,0.58,0.13,1.15,-0.33,-177.8,0.0,4.0,0.31,-0.01,0.13,0.0,1.2034533642813086,5.912004736128008,0.19710408589931538,0.35,0,0,0.0
9.22356716700051,616,760.01,101.5,4.7,-42.9,2.65,2.73,0.81,0.07,1.1,-0.18,-177.8,0.2,-3.0,0.31,0.0,-0.48,0.0,1.1168258592994702,3.889922878412887,0.10826704929912756,0.35,0,0,0.0
9.23161303300003,617,760.02,101.6,4.8,-43.1,1.45,2.22,0.69,0.04,1.08,-0.13,-177.8,0.0,2.0,0.31,0.0,-0.01,0.0,1.0885311203635843,2.7398905087612535,0.07837286415597688,0.35,0,0,0.0
9.239379919001294,618,760.03,101.7,4.9,-43.3,0.57,2.05,0.68,0.0,1.1,-0.07,-177.8,1.1,13.0,0.31,-0.06,-0.02,0.0,1.102225022397877,2.2337860237721965,0.09022543086646406,0.35,0,0,0.0
9.250987402001556,619,760.04,101.7,5.1,-43.5,0.05,2.18,0.91,-0.06,1.15,0.0,-177.8,3.0,13.0,0.31,-0.09,0.13,0.0,1.1515641536623134,2.3628372775119324,0.1367732708882825,0.35,0,0,0.0
9.259572887000104,620,760.05,101.7,5.2,-43.7,-0.01,2.35,1.43,-0.11,1.2,0.09,-177.8,3.6,9.0,0.31,-0.11,-0.26,0.0,1.2083873551142448,2.750908940695784,0.18972454289340956,0.35,0,0,0.0
9.27089616000012,621,760.06,101.7,5.4,-43.9,0.33,2.35,2.16,-0.15,1.23,0.18,-177.7,6.1,25.0,0.3,-0.21,0.06,0.0,1.2521182052825524,3.2088938904239264,0.22878628520048272,0.35,0,0,0.0
9.279541713000071,622,760.07,101.7,5.7,-44.1,0.77,1.97,2.91,-0.15,1.23,0.26,-177.6,11.6,65.0,0.3,-0.45,0.01,0.0,1.2660963628413122,3.5974852327702473,0.23790915390405765,0.35,0,0,0.0
9.290900615000282,623,760.08,101.8,6.1,-44.2,0.7,1.08,3.52,-0.12,1.22,0.28,-177.4,22.1,111.0,0.29,-0.81,-0.17,0.0,1.257457752769452,3.747906082067692,0.22468513295555348,0.35,0,0,0.0
9.299370272001397,624,760.09,101.8,6.5,-44.1,0.23,-0.11,3.79,-0.06,1.16,0.28,-177.1,40.0,169.0,0.28,-1.35,-0.09,0.0,1.1948221624995077,3.7985655187188754,0.15880855183189713,0.35,0,0,0.0
9.310759799000152,625,760.1,101.9,6.8,-44.0,-0.21,-1.28,3.6,0.03,1.08,0.22,-176.5,60.4,184.0,0.26,-1.88,-0.02,0.0,1.1025878649794765,3.8265519727294968,0.06524276922562855,0.35,0,0,0.0
9.31952860400088,626,760.11,101.9,7.1,-43.7,-0.22,-2.13,3.02,0.16,1.03,0.14,-175.8,80.2,190.0,0.24,-2.38,-0.13,0.0,1.0517128885774862,3.702121013689315,0.014080436967165655,0.35,0,0,0.0
9.330942136000886,627,760.12,101.9,7.3,-43.4,0.08,-2.65,2.39,0.27,1.03,0.06,-174.9,101.9,214.0,0.21,-3.07,-0.11,0.0,1.0664895686315923,3.569453739719847,0.028279974680846198,0.35,0,0,0.0
9.339419170000838,628,760.13,102.0,7.5,-43.1,0.43,-2.73,1.9,0.36,1.0,-0.05,-173.7,126.6,242.0,0.18,-3.76,-0.15,0.0,1.0640018796975876,3.353773993577981,0.025276440031904768,0.35,0,0,0.0
9.350839904000168,629,760.14,102.1,7.6,-42.8,1.17,-2.52,1.3,0.38,0.97,-0.14,-172.3,149.1,225.0,0.14,-4.29,-0.09,0.0,1.051142235855833,3.0674582311744687,0.012168460266347214,0.35,0,0,0.0
9.359526956000991,630,760.15,102.3,7.6,-42.6,1.79,-2.24,0.64,0.35,0.99,-0.19,-170.6,173.5,236.0,0.09,-4.99,-0.02,0.0,1.0670988707706517,2.9379074185549143,0.027562593277542513,0.35,0,0,0.0
9.370902495000337,631,760.16,102.5,7.6,-42.4,1.49,-1.91,0.13,0.31,1.04,-0.23,-168.7,195.6,221.0,0.03,-5.57,-0.07,0.0,1.109324118551472,2.4259225049452837,0.06839208423719545,0.35,0,0,0.0
9.37952977399982,632,760.17,102.6,7.6,-42.2,0.75,-1.52,-0.19,0.25,1.05,-0.25,-166.6,216.9,227.0,-0.02,-6.19,-0.13,0.0,1.107925990308017,1.7055790805471318,0.0656540768738656,0.35,0,0,0.0
9.390971061000528,633,760.18,102.7,7.5,-42.1,0.12,-1.15,-0.46,0.19,1.03,-0.26,-164.3,241.7,242.0,-0.08,-6.85,-0.06,0.0,1.079166344916297,1.244387399486189,0.03615654285250258,0.35,0,0,0.0
9.399562219001382,634,760.19,102.7,7.5,-42.0,-0.13,-0.82,-0.73,0.12,0.99,-0.25,-161.6,268.0,239.0,-0.16,-7.55,0.04,0.0,1.02810505299799,1.1055315463612967,0.014606654084488246,0.35,0,0,0.0
9.411608662001527,635,760.2,102.7,7.4,-41.9,-0.44,-0.65,-0.91,0.07,0.98,-0.21,-158.9,287.7,207.0,-0.23,-8.03,-0.22,0.0,1.0046890066085126,1.2017487258158421,0.037262246464486504,0.35,0,0,0.0
9.419542498000737,636,760.21,102.6,7.2,-41.9,-0.87,-0.6,-0.99,0.03,0.96,-0.17,-155.8,307.4,204.0,-0.32,-8.61,0.08,0.0,0.9753973549277238,1.4481022063376603,0.0652228201823698,0.35,0,0,0.0
9.430914874001246,637,760.22,102.5,7.1,-41.9,-1.34,-0.72,-1.01,0.0,0.92,-0.13,-152.6,329.2,211.0,-0.41,-9.19,-0.38,0.0,0.9291393867445293,1.8259518065929343,0.10925117259825312,0.35,0,0,0.0
9.439578568000798,638,760.23,102.3,7.0,-41.8,-1.83,-0.92,-1.01,-0.01,0.89,-0.11,-149.2,348.2,202.0,-0.51,-9.73,0.0,0.0,0.896827742657418,2.2837250272307306,0.13873156035165723,0.35,0,0,0.0
9.45093062900014,639,760.24,102.1,6.9,-41.7,-2.15,-1.2,-0.99,-0.02,0.85,-0.09,-145.5,372.1,237.0,-0.61,-10.42,-0.42,0.0,0.8549853799919621,2.6537897429902015,0.1769624445567709,0.35,0,0,0.0
9.459520159000022,640,760.25,101.9,6.7,-41.6,-2.32,-1.51,-0.99,-0.02,0.82,-0.08,-141.7,389.9,149.0,-0.7,-10.66,-0.16,0.0,0.8241359111214605,2.939829927053604,0.20365567515872718,0.35,0,0,0.0
9.470809435000774,641,760.26,101.7,6.6,-41.5,-2.23,-1.89,-0.96,-0.02,0.81,-0.06,-137.7,399.5,136.0,-0.82,-11.05,-0.34,0.0,0.8124653838779842,3.0767840353199962,0.21101967835415947,0.35,0,0,0.0
9.479485320000094,642,760.27,101.5,6.5,-41.3,-1.98,-2.21,-0.92,-0.02,0.84,-0.05,-133.6,411.8,100.0,-0.94,-11.25,0.32,0.0,0.8417244204607586,3.1065897701498986,0.1781254289359573,0.35,0,0,0.0
9.49083712799984,643,760.28,101.4,6.3,-41.1,-1.81,-2.51,-0.84,-0.01,0.88,-0.06,-129.5,414.2,62.0,-1.05,-11.38,-0.02,0.0,0.8820997676000147,3.2065245983775017,0.134995080160767,0.35,0,0,0.0
9.499539524000284,644,760.29,101.2,6.2,-40.8,-1.77,-2.66,-0.71,0.0,0.93,-0.09,-125.3,427.6,112.0,-1.17,-11.76,-0.06,0.0,0.9343446901438462,3.273010846300391,0.0810951544645967,0.35,0,0,0.0
