host_time_s,seq,device_time_s,roll,pitch,yaw,gyro_x,gyro_y,gyro_z,accel_x,accel_y,accel_z,belt_length,belt_velocity,belt_acceleration,motor_pos,motor_vel,motor_iq_meas,motor_iq_set,acc_mag,gyro_mag,acc_residual,threshold,heel_strike,hs_count,torque_cmd_nm
3.0688487080001323,1,949.08,-102.2,5.2,-10.0,0.03,0.01,0.01,0.09,-0.97,-0.2,-126.3,0.1,1.0,-1.08,0.0,0.07,0.0,0.9944847912361455,0.033166247903554,0.0,0.28,0,0,0.0
3.077270967000004,2,949.09,-102.2,5.2,-10.0,0.0,0.0,0.0,0.09,-0.97,-0.21,-126.3,0.0,0.0,-1.08,0.0,0.07,0.0,0.9965440281292142,0.0,0.0020180521552072284,0.28,0,0,0.0
3.0853005710000616,3,949.1,-102.2,5.2,-10.0,0.0,0.0,0.0,0.09,-0.97,-0.2,-126.3,0.0,0.0,-1.08,0.0,0.11,0.0,0.9944847912361455,0.0,4.0361043104231165e-05,0.28,0,0,0.0
3.0932341200000337,4,949.11,-102.2,5.2,-10.0,0.0,0.0,0.0,0.09,-0.97,-0.21,-126.3,0.2,0.0,-1.08,0.0,-0.01,0.0,0.9965440281292142,0.0,0.0019784983329651507,0.28,0,0,0.0
3.104561735000061,5,949.12,-102.2,5.2,-10.0,0.0,0.0,0.0,0.09,-0.97,-0.21,-126.3,-0.1,-6.0,-1.08,0.01,-0.23,0.0,0.9965440281292142,0.0,0.0019389283663058254,0.28,0,0,0.0
3.1133178810000572,6,949.13,-102.2,5.2,-10.0,0.0,0.0,0.0,0.09,-0.97,-0.21,-126.3,0.2,0.0,-1.08,0.0,0.08,0.0,0.9965440281292142,0.0,0.0019001497989796778,0.28,0,0,0.0
3.124662547999833,7,949.14,-102.2,5.2,-10.0,0.02,0.03,0.0,0.09,-0.97,-0.21,-126.3,0.1,0.0,-1.08,0.0,-0.13,0.0,0.9965440281292142,0.03605551275463989,0.0018621468030001198,0.28,0,0,0.0
3.137213967000207,8,949.15,-102.2,5.2,-10.0,0.01,0.03,0.0,0.09,-0.96,-0.2,-126.3,0.0,0.0,-1.08,0.0,0.02,0.0,0.984733466477097,0.03162277660168379,0.009749446552134722,0.28,0,0,0.0
3.1453336559998206,9,949.16,-102.2,5.2,-10.0,0.0,0.0,0.0,0.09,-0.96,-0.2,-126.3,0.0,7.0,-1.08,-0.03,0.02,0.0,0.984733466477097,0.0,0.009554457621091972,0.28,0,0,0.0
3.157130403999872,10,949.17,-102.2,5.2,-10.0,0.0,0.0,0.0,0.09,-0.97,-0.2,-126.3,0.1,1.0,-1.08,-0.01,-0.03,0.0,0.9944847912361455,0.0,0.00019292979519736075,0.28,0,0,0.0
3.165193684999849,11,949.18,-102.2,5.2,-10.0,0.0,0.0,0.0,0.09,-0.96,-0.2,-126.3,0.0,-1.0,-1.08,0.0,-0.19,0.0,0.984733466477097,0.0,0.009367227064574157,0.28,0,0,0.0
3.1734553649998816,12,949.19,-102.2,5.2,-10.0,0.0,0.0,0.0,0.09,-0.97,-0.2,-126.3,0.0,1.0,-1.08,0.0,-0.1,0.0,0.9944847912361455,0.0,0.00037641574058489,0.28,0,0,0.0
3.1853264609999314,13,949.2,-102.2,5.2,-10.0,0.0,0.0,0.0,0.09,-0.97,-0.2,-126.3,0.1,3.0,-1.08,-0.02,0.0,0.0,0.9944847912361455,0.0,0.0003688874257732344,0.28,0,0,0.0
3.193293340999844,14,949.21,-102.2,5.2,-10.0,-0.03,0.0,0.0,0.09,-0.97,-0.2,-126.3,0.3,-4.0,-1.08,0.0,0.11,0.0,0.9944847912361455,0.03,0.0003615096772577875,0.28,0,0,0.0
3.204560109999875,15,949.22,-102.2,5.2,-10.0,0.0,0.0,0.0,0.09,-0.97,-0.21,-126.3,-0.3,3.0,-1.08,-0.02,0.02,0.0,0.9965440281292142,0.0,0.0023723316389199223,0.28,0,0,0.0
3.2133156979998603,16,949.23,-102.2,5.2,-10.0,0.0,0.0,0.0,0.09,-0.97,-0.21,-126.3,0.1,-8.0,-1.08,0.02,-0.03,0.0,0.9965440281292142,0.0,0.002324885006141475,0.28,0,0,0.0
3.2247090910000225,17,949.24,-102.2,5.2,-10.0,0.0,0.0,0.0,0.09,-0.97,-0.2,-126.3,0.1,4.0,-1.08,0.0,0.12,0.0,0.9944847912361455,0.0,0.0002603351508113638,0.28,0,0,0.0
3.233330646000013,18,949.25,-102.2,5.2,-10.0,0.0,0.0,0.0,0.09,-0.97,-0.21,-126.3,0.0,0.0,-1.08,-0.01,-0.03,0.0,0.9965440281292142,0.0,0.0022731806030024115,0.28,0,0,0.0
3.244791713000268,19,949.26,-102.2,5.2,-10.0,0.0,0.0,0.0,0.09,-0.97,-0.21,-126.3,0.0,-2.0,-1.08,0.01,0.05,0.0,0.9965440281292142,0.0,0.0022277169909423744,0.28,0,0,0.0
3.253186530000221,20,949.27,-102.2,5.2,-10.0,0.0,0.0,0.0,0.09,-0.97,-0.2,-126.3,-0.3,2.0,-1.08,-0.02,-0.06,0.0,0.9944847912361455,0.0,0.00016511049591627636,0.28,0,0,0.0
3.2648078679999344,21,949.28,-102.2,5.2,-10.0,0.0,0.0,0.0,0.09,-0.97,-0.21,-126.3,0.1,0.0,-1.08,0.0,0.02,0.0,0.9965440281292142,0.0,0.002179860441205217,0.28,0,0,0.0
3.2731950910001615,22,949.29,-102.2,5.2,-10.0,0.0,0.0,0.0,0.09,-0.97,-0.21,-126.3,-0.3,-1.0,-1.08,0.0,-0.09,0.0,0.9965440281292142,0.0,0.0021362632323811415,0.28,0,0,0.0
3.2845863510001436,23,949.3,-102.2,5.2,-10.0,0.0,0.0,0.0,0.09,-0.97,-0.2,-126.3,0.3,3.0,-1.08,-0.01,-0.06,0.0,0.9944847912361455,0.0,7.548581252625475e-05,0.28,0,0,0.0
3.29321602500022,24,949.31,-102.2,5.2,-10.0,0.0,0.0,0.0,0.09,-0.97,-0.2,-126.3,0.0,3.0,-1.08,-0.02,-0.03,0.0,0.9944847912361455,0.0,7.397609627568524e-05,0.28,0,0,0.0
3.3047287959998357,25,949.32,-102.2,5.2,-10.0,0.0,0.0,0.0,0.09,-0.97,-0.21,-126.3,0.0,-7.0,-1.08,0.02,-0.06,0.0,0.9965440281292142,0.0,0.0020905487295573844,0.28,0,0,0.0
3.3131892960000187,26,949.33,-102.2,5.2,-10.0,0.0,0.0,0.0,0.09,-0.97,-0.2,-126.3,0.2,3.0,-1.08,-0.01,0.0,0.0,0.9944847912361455,0.0,3.0685599758939475e-05,0.28,0,0,0.0
3.3247770240000136,27,949.34,-102.2,5.2,-10.0,0.0,0.0,0.0,0.09,-0.97,-0.2,-126.3,-0.1,-4.0,-1.08,0.01,0.0,0.0,0.9944847912361455,0.0,3.0071887763716276e-05,0.28,0,0,0.0
3.337265534999915,28,949.35,-102.2,5.3,-9.9,0.0,0.0,0.0,0.09,-0.97,-0.2,-126.3,-0.2,3.0,-1.08,-0.01,0.21,0.0,0.9944847912361455,0.0,2.9470450008450833e-05,0.28,0,0,0.0
3.3492523459999575,29,949.36,-102.2,5.3,-9.9,0.0,0.0,0.0,0.09,-0.97,-0.2,-126.3,0.3,-3.0,-1.08,0.01,0.21,0.0,0.9944847912361455,0.0,2.8881041008288477e-05,0.28,0,0,0.0
3.35729044000027,30,949.37,-102.2,5.3,-9.9,0.0,0.0,0.0,0.09,-0.97,-0.2,-126.3,-0.1,5.0,-1.08,-0.01,0.15,0.0,0.9944847912361455,0.0,2.8303420188113826e-05,0.28,0,0,0.0
3.369142173,31,949.38,-102.2,5.3,-9.9,0.0,0.0,0.0,0.09,-0.97,-0.2,-126.3,0.0,0.0,-1.08,0.0,0.24,0.0,0.9944847912361455,0.0,2.773735178440706e-05,0.28,0,0,0.0
3.377065075000246,32,949.39,-102.2,5.3,-9.9,0.0,0.0,0.0,0.09,-0.97,-0.2,-126.3,0.0,-2.0,-1.08,0.0,0.11,0.0,0.9944847912361455,0.0,2.718260474876555e-05,0.28,0,0,0.0
3.3854031390001182,33,949.4,-102.2,5.3,-9.9,0.0,0.0,0.0,0.09,-0.97,-0.2,-126.3,0.1,1.0,-1.08,0.0,0.18,0.0,0.9944847912361455,0.0,2.663895265375693e-05,0.28,0,0,0.0
3.3932560910002394,34,949.41,-102.2,5.3,-9.9,0.0,0.0,0.0,0.09,-0.97,-0.21,-126.3,0.0,2.0,-1.08,-0.01,0.12,0.0,0.9965440281292142,0.0,0.002044158328807999,0.28,0,0,0.0
3.4045035519998237,35,949.42,-102.2,5.3,-9.9,0.0,0.0,0.0,0.09,-0.97,-0.21,-126.3,0.1,-6.0,-1.08,0.03,0.21,0.0,0.9965440281292142,0.0,0.0020032751622318656,0.28,0,0,0.0
3.413222892000249,36,949.43,-102.2,5.3,-9.9,0.0,0.0,0.0,0.09,-0.97,-0.21,-126.3,-0.3,11.0,-1.08,-0.04,-0.09,0.0,0.9965440281292142,0.0,0.0019632096589872194,0.28,0,0,0.0
3.4246284800001376,37,949.44,-102.2,5.3,-9.9,0.05,0.05,0.0,0.09,-0.97,-0.2,-126.3,0.1,-7.0,-1.08,0.03,-0.18,0.0,0.9944847912361455,0.07071067811865477,9.410668939979772e-05,0.28,0,0,0.0
3.4331384110000727,38,949.45,-102.2,5.3,-9.9,0.04,0.02,0.0,0.09,-0.97,-0.2,-126.3,0.0,7.0,-1.08,-0.02,-0.24,0.0,0.9944847912361455,0.044721359549995794,9.222455561175291e-05,0.28,0,0,0.0
3.444679400000041,39,949.46,-102.2,5.3,-9.9,0.0,0.0,0.0,0.09,-0.97,-0.2,-126.3,-0.4,-6.0,-1.08,0.02,0.03,0.0,0.9944847912361455,0.0,9.038006449946234e-05,0.28,0,0,0.0
3.4531581290002578,40,949.47,-102.2,5.3,-9.9,0.0,0.0,0.0,0.09,-0.96,-0.21,-126.3,0.5,0.0,-1.08,0.0,-0.18,0.0,0.9868130522039116,0.0,0.00760687671479876,0.28,0,0,0.0
3.4645745530001477,41,949.48,-102.2,5.3,-9.9,0.0,0.0,0.0,0.09,-0.97,-0.2,-126.3,-0.1,-1.0,-1.08,0.0,-0.12,0.0,0.9944847912361455,0.0,6.356507108651321e-05,0.28,0,0,0.0
3.47315433499989,42,949.49,-102.2,5.3,-9.9,0.0,0.0,0.0,0.09,-0.97,-0.2,-126.3,0.3,0.0,-1.08,0.0,-0.09,0.0,0.9944847912361455,0.0,6.229376966482292e-05,0.28,0,0,0.0
3.4846468109999478,43,949.5,-102.2,5.3,-9.9,0.0,0.0,0.0,0.09,-0.97,-0.2,-126.3,0.0,-1.0,-1.08,0.0,-0.09,0.0,0.9944847912361455,0.0,6.104789427152646e-05,0.28,0,0,0.0
3.493121824999889,44,949.51,-102.2,5.3,-9.9,0.0,0.0,0.0,0.09,-0.97,-0.2,-126.3,-0.1,-2.0,-1.08,0.01,-0.03,0.0,0.9944847912361455,0.0,5.9826936386064844e-05,0.28,0,0,0.0
3.504582932000176,45,949.52,-102.2,5.3,-9.9,0.0,0.0,0.0,0.09,-0.97,-0.2,-126.3,0.0,3.0,-1.08,0.0,-0.18,0.0,0.9944847912361455,0.0,5.863039765829914e-05,0.28,0,0,0.0
3.513167833999887,46,949.53,-102.2,5.3,-9.9,0.0,0.0,0.0,0.09,-0.97,-0.2,-126.3,0.0,0.0,-1.08,0.0,0.03,0.0,0.9944847912361455,0.0,5.745778970511761e-05,0.28,0,0,0.0
3.524613873999897,47,949.54,-102.2,5.3,-9.9,0.03,0.0,0.0,0.09,-0.97,-0.2,-126.3,0.1,-3.0,-1.08,0.0,0.12,0.0,0.9944847912361455,0.03,5.6308633911039685e-05,0.28,0,0,0.0
3.533195398999851,48,949.55,-102.2,5.3,-9.9,0.05,0.0,0.01,0.09,-0.97,-0.2,-126.3,-0.1,-3.0,-1.08,0.01,-0.14,0.0,0.9944847912361455,0.050990195135927854,5.518246123281667e-05,0.28,0,0,0.0
3.544931722000001,49,949.56,-102.2,5.3,-9.9,0.05,0.0,0.0,0.09,-0.97,-0.21,-126.3,0.0,-4.0,-1.08,0.03,-0.18,0.0,0.9965440281292142,0.05,0.0020721309672154797,0.28,0,0,0.0
3.5531637929998396,50,949.57,-102.2,5.3,-9.9,0.04,0.0,0.0,0.09,-0.97,-0.21,-126.3,0.0,5.0,-1.08,-0.03,0.3,0.0,0.9965440281292142,0.04,0.0020306883478711235,0.28,0,0,0.0
3.5647019349999027,51,949.58,-102.2,5.3,-9.9,0.04,0.03,0.0,0.09,-0.97,-0.21,-126.3,0.0,-1.0,-1.08,0.0,0.21,0.0,0.9965440281292142,0.05,0.0019900745809137144,0.28,0,0,0.0
3.5731784380000136,52,949.59,-102.1,5.3,-9.9,0.06,0.04,0.0,0.09,-0.97,-0.2,-126.3,0.0,0.0,-1.08,0.0,0.0,0.0,0.9944847912361455,0.07211102550927978,6.777906591182159e-05,0.28,0,0,0.0
3.5847304550002264,53,949.6,-102.1,5.3,-9.9,0.05,0.0,0.0,0.09,-0.97,-0.2,-126.3,-0.1,-2.0,-1.08,0.01,0.18,0.0,0.9944847912361455,0.05,6.642348459362513e-05,0.28,0,0,0.0
3.5931644170000254,54,949.61,-102.1,5.3,-9.9,0.04,0.0,0.0,0.09,-0.97,-0.2,-126.3,0.2,4.0,-1.08,-0.01,0.18,0.0,0.9944847912361455,0.04,6.5095014901706e-05,0.28,0,0,0.0
3.604819785000018,55,949.62,-102.1,5.3,-9.9,0.05,0.0,0.0,0.09,-0.97,-0.21,-126.3,0.0,-1.0,-1.08,0.0,0.03,0.0,0.9965440281292142,0.05,0.0019542590406036453,0.28,0,0,0.0
3.6131644289998803,56,949.63,-102.1,5.3,-9.9,0.08,0.0,0.0,0.09,-0.97,-0.2,-126.3,-0.2,-1.0,-1.08,0.0,-0.21,0.0,0.9944847912361455,0.08,0.00010287829541566484,0.28,0,0,0.0
3.62470010800007,57,949.64,-102.1,5.3,-9.9,0.07,0.0,0.0,0.09,-0.97,-0.2,-126.3,-0.2,-3.0,-1.08,0.01,-0.02,0.0,0.9944847912361455,0.07,0.00010082072950734489,0.28,0,0,0.0
3.6332885980000356,58,949.65,-102.1,5.3,-9.9,0.06,0.0,0.0,0.09,-0.97,-0.2,-126.3,0.5,1.0,-1.08,0.0,-0.05,0.0,0.9944847912361455,0.06,9.88043149171558e-05,0.28,0,0,0.0
3.644675174999975,59,949.66,-102.1,5.3,-9.9,0.0,0.0,0.0,0.09,-0.97,-0.2,-126.3,-0.1,0.0,-1.08,0.0,-0.17,0.0,0.9944847912361455,0.0,9.682822861878382e-05,0.28,0,0,0.0
3.653159765000055,60,949.67,-102.1,5.3,-9.9,0.01,0.03,0.0,0.09,-0.97,-0.2,-126.3,-0.1,0.0,-1.08,0.0,0.0,0.0,0.9944847912361455,0.03162277660168379,9.48916640464148e-05,0.28,0,0,0.0
3.6648626280002645,61,949.68,-102.1,5.3,-9.9,0.02,0.03,0.0,0.09,-0.97,-0.2,-126.3,0.0,1.0,-1.08,0.0,-0.18,0.0,0.9944847912361455,0.03605551275463989,9.29938307654421e-05,0.28,0,0,0.0
3.673183074999997,62,949.69,-102.1,5.3,-9.9,0.01,0.03,0.0,0.09,-0.97,-0.2,-126.3,0.0,5.0,-1.08,-0.01,-0.08,0.0,0.9944847912361455,0.03162277660168379,9.113395415016878e-05,0.28,0,0,0.0
3.684694561000015,63,949.7,-102.1,5.3,-9.9,0.0,0.0,0.0,0.09,-0.97,-0.2,-126.3,0.1,-1.0,-1.08,0.0,-0.11,0.0,0.9944847912361455,0.0,8.931127506717207e-05,0.28,0,0,0.0
3.6931278319998455,64,949.71,-102.1,5.3,-9.9,0.0,0.0,0.0,0.09,-0.97,-0.2,-126.3,-0.1,0.0,-1.08,0.0,-0.05,0.0,0.9944847912361455,0.0,8.752504956588414e-05,0.28,0,0,0.0
3.704750116000014,65,949.72,-102.1,5.3,-9.9,0.0,0.0,0.0,0.09,-0.97,-0.2,-126.3,0.4,1.0,-1.08,0.0,0.03,0.0,0.9944847912361455,0.0,8.577454857461309e-05,0.28,0,0,0.0
3.713116196000101,66,949.73,-102.1,5.3,-9.9,0.04,0.04,0.03,0.09,-0.97,-0.21,-126.3,-0.2,2.0,-1.08,0.0,0.06,0.0,0.9965440281292142,0.06403124237432849,0.0019339930976041142,0.28,0,0,0.0
3.724621660000139,67,949.74,-102.1,5.3,-9.9,0.05,0.07,0.05,0.09,-0.97,-0.2,-126.3,-0.1,-4.0,-1.08,0.01,-0.05,0.0,0.9944847912361455,0.099498743710662,0.00012273891955527638,0.28,0,0,0.0
3.733169889000237,68,949.75,-102.1,5.3,-9.9,0.06,0.07,0.07,0.09,-0.97,-0.2,-126.3,0.1,5.0,-1.08,-0.02,0.0,0.0,0.9944847912361455,0.11575836902790226,0.00012028414116416197,0.28,0,0,0.0
3.744661846999861,69,949.76,-102.0,5.3,-9.9,0.05,0.09,0.07,0.08,-0.98,-0.2,-126.3,0.0,-1.0,-1.08,0.0,-0.17,0.0,1.0033942395688744,0.12449899597988733,0.008613380907733448,0.28,0,0,0.0
3.753140669000004,70,949.77,-102.0,5.3,-9.9,0.03,0.09,0.07,0.08,-0.98,-0.2,-126.3,0.0,-2.0,-1.08,0.0,0.21,0.0,1.0033942395688744,0.11789826122551596,0.00844111328957875,0.28,0,0,0.0
3.764984001999892,71,949.78,-102.0,5.3,-9.9,0.02,0.08,0.04,0.08,-0.98,-0.19,-126.3,0.1,0.0,-1.08,0.0,-0.08,0.0,1.0014489502715553,0.09165151389911681,0.006365907512414504,0.28,0,0,0.0
3.7731828870000754,72,949.79,-102.0,5.3,-9.9,0.01,0.05,0.02,0.08,-0.98,-0.2,-126.3,-0.1,0.0,-1.08,0.0,0.15,0.0,1.0033942395688744,0.05477225575051661,0.00814497287353888,0.28,0,0,0.0
3.7846903449999445,73,949.8,-102.0,5.2,-9.9,0.02,0.04,0.0,0.08,-0.97,-0.2,-126.3,0.0,7.0,-1.08,-0.02,-0.36,0.0,0.9936297097007516,0.044721359549995794,0.0015871658546922074,0.28,0,0,0.0
3.7931285590002517,74,949.81,-102.0,5.2,-9.8,0.05,0.02,0.01,0.09,-0.97,-0.19,-126.3,-0.2,-8.0,-1.08,0.02,-0.14,0.0,0.9925220400575495,0.05477225575051661,0.0026409387879363644,0.28,0,0,0.0
3.8043595469998763,75,949.82,-102.0,5.2,-9.8,0.09,0.0,0.03,0.08,-0.96,-0.19,-126.3,0.2,1.0,-1.08,0.0,-0.11,0.0,0.9818859404228171,0.09486832980505137,0.013011497654215387,0.28,0,0,0.0
3.813240511999993,76,949.83,-102.0,5.2,-9.8,0.09,-0.03,0.06,0.08,-0.97,-0.19,-126.3,0.0,3.0,-1.08,-0.01,0.21,0.0,0.9916652661054535,0.11224972160321824,0.0031675285321474123,0.28,0,0,0.0
3.8245816250000644,77,949.84,-102.0,5.2,-9.8,0.11,-0.05,0.08,0.08,-0.97,-0.19,-126.3,0.0,-5.0,-1.08,0.01,0.0,0.0,0.9916652661054535,0.14491376746189438,0.0031041779615044174,0.28,0,0,0.0
3.8333280820002074,78,949.85,-101.9,5.2,-9.9,0.13,-0.08,0.08,0.08,-0.98,-0.2,-126.3,0.1,2.0,-1.08,0.0,0.0,0.0,1.0033942395688744,0.17233687939614087,0.00845229959187821,0.28,0,0,0.0
3.845198225999866,79,949.86,-101.9,5.2,-9.9,0.15,-0.1,0.07,0.08,-0.98,-0.19,-126.3,-0.3,0.0,-1.08,0.0,-0.21,0.0,1.0014489502715553,0.19339079605813717,0.006376870088667941,0.28,0,0,0.0
3.8533271199999035,80,949.87,-101.9,5.2,-9.9,0.2,-0.12,0.07,0.08,-0.98,-0.2,-126.3,0.0,0.0,-1.08,0.0,-0.09,0.0,1.0033942395688744,0.24351591323771843,0.008155716198267271,0.28,0,0,0.0
3.864446786999906,81,949.88,-101.9,5.2,-9.9,0.25,-0.14,0.08,0.08,-0.97,-0.19,-126.3,0.0,-5.0,-1.08,0.02,-0.18,0.0,0.9916652661054535,0.29748949561287036,0.0035017921198505775,0.28,0,0,0.0
3.8728064000001723,82,949.89,-101.8,5.1,-9.9,0.3,-0.14,0.1,0.08,-0.97,-0.19,-126.3,0.2,3.0,-1.08,-0.01,0.21,0.0,0.9916652661054535,0.34583232931581165,0.0034317562774535126,0.28,0,0,0.0
3.884536318999835,83,949.9,-101.8,5.1,-9.9,0.28,-0.12,0.12,0.08,-0.96,-0.19,-126.3,-0.1,1.0,-1.08,0.0,-0.03,0.0,0.9818859404228171,0.327414110874898,0.012946860320888098,0.28,0,0,0.0
3.893367962999946,84,949.91,-101.8,5.1,-9.9,0.28,-0.1,0.13,0.09,-0.96,-0.2,-126.3,-0.1,-2.0,-1.08,0.0,0.15,0.0,0.984733466477097,0.32449961479175904,0.009897347581276028,0.28,0,0,0.0
3.9047207419998813,85,949.92,-101.8,5.1,-9.9,0.2,-0.08,0.12,0.08,-0.96,-0.19,-126.3,0.5,4.0,-1.08,-0.01,0.0,0.0,0.9818859404228171,0.24657656011875906,0.012489976162844862,0.28,0,0,0.0
3.9132083459999194,86,949.93,-101.7,5.1,-9.9,0.09,-0.07,0.12,0.08,-0.97,-0.19,-126.3,-0.2,-5.0,-1.08,0.01,-0.09,0.0,0.9916652661054535,0.16552945357246848,0.0026564374706042893,0.28,0,0,0.0
3.9246050010001454,87,949.94,-101.7,5.1,-9.9,0.05,-0.07,0.11,0.07,-0.98,-0.19,-126.3,0.3,3.0,-1.08,-0.01,0.06,0.0,1.00069975517135,0.1396424004376894,0.006250490563386335,0.28,0,0,0.0
3.933329402000254,88,949.95,-101.7,5.0,-9.9,0.06,-0.08,0.08,0.07,-0.98,-0.19,-126.3,0.0,-1.0,-1.08,0.0,0.0,0.0,1.00069975517135,0.12806248474865697,0.006125480752118606,0.28,0,0,0.0
3.9446586200001548,89,949.96,-101.7,5.0,-9.9,0.08,-0.1,0.08,0.07,-0.97,-0.19,-126.3,0.2,0.0,-1.08,0.0,0.27,0.0,0.9909086738948246,0.150996688705415,0.0035922885139185734,0.28,0,0,0.0
3.9532815440002196,90,949.97,-101.7,5.0,-10.0,0.11,-0.13,0.1,0.07,-0.97,-0.2,-126.3,-0.1,0.0,-1.08,0.0,0.15,0.0,0.9928746144403129,0.197484176581315,0.001593821009061691,0.28,0,0,0.0
3.964595895000002,91,949.98,-101.7,5.0,-10.0,0.09,-0.18,0.13,0.07,-0.97,-0.2,-126.3,0.1,-3.0,-1.08,0.0,-0.12,0.0,0.9928746144403129,0.23958297101421877,0.0015619445888804817,0.28,0,0,0.0
3.973284718999821,92,949.99,-101.7,5.0,-10.0,0.0,-0.2,0.17,0.06,-0.98,-0.2,-126.3,0.0,0.0,-1.08,0.0,0.21,0.0,1.0019980039900278,0.2624880949681338,0.007410216061617736,0.28,0,0,0.0
3.984725414999957,93,950.0,-101.7,4.9,-10.0,-0.07,-0.25,0.19,0.05,-0.99,-0.19,-126.3,0.3,6.0,-1.08,-0.03,0.18,0.0,1.0093066927351666,0.32171415884290827,0.014424526710621444,0.28,0,0,0.0
3.993270389999907,94,950.01,-101.7,4.9,-10.0,-0.07,-0.34,0.22,0.05,-1.0,-0.18,-126.3,0.5,0.0,-1.08,0.0,0.0,0.0,1.0173003489628811,0.41097445176069036,0.021969819279569203,0.28,0,0,0.0
4.004610584000147,95,950.02,-101.7,4.8,-10.1,0.02,-0.48,0.23,0.04,-1.01,-0.18,-126.3,0.5,-2.0,-1.08,0.0,0.17,0.0,1.0266937225872184,0.532634959423431,0.030735929045828336,0.28,0,0,0.0
4.013283033999869,96,950.03,-101.7,4.8,-10.1,0.13,-0.62,0.21,0.04,-1.02,-0.18,-126.2,0.2,3.0,-1.08,-0.02,0.11,0.0,1.0365326815879952,0.6673829485385434,0.039763390285672995,0.28,0,0,0.0
4.024491126000157,97,950.04,-101.6,4.7,-10.2,0.24,-0.74,0.18,0.04,-1.0,-0.19,-126.2,1.0,0.0,-1.08,-0.02,0.02,0.0,1.0186756107809787,0.7984985911070851,0.02146819308908343,0.28,0,0,0.0
4.033347559000049,98,950.05,-101.6,4.6,-10.2,0.26,-0.83,0.2,0.04,-0.99,-0.19,-126.2,1.0,1.0,-1.09,-0.03,-0.08,0.0,1.0088607436113273,0.892468486838611,0.011420259401043409,0.28,0,0,0.0
4.044612962999963,99,950.06,-101.6,4.6,-10.3,0.23,-0.9,0.24,0.05,-0.98,-0.2,-126.2,0.7,0.0,-1.09,-0.03,0.17,0.0,1.0014489502715553,0.9594269122762817,0.003928296740046022,0.28,0,0,0.0
4.053132650999942,100,950.07,-101.6,4.5,-10.4,0.16,-0.91,0.28,0.05,-0.98,-0.2,-126.2,0.5,-5.0,-1.09,0.0,-0.1,0.0,1.0014489502715553,0.9654532614269838,0.0038497308052450885,0.28,0,0,0.0
4.064663304000078,101,950.08,-101.6,4.5,-10.5,0.06,-0.9,0.36,0.04,-0.97,-0.2,-126.2,0.7,3.0,-1.09,-0.03,0.15,0.0,0.9912113800799505,0.9711848433743188,0.006260082598632533,0.28,0,0,0.0
4.073354661999929,102,950.09,-101.6,4.4,-10.6,-0.02,-0.89,0.43,0.05,-0.97,-0.2,-126.2,0.4,-3.0,-1.09,0.0,0.03,0.0,0.9916652661054535,0.9886354231970448,0.005690072641666988,0.28,0,0,0.0
4.0845769960001235,103,950.1,-101.6,4.3,-10.7,-0.02,-0.95,0.49,0.06,-0.98,-0.19,-126.2,1.0,4.0,-1.09,-0.03,-0.08,0.0,1.0000499987500624,1.0691117808723276,0.0026407668028830544,0.28,0,0,0.0
4.093337981999866,104,950.11,-101.6,4.2,-10.7,0.01,-1.01,0.52,0.05,-0.98,-0.19,-126.2,1.6,1.0,-1.09,-0.03,-0.08,0.0,0.9994998749374608,1.1360457737256893,0.002048830130475854,0.28,0,0,0.0
4.104703664000226,105,950.12,-101.6,4.2,-10.8,0.04,-1.09,0.55,0.05,-0.99,-0.19,-126.2,1.4,1.0,-1.09,-0.04,0.01,0.0,1.0093066927351666,1.22155638429014,0.011618534969617955,0.28,0,0,0.0
4.1133122979999825,106,950.13,-101.6,4.1,-10.9,0.12,-1.15,0.54,0.04,-0.99,-0.18,-126.1,3.3,14.0,-1.09,-0.11,-0.07,0.0,1.0070253224224304,1.2761269529321915,0.00915042136374411,0.28,0,0,0.0
4.124661920000108,107,950.14,-101.6,4.0,-11.0,0.2,-1.2,0.52,0.03,-0.99,-0.19,-126.1,3.0,-4.0,-1.09,-0.06,-0.07,0.0,1.0085137579626764,1.3230268326832981,0.010426079765910368,0.28,0,0,0.0
4.133345629999894,108,950.15,-101.5,3.9,-11.1,0.22,-1.23,0.52,0.03,-0.98,-0.19,-126.1,1.1,-9.0,-1.09,-0.03,-0.07,0.0,0.9986991538997116,1.3534031180694095,0.0005992461888867373,0.28,0,0,0.0
4.144702689000042,109,950.16,-101.5,3.8,-11.3,0.24,-1.26,0.52,0.03,-0.97,-0.18,-126.1,0.0,-10.0,-1.09,0.0,-0.15,0.0,0.9870157040290696,1.3840520221436765,0.010862519608120236,0.28,0,0,0.0
4.1533425309999075,110,950.17,-101.5,3.7,-11.4,0.23,-1.31,0.5,0.03,-0.97,-0.19,-126.1,-0.1,-4.0,-1.09,0.0,0.0,0.0,0.9888882646689665,1.420915198032592,0.008810159788858796,0.28,0,0,0.0
4.164935102000072,111,950.18,-101.5,3.6,-11.5,0.23,-1.34,0.48,0.04,-0.97,-0.19,-126.1,0.4,1.0,-1.09,0.0,0.0,0.0,0.9892421341612982,1.44183910336764,0.008287164490596521,0.28,0,0,0.0
4.173242630999994,112,950.19,-101.5,3.5,-11.6,0.24,-1.35,0.43,0.04,-0.98,-0.19,-126.1,0.0,-2.0,-1.09,0.0,0.07,0.0,0.9990495483208027,1.4370107863199915,0.0014898446755298167,0.28,0,0,0.0
4.184692817000268,113,950.2,-101.4,3.4,-11.7,0.29,-1.36,0.37,0.05,-0.98,-0.19,-126.1,0.2,0.0,-1.09,0.0,-0.08,0.0,0.9994998749374608,1.4389579563003223,0.0019013678663442057,0.28,0,0,0.0
4.193291238000256,114,950.21,-101.4,3.4,-11.9,0.32,-1.37,0.31,0.05,-0.98,-0.19,-126.1,0.4,1.0,-1.09,0.0,0.0,0.0,0.9994998749374608,1.4406248644251562,0.001863340509017375,0.28,0,0,0.0
4.204617852999945,115,950.22,-101.4,3.3,-12.0,0.26,-1.34,0.27,0.06,-0.97,-0.19,-126.1,0.2,-2.0,-1.09,0.0,0.0,0.0,0.9902524930541705,1.3914381049834736,0.007236360546787446,0.28,0,0,0.0
4.213248914999895,116,950.23,-101.4,3.3,-12.1,0.29,-1.31,0.23,0.04,-0.97,-0.19,-126.1,0.3,0.0,-1.09,0.0,0.06,0.0,0.9892421341612982,1.3612861565446113,0.008081785050866541,0.28,0,0,0.0
4.22463008800014,117,950.24,-101.3,3.2,-12.2,0.35,-1.29,0.16,0.03,-0.97,-0.19,-126.1,-0.1,-3.0,-1.09,0.0,0.0,0.0,0.9888882646689665,1.3461797799699713,0.008266941452334309,0.28,0,0,0.0
4.233237920000192,118,950.25,-101.3,3.2,-12.4,0.33,-1.29,0.11,0.02,-0.97,-0.18,-126.1,0.0,2.0,-1.09,0.0,-0.06,0.0,0.9867623827447011,1.3360763451240352,0.010184966909067783,0.28,0,0,0.0
4.2446313099999315,119,950.26,-101.3,3.1,-12.5,0.28,-1.32,0.05,0.02,-0.97,-0.18,-126.1,0.4,1.0,-1.09,0.0,0.0,0.0,0.9867623827447011,1.3502962637880622,0.009981267570886465,0.28,0,0,0.0
4.253246858000239,120,950.27,-101.3,3.1,-12.6,0.25,-1.37,0.01,0.01,-0.98,-0.18,-126.1,0.4,-1.0,-1.09,0.0,-0.08,0.0,0.9964436762808021,1.3926593266122194,0.0002939745540897487,0.28,0,0,0.0
4.264629132000209,121,950.28,-101.2,3.0,-12.8,0.32,-1.38,-0.02,0.01,-0.98,-0.18,-126.1,0.5,2.0,-1.09,-0.02,-0.15,0.0,0.9964436762808021,1.4167568598739868,0.00028809506300797594,0.28,0,0,0.0
4.273214115999963,122,950.29,-101.2,3.0,-12.9,0.39,-1.4,-0.08,0.01,-0.98,-0.18,-126.0,1.6,5.0,-1.09,-0.03,-0.08,0.0,0.9964436762808021,1.455506784594287,0.00028233316174786083,0.28,0,0,0.0
4.284592812000028,123,950.3,-101.1,2.9,-13.0,0.44,-1.42,-0.16,0.01,-0.98,-0.17,-126.0,1.7,5.0,-1.09,-0.06,-0.05,0.0,0.9946858800646564,1.4951922953252534,0.0019993267903356537,0.28,0,0,0.0
4.293282510000154,124,950.31,-101.1,2.9,-13.2,0.4,-1.44,-0.23,0.0,-0.98,-0.18,-126.0,3.5,17.0,-1.09,-0.12,0.01,0.0,0.996393496566492,1.5121177202850313,0.00028587608273000775,0.28,0,0,0.0
4.304519922000054,125,950.32,-101.1,2.9,-13.3,0.37,-1.49,-0.35,0.0,-0.98,-0.18,-125.9,6.1,27.0,-1.09,-0.22,-0.12,0.0,0.996393496566492,1.5746428166412851,0.0002801585610754387,0.28,0,0,0.0
4.313152414999877,126,950.33,-101.0,2.9,-13.5,0.32,-1.52,-0.44,0.0,-0.98,-0.19,-125.9,9.4,27.0,-1.1,-0.28,0.14,0.0,0.9982484660644363,1.614434885648845,0.0015433147181315165,0.28,0,0,0.0
4.324627930000133,127,950.34,-101.0,2.8,-13.7,0.27,-1.55,-0.51,0.0,-0.98,-0.18,-125.7,13.5,48.0,-1.1,-0.45,0.02,0.0,0.996393496566492,1.653934702459562,0.0003054216842165447,0.28,0,0,0.0
4.3331660950002515,128,950.35,-101.0,2.8,-13.8,0.34,-1.6,-0.58,0.0,-1.0,-0.19,-125.6,18.9,32.0,-1.11,-0.51,0.07,0.0,1.0178899744078433,1.735511451993331,0.020767235033992137,0.28,0,0,0.0
4.344739416000266,129,950.36,-101.0,2.8,-14.0,0.39,-1.62,-0.62,0.0,-1.01,-0.19,-125.4,19.0,7.0,-1.11,-0.5,-0.05,0.0,1.0277159140540737,1.7778920102188436,0.029981311186618065,0.28,0,0,0.0
4.353262989000086,130,950.37,-100.9,2.8,-14.2,0.51,-1.65,-0.67,0.0,-1.02,-0.19,-125.2,20.7,22.0,-1.12,-0.59,-0.22,0.0,1.0375451797391764,1.8524308354159946,0.03901436533428637,0.28,0,0,0.0
4.364498903999902,131,950.38,-100.9,2.9,-14.3,0.72,-1.67,-0.72,0.01,-1.01,-0.19,-124.9,23.2,17.0,-1.12,-0.64,-0.16,0.0,1.0277645644796283,1.9559396718712976,0.028649075073243546,0.28,0,0,0.0
4.373253630999898,132,950.39,-100.8,2.9,-14.5,0.86,-1.74,-0.75,0.01,-0.99,-0.18,-124.7,25.6,26.0,-1.13,-0.74,-0.01,0.0,1.0062802790475425,2.0807931180201455,0.0070214938483346145,0.28,0,0,0.0
4.38470257400013,133,950.4,-100.7,2.9,-14.7,0.91,-1.82,-0.79,0.01,-0.98,-0.18,-124.4,26.0,0.0,-1.14,-0.68,0.07,0.0,0.9964436762808021,2.18279637162975,0.0027588067400375893,0.28,0,0,0.0
4.393245254000249,134,950.41,-100.6,2.9,-14.9,0.84,-1.91,-0.84,0.01,-0.97,-0.17,-124.2,24.8,-6.0,-1.14,-0.65,-0.02,0.0,0.9848350115628506,2.2492887764802454,0.014080122028829356,0.28,0,0,0.0
4.404632308000146,135,950.42,-100.6,2.9,-15.1,0.73,-2.01,-0.92,0.01,-0.97,-0.18,-124.0,20.9,-27.0,-1.15,-0.54,-0.11,0.0,0.986610358753647,2.3279604807642245,0.01205867934127225,0.28,0,0,0.0
4.413185462000001,136,950.43,-100.5,3.0,-15.4,0.68,-2.08,-0.97,0.0,-0.97,-0.18,-123.8,18.2,-25.0,-1.15,-0.47,-0.1,0.0,0.9865596788841514,2.39367917649797,0.01186717202655252,0.28,0,0,0.0
4.424709215999883,137,950.44,-100.5,3.0,-15.6,0.66,-2.19,-1.04,0.0,-0.97,-0.18,-123.6,15.4,-31.0,-1.16,-0.37,0.16,0.0,0.9865596788841514,2.5126281061868267,0.011629828586021462,0.28,0,0,0.0
4.4332633570002145,138,950.45,-100.4,3.0,-15.8,0.71,-2.3,-1.1,0.0,-0.97,-0.17,-123.5,15.1,4.0,-1.16,-0.45,0.07,0.0,0.9847842403288144,2.646526024810638,0.013137161798531305,0.28,0,0,0.0
4.444727952999983,139,950.46,-100.3,3.1,-16.1,0.74,-2.43,-1.16,0.0,-0.96,-0.17,-123.3,17.0,9.0,-1.17,-0.48,0.05,0.0,0.9749358953285082,2.7925078334715554,0.022525796662860698,0.28,0,0,0.0
4.453259295999942,140,950.47,-100.3,3.1,-16.3,0.79,-2.52,-1.26,0.0,-0.97,-0.17,-123.1,17.3,2.0,-1.17,-0.47,-0.13,0.0,0.9847842403288144,2.9261066282690384,0.012423902629303374,0.28,0,0,0.0
4.464506664000055,141,950.48,-100.2,3.2,-16.6,0.77,-2.64,-1.36,0.0,-0.96,-0.16,-122.9,18.9,4.0,-1.18,-0.49,0.03,0.0,0.9732420048477152,3.0679146011582525,0.023486815348194523,0.28,0,0,0.0
4.473271176000253,142,950.49,-100.1,3.3,-16.9,0.7,-2.73,-1.44,0.0,-0.96,-0.16,-122.8,17.7,0.0,-1.18,-0.49,-0.12,0.0,0.9732420048477152,3.164885463962322,0.023017079041230626,0.28,0,0,0.0
4.484631534000073,143,950.5,-100.1,3.3,-17.2,0.76,-2.82,-1.56,0.0,-0.96,-0.16,-122.6,20.2,26.0,-1.19,-0.61,-0.18,0.0,0.9732420048477152,3.3111327366929886,0.022556737460405984,0.28,0,0,0.0
4.493219725000017,144,950.51,-100.0,3.4,-17.5,0.74,-2.89,-1.64,0.01,-0.96,-0.12,-122.3,22.2,10.0,-1.19,-0.59,-0.01,0.0,0.9675226095549395,3.4043060966957714,0.027710610098118038,0.28,0,0,0.0
4.504728796000109,145,950.52,-99.9,3.5,-17.8,0.1,-3.12,-1.51,0.05,-1.0,-0.05,-122.1,24.3,33.0,-1.2,-0.73,0.07,0.0,1.002496882788171,3.4676360824054187,0.007118389872411202,0.28,0,0,0.0
4.51319839100006,146,950.53,-99.9,3.6,-18.2,-0.75,-3.24,-1.24,0.13,-1.1,-0.13,-121.8,27.8,21.0,-1.21,-0.76,-0.02,0.0,1.1152578177264663,3.5493238792761646,0.11748173831449227,0.28,0,0,0.0
4.524685278000106,147,950.54,-100.0,3.7,-18.5,-0.57,-3.17,-1.04,0.18,-1.16,-0.22,-121.5,29.2,16.0,-1.22,-0.8,0.07,0.0,1.1943198901466892,3.3845826921498015,0.19261293452002093,0.28,0,0,0.0
4.533238440999867,148,950.55,-100.1,3.8,-18.8,0.81,-2.85,-0.86,0.19,-1.15,-0.2,-121.3,25.6,-28.0,-1.22,-0.64,0.12,0.0,1.1826242006656214,3.0851580186434537,0.17729890013817395,0.28,0,0,0.0
4.544605194000269,149,950.56,-99.9,3.8,-19.1,2.4,-2.77,-0.62,0.19,-1.07,-0.14,-121.0,22.0,-30.0,-1.23,-0.54,-0.1,0.0,1.0957189420649804,3.7171628966188717,0.08858576870678236,0.28,0,0,0.0
4.553237662999891,150,950.57,-99.6,3.9,-19.4,3.23,-2.5,-0.36,0.14,-0.97,-0.15,-120.9,18.6,-26.0,-1.23,-0.48,-0.06,0.0,0.9914635646356349,4.100304866714182,0.015356216548111812,0.28,0,0,0.0
4.564715524999883,151,950.58,-99.3,3.9,-19.6,2.81,-2.33,-0.23,0.09,-0.91,-0.14,-120.7,17.3,-11.0,-1.24,-0.48,-0.01,0.0,0.9250945897582582,3.657581167930522,0.0800906875969788,0.28,0,0,0.0
4.573247540000011,152,950.59,-99.1,3.9,-19.9,1.85,-2.19,-0.19,0.04,-0.9,-0.11,-120.5,18.2,4.0,-1.24,-0.51,-0.14,0.0,0.9075791976461338,2.873099371758659,0.09565395811492117,0.28,0,0,0.0
4.5845749210002396,153,950.6,-98.9,3.8,-20.1,0.91,-2.24,-0.18,0.0,-0.9,-0.08,-120.3,22.4,32.0,-1.25,-0.65,-0.05,0.0,0.9035485598461214,2.424479325546003,0.09769090399663505,0.28,0,0,0.0
4.593246931000067,154,950.61,-98.9,3.8,-20.3,0.36,-2.45,-0.15,-0.04,-0.94,-0.08,-120.0,25.1,28.0,-1.26,-0.73,-0.03,0.0,0.9442457307290301,2.4808466296810856,0.05585385845145174,0.28,0,0,0.0
4.604720592999911,155,950.62,-98.9,3.8,-20.6,0.28,-2.73,-0.18,-0.07,-0.96,-0.09,-119.8,28.0,20.0,-1.26,-0.76,0.12,0.0,0.9667471230885561,2.750218173163722,0.03268541677008718,0.28,0,0,0.0
4.613117202000012,156,950.63,-98.9,3.7,-20.9,0.26,-3.04,-0.22,-0.09,-0.98,-0.1,-119.5,29.3,18.0,-1.27,-0.8,0.03,0.0,0.9891915891272024,3.0590194507390764,0.010036131716812169,0.28,0,0,0.0
4.624714186999881,157,950.64,-98.9,3.7,-21.2,0.34,-3.36,-0.19,-0.11,-0.99,-0.11,-119.2,29.5,3.0,-1.28,-0.8,0.01,0.0,1.0021476937058729,3.3824990761269986,0.0028615734046211205,0.28,0,0,0.0
4.63333744900001,158,950.65,-98.8,3.7,-21.5,0.55,-3.7,-0.13,-0.11,-1.0,-0.11,-118.9,29.6,-3.0,-1.29,-0.77,0.27,0.0,1.01202766760598,3.742913303831656,0.012486716358633743,0.28,0,0,0.0
4.644496720999996,159,950.66,-98.8,3.6,-21.9,0.76,-4.05,-0.05,-0.07,-1.01,-0.11,-118.6,27.0,-12.0,-1.3,-0.72,-0.11,0.0,1.0183810681665286,4.12099502547625,0.01846331458079864,0.28,0,0,0.0
4.653219927000009,160,950.67,-98.7,3.5,-22.3,0.86,-4.29,0.1,-0.01,-1.02,-0.13,-118.4,24.0,-40.0,-1.3,-0.56,0.15,0.0,1.0282995672468214,4.376494030614003,0.02781417738786951,0.28,0,0,0.0
4.664745571999902,161,950.68,-98.7,3.4,-22.8,0.95,-4.36,0.28,0.03,-1.03,-0.14,-118.1,20.3,-23.0,-1.31,-0.54,-0.02,0.0,1.0399038417084534,4.471073696552093,0.03863008281251146,0.28,0,0,0.0
4.673086414999943,162,950.69,-98.6,3.3,-23.2,1.23,-4.29,0.39,0.08,-1.05,-0.15,-117.9,20.1,-15.0,-1.31,-0.51,0.02,0.0,1.0636728820459793,4.4798549083647785,0.06115114068703664,0.28,0,0,0.0
4.684503125999981,163,950.7,-98.5,3.2,-23.6,1.59,-4.17,0.44,0.11,-1.04,-0.14,-117.7,19.2,-6.0,-1.32,-0.51,0.01,0.0,1.0551303237041385,4.484484362777955,0.05155641069829198,0.28,0,0,0.0
4.693246501999965,164,950.71,-98.3,3.2,-24.0,1.97,-4.07,0.38,0.14,-1.02,-0.14,-117.6,19.3,-3.0,-1.32,-0.51,0.1,0.0,1.039038016628843,4.5376425597439916,0.03475482155053666,0.28,0,0,0.0
4.704618234999998,165,950.72,-98.1,3.1,-24.4,2.27,-3.92,0.28,0.16,-1.0,-0.14,-117.4,20.2,20.0,-1.33,-0.61,-0.14,0.0,1.0223502335305648,4.538468904818011,0.017705697683213062,0.28,0,0,0.0
4.713177514000108,166,950.73,-97.9,3.1,-24.8,2.4,-3.86,0.0,0.15,-0.97,-0.12,-117.1,24.7,29.0,-1.34,-0.7,0.08,0.0,0.9888377015466188,4.545283269500373,0.015490697614718218,0.28,0,0,0.0
4.724622798999917,167,950.74,-97.7,3.1,-25.2,2.27,-3.89,-0.29,0.12,-0.94,-0.1,-116.8,30.3,51.0,-1.34,-0.89,-0.15,0.0,0.9528903399657276,4.513213932443265,0.050409298011697246,0.28,0,0,0.0
4.7333238360001815,168,950.75,-97.5,3.2,-25.6,1.96,-3.92,-0.55,0.1,-0.94,-0.1,-116.5,35.9,64.0,-1.35,-1.08,-0.07,0.0,0.9505787710652915,4.417069164049845,0.05166644957389055,0.28,0,0,0.0
4.744597009000245,169,950.76,-97.3,3.2,-26.0,1.8,-3.88,-0.8,0.08,-0.95,-0.12,-116.1,41.3,46.0,-1.37,-1.16,0.06,0.0,0.9608850087289321,4.351367601111172,0.04053300767204504,0.28,0,0,0.0
4.753159848999985,170,950.77,-97.1,3.3,-26.4,1.85,-3.88,-0.98,0.05,-0.95,-0.1,-115.7,44.5,39.0,-1.38,-1.26,-0.04,0.0,0.9565563234854495,4.408775340159669,0.04396445905721702,0.28,0,0,0.0
4.764683777999835,171,950.78,-97.0,3.3,-26.8,1.89,-3.98,-1.02,0.03,-0.94,-0.09,-115.2,48.8,41.0,-1.39,-1.38,-0.06,0.0,0.9447751055145346,4.522488253163296,0.054630763487569345,0.28,0,0,0.0
4.7732046219998665,172,950.79,-96.8,3.3,-27.2,2.0,-4.13,-0.97,0.0,-0.94,-0.07,-114.7,54.1,52.0,-1.41,-1.54,-0.14,0.0,0.9426027795418386,4.690181233172125,0.05566702767106002,0.28,0,0,0.0
4.784847365000132,173,950.8,-96.6,3.3,-27.6,2.19,-4.39,-0.88,0.0,-0.95,-0.07,-114.1,61.3,73.0,-1.42,-1.77,-0.04,0.0,0.9525754563287887,4.984235146940802,0.044780463866427644,0.28,0,0,0.0
4.793239991000064,174,950.81,-96.3,3.3,-28.1,2.5,-4.67,-0.83,0.0,-0.97,-0.06,-113.4,69.5,73.0,-1.44,-1.97,-0.02,0.0,0.9718538984847466,5.361697492399212,0.024991981276260344,0.28,0,0,0.0
4.804655708000155,175,950.82,-96.1,3.3,-28.6,2.78,-4.96,-0.82,0.01,-0.97,-0.08,-112.7,76.4,64.0,-1.46,-2.13,-0.01,0.0,0.973344748791506,5.7447715359272555,0.023031108350110907,0.28,0,0,0.0
4.81317187500008,176,950.83,-95.8,3.4,-29.1,2.98,-5.23,-0.8,0.04,-0.98,-0.08,-111.9,81.4,56.0,-1.49,-2.28,0.04,0.0,0.9840731680114034,6.072338923347412,0.012056635347609257,0.28,0,0,0.0
4.824685888000204,177,950.84,-95.5,3.4,-29.6,3.12,-5.42,-0.8,0.09,-0.98,-0.1,-111.0,86.4,44.0,-1.51,-2.38,-0.11,0.0,0.9891915891272024,6.304823550266891,0.006799449947174074,0.28,0,0,0.0
4.8332314720000795,178,950.85,-95.2,3.5,-30.2,3.22,-5.55,-0.8,0.14,-0.99,-0.12,-110.1,88.5,26.0,-1.53,-2.43,-0.06,0.0,1.0070253224224304,6.466134857857513,0.010813597681092801,0.28,0,0,0.0
4.84475916700012,179,950.86,-95.0,3.5,-30.7,3.22,-5.57,-0.85,0.17,-1.0,-0.13,-109.2,88.7,4.0,-1.56,-2.41,-0.01,0.0,1.0226436329435586,6.489668712653983,0.025903270038176607,0.28,0,0,0.0
4.853246549000232,180,950.87,-94.7,3.6,-31.3,3.13,-5.51,-0.96,0.18,-1.01,-0.13,-108.3,89.0,2.0,-1.58,-2.41,-0.06,0.0,1.034117981663601,6.409258927520404,0.03663006638305466,0.28,0,0,0.0
4.864408756000103,181,950.88,-94.4,3.7,-31.9,2.85,-5.41,-1.1,0.16,-1.03,-0.13,-107.5,89.9,24.0,-1.61,-2.51,-0.12,0.0,1.0504284840006957,6.212938113324484,0.05188175734574629,0.28,0,0,0.0
4.873180523999963,182,950.89,-94.2,3.8,-32.4,2.41,-5.27,-1.3,0.14,-1.07,-0.12,-106.5,98.9,82.0,-1.63,-2.83,-0.02,0.0,1.0857716150277645,5.938939299235175,0.08548039060535895,0.28,0,0,0.0
4.884740560999944,183,950.9,-94.1,3.9,-32.9,2.14,-5.13,-1.57,0.12,-1.11,-0.13,-105.4,110.2,86.0,-1.66,-3.08,-0.09,0.0,1.1240106761058812,5.775932825094142,0.12124506264980606,0.28,0,0,0.0
4.893169535000197,184,950.91,-93.9,4.1,-33.5,1.92,-4.98,-1.83,0.11,-1.15,-0.13,-104.3,116.1,63.0,-1.7,-3.21,0.0,0.0,1.162540321881353,5.642313355353458,0.15657921425677235,0.28,0,0,0.0
4.90465992899999,185,950.92,-93.8,4.3,-34.0,1.99,-4.86,-2.11,0.09,-1.18,-0.12,-103.1,122.9,67.0,-1.73,-3.41,0.18,0.0,1.1894956914591999,5.65966430099878,0.17986389215792675,0.28,0,0,0.0
4.913221625999995,186,950.93,-93.7,4.4,-34.5,2.19,-4.89,-2.36,0.08,-1.16,-0.11,-101.8,129.0,59.0,-1.77,-3.56,0.0,0.0,1.167946916601949,5.854724587886265,0.15514881495466226,0.28,0,0,0.0
4.9245374030001585,187,950.94,-93.5,4.7,-35.0,2.42,-5.05,-2.54,0.07,-1.12,-0.09,-100.5,135.6,67.0,-1.8,-3.76,0.0,0.0,1.1257886124845997,6.14902431284834,0.11073070062056689,0.28,0,0,0.0
4.933236717,188,950.95,-93.3,4.9,-35.5,2.67,-5.26,-2.63,0.08,-1.05,-0.09,-99.1,142.0,60.0,-1.84,-3.92,-0.11,0.0,1.0568822072492279,6.458591177648574,0.040987809477491144,0.28,0,0,0.0
4.944567374000144,189,950.96,-93.1,5.1,-36.1,2.69,-5.43,-2.65,0.09,-0.98,-0.1,-97.6,146.5,38.0,-1.88,-4.0,-0.22,0.0,0.9891915891272024,6.613886905594923,0.02616875247164374,0.28,0,0,0.0
4.957220197999959,190,950.97,-92.9,5.4,-36.6,2.48,-5.55,-2.6,0.11,-0.93,-0.12,-96.1,144.6,-1.0,-1.92,-3.92,0.12,0.0,0.9441398201537736,6.6115731864662886,0.06979611101617111,0.28,0,0,0.0
4.9653219659999195,191,950.98,-92.8,5.6,-37.2,2.15,-5.58,-2.52,0.13,-0.9,-0.15,-94.6,140.0,-44.0,-1.96,-3.7,0.03,0.0,0.9216289925995167,6.4891678973501685,0.09046079979901944,0.28,0,0,0.0
4.97336859699999,192,950.99,-92.6,5.8,-37.8,1.81,-5.53,-2.4,0.15,-0.88,-0.17,-93.3,132.9,-65.0,-2.0,-3.5,0.08,0.0,0.9087353850269065,6.294203682754476,0.10128731922419709,0.28,0,0,0.0
4.984737660000064,193,951.0,-92.5,6.0,-38.4,1.58,-5.45,-2.26,0.18,-0.88,-0.18,-92.3,126.4,-93.0,-2.03,-3.3,-0.05,0.0,0.9160785992479029,6.107904714384468,0.09206522290313679,0.28,0,0,0.0
4.993221389000155,194,951.01,-92.4,6.2,-38.9,1.48,-5.35,-2.09,0.21,-0.9,-0.18,-90.9,116.0,-99.0,-2.06,-3.02,0.07,0.0,0.941541289588513,5.931357348870493,0.06527048191127605,0.28,0,0,0.0
5.004749882999931,195,951.02,-92.3,6.4,-39.4,1.46,-5.24,-1.96,0.23,-0.92,-0.19,-89.8,105.9,-97.0,-2.09,-2.75,-0.09,0.0,0.9671607932500159,5.781937391566948,0.038857958684777705,0.28,0,0,0.0
5.013353014000131,196,951.03,-92.3,6.6,-40.0,1.45,-5.09,-1.8,0.24,-0.93,-0.19,-88.8,94.8,-109.0,-2.11,-2.44,0.12,0.0,0.9790812019439451,5.590223609123342,0.02639879899103159,0.28,0,0,0.0
5.02458412399983,197,951.04,-92.2,6.7,-40.5,1.58,-4.91,-1.6,0.25,-0.92,-0.19,-88.0,85.4,-84.0,-2.14,-2.25,0.05,0.0,0.972111104761179,5.400416650592804,0.03270151825032164,0.28,0,0,0.0
5.033303115999843,198,951.05,-92.1,6.9,-41.0,1.74,-4.67,-1.4,0.26,-0.91,-0.2,-87.1,78.5,-85.0,-2.16,-2.0,0.07,0.0,0.9673158739522474,5.176533589188812,0.036746814078068235,0.28,0,0,0.0
5.044526356000006,199,951.06,-91.9,7.0,-41.4,1.84,-4.32,-1.2,0.26,-0.91,-0.2,-86.4,69.7,-86.0,-2.18,-1.79,-0.03,0.0,0.9673158739522474,4.846441993875508,0.03601187779650683,0.28,0,0,0.0
5.053264884999862,200,951.07,-91.8,7.1,-41.8,1.82,-3.91,-1.03,0.27,-0.91,-0.2,-85.8,63.5,-53.0,-2.19,-1.7,0.1,0.0,0.970051545022222,4.434117725094813,0.032610682592001616,0.28,0,0,0.0
5.064807099000063,201,951.08,-91.7,7.1,-42.2,1.74,-3.43,-0.92,0.27,-0.91,-0.2,-85.1,62.5,-22.0,-2.21,-1.69,0.03,0.0,0.970051545022222,3.9546049107338144,0.03195846894016152,0.28,0,0,0.0
5.073286262000238,202,951.09,-91.5,7.2,-42.5,1.65,-2.9,-0.81,0.28,-0.89,-0.21,-84.5,61.1,-22.0,-2.23,-1.63,-0.02,0.0,0.9563472172804185,3.4334530723456815,0.04474954074832571,0.28,0,0,0.0
5.084479567000017,203,951.1,-91.4,7.3,-42.8,1.52,-2.38,-0.69,0.28,-0.89,-0.2,-83.9,59.3,-16.0,-2.24,-1.6,0.11,0.0,0.9542012366372201,2.907043171334062,0.04595761096369366,0.28,0,0,0.0
5.093265364000217,204,951.11,-91.3,7.4,-43.0,1.4,-1.88,-0.6,0.28,-0.89,-0.19,-83.3,58.6,-16.0,-2.26,-1.55,-0.21,0.0,0.9521554494934112,2.419586741573858,0.04704333014535245,0.28,0,0,0.0
5.10461599700011,205,951.12,-91.2,7.4,-43.2,1.26,-1.45,-0.49,0.27,-0.87,-0.19,-82.8,55.6,-21.0,-2.27,-1.49,0.06,0.0,0.9305374790947434,1.982473202845375,0.0672880745331399,0.28,0,0,0.0
5.11318111699984,206,951.13,-91.1,7.4,-43.3,1.01,-1.12,-0.35,0.27,-0.86,-0.17,-82.2,51.9,-37.0,-2.29,-1.35,0.2,0.0,0.9172785836374902,1.5482247898803327,0.0789360305905853,0.28,0,0,0.0
5.124622717999955,207,951.14,-91.0,7.5,-43.4,0.91,-0.77,-0.2,0.27,-0.85,-0.18,-81.8,44.1,-79.0,-2.3,-1.03,0.0,0.0,0.9098351499035415,1.2087183294713455,0.08465187503804328,0.28,0,0,0.0
5.133315276999838,208,951.15,-90.9,7.5,-43.5,0.74,-0.51,0.01,0.26,-0.83,-0.17,-81.4,30.4,-126.0,-2.31,-0.65,0.0,0.0,0.886227961644181,0.8987769467448528,0.10609388203145564,0.28,0,0,0.0
5.144518344000062,209,951.16,-90.9,7.5,-43.5,0.56,-0.23,0.31,0.26,-0.81,-0.19,-81.2,15.2,-152.0,-2.31,-0.16,-0.01,0.0,0.8716650732936362,0.6801470429252781,0.11824363497436052,0.28,0,0,0.0
5.153150065999853,210,951.17,-90.8,7.4,-43.5,0.31,0.07,0.62,0.25,-0.81,-0.2,-81.2,-1.6,-137.0,-2.31,0.14,-0.07,0.0,0.8709764635166671,0.6967065379340143,0.11655359985630298,0.28,0,0,0.0
5.164697249000255,211,951.18,-90.8,7.3,-43.5,0.04,0.4,0.93,0.26,-0.8,-0.22,-81.2,-3.1,-25.0,-2.31,0.02,-0.03,0.0,0.8694826047713664,1.0131633629380803,0.1156865094295716,0.28,0,0,0.0
5.173189012999956,212,951.19,-90.8,7.2,-43.4,-0.28,0.82,1.21,0.27,-0.82,-0.23,-81.2,0.5,-1.0,-2.31,0.0,-0.03,0.0,0.8934203937676819,1.4882540105774955,0.08991374602459101,0.28,0,0,0.0
5.184721268999965,213,951.2,-90.8,7.1,-43.3,-0.49,1.31,1.45,0.29,-0.84,-0.24,-81.2,-2.1,-23.0,-2.31,0.09,0.14,0.0,0.9204890004774635,2.014621552550255,0.061588236528513196,0.28,0,0,0.0
5.193305950000195,214,951.21,-90.9,6.9,-43.1,-0.65,1.82,1.63,0.28,-0.88,-0.23,-81.3,-5.1,-27.0,-2.31,0.17,0.0,0.0,0.9516827202382104,2.5282009413810447,0.029786626432410923,0.28,0,0,0.0
5.204614216000209,215,951.22,-90.9,6.8,-42.9,-0.87,2.2,1.76,0.28,-0.9,-0.2,-81.4,-10.6,-53.0,-2.3,0.36,0.0,0.0,0.9635351576356724,2.9486437560342895,0.01757550525424989,0.28,0,0,0.0
5.213287133999984,216,951.23,-91.0,6.6,-42.7,-0.94,2.57,1.86,0.26,-0.91,-0.18,-81.5,-20.6,-108.0,-2.3,0.77,0.16,0.0,0.9633794683301072,3.3087913201046693,0.01737657066861875,0.28,0,0,0.0
5.224521856000138,217,951.24,-91.0,6.4,-42.4,-1.0,2.87,1.93,0.23,-0.93,-0.18,-81.8,-34.2,-113.0,-2.29,1.07,0.27,0.0,0.9747820269167873,3.600249991320047,0.005854531840299937,0.28,0,0,0.0
5.233217216999947,218,951.25,-91.1,6.2,-42.1,-1.04,3.06,2.02,0.22,-0.92,-0.16,-82.2,-46.4,-122.0,-2.28,1.4,0.09,0.0,0.9593747964169165,3.811246515249309,0.020836527093367363,0.28,0,0,0.0
5.244583227000021,219,951.26,-91.2,6.0,-41.8,-1.05,3.29,2.15,0.2,-0.91,-0.17,-82.8,-60.4,-142.0,-2.26,1.86,0.12,0.0,0.947100839404126,4.068058504987361,0.03244827442403464,0.28,0,0,0.0
5.25325461500006,220,951.27,-91.3,5.8,-41.4,-1.09,3.51,2.33,0.19,-0.9,-0.17,-83.5,-76.9,-166.0,-2.24,2.31,0.14,0.0,0.9354143466934854,4.351677837340444,0.04325207179198176,0.28,0,0,0.0
5.264596452000205,221,951.28,-91.3,5.6,-41.1,-1.15,3.73,2.57,0.18,-0.9,-0.17,-84.4,-97.7,-196.0,-2.21,2.89,0.0,0.0,0.9334345183246654,4.673360675145885,0.044327262157585756,0.28,0,0,0.0
5.273162703000253,222,951.29,-91.4,5.3,-40.7,-1.17,4.03,2.78,0.18,-0.91,-0.16,-85.6,-119.8,-213.0,-2.18,3.53,-0.05,0.0,0.9413288479590965,5.033706387941196,0.03570427387269148,0.28,0,0,0.0
5.284691707000093,223,951.3,-91.5,5.0,-40.2,-1.14,4.19,3.0,0.19,-0.9,-0.14,-87.0,-146.8,-252.0,-2.13,4.3,-0.02,0.0,0.9304300081145277,5.277849941027123,0.04567105144291517,0.28,0,0,0.0
5.2932598689999395,224,951.31,-91.6,4.7,-39.8,-1.21,4.35,3.2,0.19,-0.91,-0.12,-88.7,-172.6,-258.0,-2.08,5.0,0.21,0.0,0.9373366524360391,5.534130464671031,0.03798911897897561,0.28,0,0,0.0
5.304643486000259,225,951.32,-91.7,4.4,-39.4,-1.3,4.52,3.34,0.19,-0.91,-0.11,-90.6,-198.7,-248.0,-2.03,5.67,0.17,0.0,0.9361089680160104,5.76853534270182,0.038432467331024234,0.28,0,0,0.0
5.313219143999959,226,951.33,-91.8,4.1,-38.9,-1.36,4.69,3.47,0.17,-0.91,-0.09,-92.7,-220.6,-226.0,-1.97,6.26,0.02,0.0,0.9301075206662938,5.9905425463809205,0.04354523638712604,0.28,0,0,0.0
5.324590136000097,227,951.34,-91.9,3.8,-38.4,-1.33,4.77,3.55,0.14,-0.91,-0.06,-95.1,-241.9,-217.0,-1.9,6.82,0.08,0.0,0.9226592003551474,6.092971360510403,0.049973685564307035,0.28,0,0,0.0
5.333215261000078,228,951.35,-92.0,3.5,-37.9,-1.39,4.73,3.67,0.13,-0.88,-0.05,-97.6,-260.9,-189.0,-1.83,7.3,0.17,0.0,0.8909545442950498,6.14604751039235,0.08004477479191652,0.28,0,0,0.0
5.34459996600026,229,951.36,-92.1,3.1,-37.4,-1.44,4.81,3.91,0.15,-0.86,-0.06,-100.3,-273.8,-105.0,-1.76,7.45,0.17,0.0,0.8750428560933459,6.36378818000725,0.09403733373374812,0.28,0,0,0.0
5.353287294999973,230,951.37,-92.3,2.8,-36.9,-2.28,4.96,4.01,0.04,-0.94,0.0,-103.1,-270.0,21.0,-1.68,7.18,-0.11,0.0,0.940850678907126,6.773485070478859,0.027664920701568563,0.28,0,0,0.0
5.364466042000004,231,951.38,-92.5,2.4,-36.4,-2.82,5.12,4.04,0.01,-0.94,-0.03,-105.6,-249.8,191.0,-1.62,6.39,-0.33,0.0,0.9405317644821997,7.105518981749327,0.02742415842396506,0.28,0,0,0.0
5.3732900959998915,232,951.39,-92.8,2.0,-35.8,-3.32,5.25,3.81,0.0,-1.12,0.08,-107.9,-213.1,324.0,-1.56,5.29,-0.27,0.0,1.1228535078094561,7.287043296152425,0.1517996332052256,0.28,0,0,0.0
5.38464184500026,233,951.4,-93.1,1.7,-35.3,-4.63,5.54,3.15,0.0,-1.34,0.08,-109.7,-170.0,402.0,-1.51,4.07,-0.17,0.0,1.3423859355639869,7.877245711541566,0.36390541974056123,0.28,0,1,0.0
5.393287613000211,234,951.41,-93.6,1.4,-34.7,-6.44,6.34,2.01,-0.07,-1.64,0.0,-111.1,-125.1,430.0,-1.48,2.86,-0.09,0.0,1.6414932226482082,9.257931734464238,0.6497524526882869,0.28,0,1,0.0
5.404633181999998,235,951.42,-94.3,1.4,-34.0,-6.32,6.75,0.52,-0.2,-1.72,0.09,-112.1,-79.6,447.0,-1.46,1.61,-0.09,0.0,1.7339261806662936,9.261495559573518,0.7273417024922448,0.28,0,1,0.0
5.413224377000006,236,951.43,-94.8,1.4,-33.4,-3.49,5.99,-0.56,-0.19,-1.61,0.23,-112.5,-39.6,446.0,-1.45,0.38,-0.15,0.0,1.6374064858794228,6.955127604868225,0.6182055675512665,0.28,0,1,0.0
5.424732598999981,237,951.44,-94.9,1.6,-32.8,0.27,5.02,-1.01,-0.1,-1.3,0.16,-112.6,9.3,420.0,-1.46,-0.68,-0.05,0.0,1.3136209498938423,5.127709040107482,0.2885316309343722,0.28,0,1,0.0
5.433223155000178,238,951.45,-94.7,1.7,-32.4,2.57,4.52,-0.81,-0.06,-0.93,0.1,-112.3,38.6,306.0,-1.47,-1.33,-0.04,0.0,0.9372833082905084,5.262261871096876,0.08604989045558231,0.28,0,1,0.0
5.44460101300001,239,951.46,-94.3,1.8,-31.9,3.79,3.94,-0.29,0.03,-0.64,0.11,-111.7,63.8,282.0,-1.49,-2.08,-0.09,0.0,0.6500769185258003,5.474650673787324,0.36579115461588463,0.28,0,1,0.0
5.45315586300012,240,951.47,-93.9,1.8,-31.6,3.75,3.51,0.4,0.17,-0.5,0.03,-110.9,89.5,243.0,-1.51,-2.67,-0.07,0.0,0.5289612462175277,5.151951086724329,0.477168690385674,0.28,0,1,0.0
5.464717032999943,241,951.48,-93.6,1.7,-31.2,2.35,3.92,1.04,0.28,-0.49,-0.13,-109.9,103.9,144.0,-1.54,-2.89,-0.05,0.0,0.5791372894228104,4.687269994357057,0.4184527942367835,0.28,0,1,0.0
5.473269056999925,242,951.49,-93.5,1.6,-30.8,-0.52,4.73,1.52,0.36,-0.58,-0.2,-108.8,103.4,6.0,-1.57,-2.67,0.14,0.0,0.7113367697511496,4.995367854322643,0.2805282476302754,0.28,0,1,0.0
5.484746649000044,243,951.5,-93.7,1.5,-30.2,-3.26,5.84,1.84,0.34,-0.83,-0.25,-107.9,85.4,-148.0,-1.59,-2.02,0.15,0.0,0.9311283477587824,6.936771583380845,0.059521936230189754,0.28,0,1,0.0
5.493109000999993,244,951.51,-94.1,1.4,-29.6,-3.87,7.04,2.04,0.26,-1.09,-0.22,-107.2,61.2,-201.0,-1.61,-1.39,0.14,0.0,1.141971978640457,8.288552346459543,0.14829526075845512,0.28,0,1,0.0
5.504634611000256,245,951.52,-94.4,1.2,-28.8,-2.59,7.72,2.02,0.15,-1.28,-0.15,-106.8,42.9,-163.0,-1.62,-1.02,-0.1,0.0,1.2974590552306458,8.389690101547256,0.297706690601671,0.28,0,1,0.0
5.513245647000076,246,951.53,-94.5,1.1,-28.0,-0.41,7.76,1.74,-0.02,-1.34,-0.08,-106.4,35.8,-72.0,-1.63,-0.98,0.03,0.0,1.342534915747073,7.963246825259154,0.33592690009573634,0.28,0,1,0.0
5.524653708000187,247,951.54,-94.4,1.0,-27.2,1.33,7.44,1.31,-0.21,-1.24,-0.06,-106.0,39.1,16.0,-1.64,-1.16,-0.05,0.0,1.2590869707847827,7.670632307704496,0.24742937603077708,0.28,0,1,0.0
5.533222976000161,248,951.55,-94.3,0.9,-26.5,1.39,6.99,0.88,-0.34,-1.12,-0.01,-105.6,48.5,73.0,-1.65,-1.44,-0.17,0.0,1.1705127081753535,7.180988789853386,0.1556780111529208,0.28,0,1,0.0
5.544757116000255,249,951.56,-94.2,0.9,-25.8,0.38,6.23,0.62,-0.4,-1.03,0.01,-105.0,60.2,105.0,-1.67,-1.78,-0.07,0.0,1.1049886877249016,6.272296230249334,0.08835091088841951,0.28,0,1,0.0
5.552961003999826,250,951.57,-94.2,0.9,-25.3,-0.95,5.16,0.48,-0.4,-1.0,0.05,-104.3,70.1,89.0,-1.69,-1.99,-0.02,0.0,1.0781929326423914,5.26863359895144,0.06032405268979102,0.28,0,1,0.0
5.564731010999822,251,951.58,-94.3,0.9,-24.8,-1.83,4.14,0.46,-0.32,-1.06,0.0,-103.6,75.6,52.0,-1.71,-2.07,0.06,0.0,1.1072488428533127,4.549736256092214,0.08759236364269807,0.28,0,1,0.0
5.573299395000049,252,951.59,-94.5,0.9,-24.4,-1.6,3.5,0.47,-0.22,-1.11,-0.05,-102.8,69.4,-65.0,-1.73,-1.67,-0.13,0.0,1.1326958991715297,3.8769704667433307,0.11077863156169676,0.28,0,1,0.0
5.584613123000054,253,951.6,-94.6,0.8,-24.1,-0.78,2.91,0.6,-0.12,-1.1,-0.07,-102.3,47.2,-203.0,-1.74,-0.9,0.17,0.0,1.1087380213558116,3.071888669857682,0.08508433867105913,0.28,0,1,0.0
5.593269972000144,254,951.61,-94.6,0.7,-23.8,0.24,2.53,0.76,-0.05,-1.09,-0.07,-102.0,15.6,-286.0,-1.74,0.0,0.16,0.0,1.0933892262136116,2.6525647965695387,0.06834083265828195,0.28,0,1,0.0
5.604758049999873,255,951.62,-94.6,0.6,-23.6,0.91,2.08,0.84,-0.01,-1.02,-0.07,-102.1,-8.5,-181.0,-1.74,0.28,-0.05,0.0,1.0224480426897007,2.420764342103543,0.002548343848316259,0.28,0,1,0.0
5.613354185999924,256,951.63,-94.5,0.6,-23.4,0.83,1.86,0.91,0.0,-0.96,-0.09,-102.2,-10.9,-74.0,-1.74,0.32,0.06,0.0,0.9642095207992918,2.23082944215823,0.059571128423950626,0.28,0,1,0.0
5.624660247000065,257,951.64,-94.4,0.5,-23.2,0.24,1.73,0.94,0.0,-0.95,-0.08,-102.3,-13.5,-40.0,-1.73,0.38,-0.06,0.0,0.953362470417207,1.983456578803781,0.06900981522991478,0.28,0,1,0.0
5.6332232710001335,258,951.65,-94.4,0.4,-23.0,-0.23,1.59,0.89,-0.04,-0.95,-0.07,-102.4,-14.7,-21.0,-1.73,0.41,-0.01,0.0,0.9534149149242422,1.8366001197865582,0.067578223308422,0.28,0,1,0.0
5.645094683000025,259,951.66,-94.5,0.3,-22.9,-0.23,1.34,0.82,-0.08,-0.95,-0.06,-102.6,-13.8,2.0,-1.73,0.37,0.12,0.0,0.95524865872714,1.587734234687909,0.0644295899154137,0.28,0,1,0.0
5.653187826000249,260,951.67,-94.5,0.1,-22.8,-0.15,1.09,0.75,-0.11,-0.94,-0.06,-102.7,-12.9,12.0,-1.72,0.31,-0.06,0.0,0.9483142938920619,1.3315780112332887,0.069936675655482,0.28,0,1,0.0
5.664753346999987,261,951.68,-94.5,0.0,-22.7,-0.11,0.84,0.67,-0.12,-0.93,-0.07,-102.8,-6.5,53.0,-1.72,0.09,0.05,0.0,0.9403190947758108,1.0800925886237716,0.07637323727629852,0.28,0,1,0.0
5.673060579999856,262,951.69,-94.5,0.0,-22.6,-0.03,0.64,0.47,-0.12,-0.93,-0.07,-102.8,-2.1,38.0,-1.72,0.02,0.21,0.0,0.9403190947758108,0.7946068210127571,0.07484577253077263,0.28,0,1,0.0
5.684603844999856,263,951.7,-94.5,-0.1,-22.5,0.01,0.52,0.21,-0.13,-0.94,-0.08,-102.8,0.4,23.0,-1.72,0.0,-0.03,0.0,0.9523129737644027,0.5608921464952064,0.061594855671337045,0.28,0,1,0.0
5.6933073919999515,264,951.71,-94.5,-0.1,-22.5,-0.01,0.38,-0.07,-0.15,-0.94,-0.06,-102.8,-0.6,3.0,-1.72,0.0,-0.11,0.0,0.9537819457297354,0.3865229618017537,0.058923366031884195,0.28,0,1,0.0
5.704546202000074,265,951.72,-94.5,-0.1,-22.5,-0.13,0.14,-0.37,-0.17,-0.93,-0.04,-102.8,0.4,-1.0,-1.72,0.01,0.14,0.0,0.9462557793746891,0.4164132562731403,0.06512054173919202,0.28,0,1,0.0
5.713226977999966,266,951.73,-94.5,0.0,-22.5,-0.25,-0.08,-0.64,-0.18,-0.92,-0.04,-102.8,0.2,7.0,-1.72,-0.02,-0.03,0.0,0.9382963284591921,0.6917369442208505,0.07161839280159521,0.28,0,1,0.0
5.724640057000215,267,951.74,-94.5,0.0,-22.5,-0.46,-0.37,-0.82,-0.18,-0.92,-0.04,-102.8,-0.2,0.0,-1.72,0.0,0.3,0.0,0.9382963284591921,1.0103959619871805,0.07018602494556325,0.28,0,1,0.0
5.733251723000194,268,951.75,-94.6,0.1,-22.6,-0.65,-0.72,-0.99,-0.18,-0.92,-0.04,-102.8,0.0,-9.0,-1.72,0.03,0.3,0.0,0.9382963284591921,1.386001443000692,0.06878230444665201,0.28,0,1,0.0
5.74465832199985,269,951.76,-94.7,0.2,-22.7,-0.9,-1.05,-1.15,-0.18,-0.92,-0.04,-102.8,0.0,10.0,-1.72,-0.03,-0.04,0.0,0.9382963284591921,1.7986105748604948,0.06740665835771886,0.28,0,1,0.0
5.753294451999864,270,951.77,-94.8,0.3,-22.8,-1.15,-1.44,-1.31,-0.17,-0.94,-0.05,-102.8,0.1,-3.0,-1.72,0.0,0.04,0.0,0.9565563234854495,2.26101747007846,0.04816373006483232,0.28,0,1,0.0
5.7647543130001395,271,951.78,-94.9,0.4,-23.0,-1.29,-1.83,-1.48,-0.14,-0.96,-0.06,-102.8,0.1,-2.0,-1.72,0.0,-0.02,0.0,0.9720082304178294,2.6839150508166236,0.03205758666980352,0.28,0,1,0.0
5.773296771999867,272,951.79,-95.1,0.5,-23.2,-1.36,-2.11,-1.6,-0.1,-0.97,-0.08,-102.8,-0.4,1.0,-1.72,0.0,-0.18,0.0,0.978417088975862,2.9768607626155443,0.025135753549535456,0.28,0,1,0.0
5.784622980000222,273,951.8,-95.2,0.6,-23.4,-1.35,-2.3,-1.64,-0.06,-0.98,-0.12,-102.8,0.0,-3.0,-1.72,0.02,-0.04,0.0,0.9891410415102591,3.130830560729852,0.014123564994835691,0.28,0,1,0.0
5.793337063999843,274,951.81,-95.4,0.7,-23.7,-1.29,-2.33,-1.65,-0.01,-0.98,-0.15,-102.9,-1.7,-14.0,-1.72,0.07,-0.02,0.0,0.9914635646356349,3.1329698370715287,0.011565021032070577,0.28,0,1,0.0
5.8045789190000505,275,951.82,-95.5,0.8,-23.9,-1.24,-2.25,-1.65,0.01,-0.99,-0.16,-102.9,-4.1,-28.0,-1.72,0.16,0.14,0.0,1.0028958071504737,3.053293303958858,0.00013012294688707904,0.28,0,1,0.0
5.812990640999942,276,951.83,-95.7,1.0,-24.1,-1.25,-2.06,-1.66,0.02,-0.99,-0.18,-103.0,-7.9,-35.0,-1.72,0.28,0.04,0.0,1.006429331846007,2.9260382772615947,0.0033353337136732275,0.28,0,1,0.0
5.82443750099992,277,951.84,-95.9,1.1,-24.4,-1.37,-1.89,-1.68,0.02,-0.99,-0.17,-103.1,-13.7,-61.0,-1.71,0.48,0.02,0.0,1.0046890066085126,2.8760041724587255,0.001563108306655403,0.28,0,1,0.0
5.832831976999842,278,951.85,-96.1,1.3,-24.6,-1.62,-1.68,-1.68,0.0,-0.99,-0.17,-103.3,-19.6,-40.0,-1.71,0.55,0.06,0.0,1.0044899203078146,2.875621671917222,0.0013367415658382953,0.28,0,1,0.0
5.844650057999843,279,951.86,-96.3,1.4,-24.7,-1.96,-1.54,-1.59,0.0,-1.0,-0.15,-103.5,-20.3,-15.0,-1.7,0.55,0.08,0.0,1.0111874208078342,2.9565689574234524,0.00787355722454075,0.28,0,1,0.0
5.857315150999966,280,951.87,-96.5,1.5,-24.9,-1.97,-1.47,-1.54,0.0,-1.03,-0.13,-103.7,-22.1,-20.0,-1.7,0.63,0.08,0.0,1.0381714694596456,2.9005861476605035,0.03416045375882515,0.28,0,1,0.0
5.865400815000157,281,951.88,-96.7,1.7,-25.1,-1.64,-1.57,-1.6,0.0,-1.03,-0.1,-103.9,-23.2,-17.0,-1.69,0.67,0.02,0.0,1.034842983258813,2.777498874887261,0.030215328206832703,0.28,0,1,0.0
5.873595782999928,282,951.89,-96.9,1.8,-25.3,-1.5,-1.75,-1.65,-0.01,-1.01,-0.08,-104.2,-27.5,-32.0,-1.68,0.77,-0.28,0.0,1.0132127121192271,2.8346075566116733,0.008413355925901866,0.28,0,1,0.0
5.88464053000007,283,951.9,-97.0,1.9,-25.5,-2.0,-1.88,-1.54,-0.03,-1.01,-0.08,-104.5,-29.6,-32.0,-1.67,0.86,-0.03,0.0,1.0136074190730846,3.147379862679432,0.008631901622164095,0.28,0,1,0.0
5.893242890000238,284,951.91,-97.2,2.0,-25.7,-2.75,-1.96,-1.34,0.0,-1.11,-0.01,-104.8,-34.2,-36.0,-1.66,0.97,0.31,0.0,1.110045044131093,3.633139138541215,0.10296813614656908,0.28,0,1,0.0
5.90530442499994,285,951.92,-97.5,2.1,-25.9,-3.32,-2.2,-1.04,0.05,-1.22,0.06,-105.1,-37.8,-33.0,-1.65,1.06,-0.02,0.0,1.2224974437601086,4.116309026300139,0.21111212506007293,0.28,0,1,0.0
5.9132116710002265,286,951.93,-97.9,2.1,-26.1,-4.17,-2.44,-0.29,0.22,-1.37,0.02,-105.6,-41.4,-36.0,-1.64,1.17,-0.07,0.0,1.3876959321119307,4.84010330468266,0.3687844011436572,0.28,0,2,0.0
5.92466939499991,287,951.94,-98.3,2.0,-26.4,-3.54,-2.52,0.51,0.41,-1.58,-0.14,-106.0,-43.1,-9.0,-1.63,1.15,0.05,0.0,1.6383223126112885,4.375168568181117,0.6070225660101547,0.28,0,2,0.0
5.933276908000153,288,951.95,-98.5,1.9,-26.6,-0.46,-2.24,1.09,0.49,-1.63,-0.14,-106.4,-43.0,-8.0,-1.62,1.17,0.2,0.0,1.7078056095469414,2.533239033332623,0.6629757456868914,0.28,0,2,0.0
5.945126480999988,289,951.96,-98.3,1.8,-26.8,4.62,-1.59,1.44,0.46,-1.55,-0.17,-106.8,-42.8,1.0,-1.61,1.15,-0.18,0.0,1.625730604989646,5.0937314416839845,0.5692827263070042,0.28,0,2,0.0
5.953306943999905,290,951.97,-97.6,1.6,-26.9,10.13,-1.29,1.01,0.26,-1.28,-0.06,-107.3,-41.4,22.0,-1.6,1.06,-0.08,0.0,1.3075167302944923,10.261632423742336,0.2460474745796135,0.28,0,2,0.0
5.964632708999943,291,951.98,-96.4,1.6,-27.0,12.62,-1.16,-0.14,0.03,-0.86,0.07,-107.6,-35.5,43.0,-1.59,0.9,0.07,0.0,0.8633655077659751,12.673973331201228,0.19414167298992557,0.28,0,2,0.0
5.9732702259998405,292,951.99,-95.1,1.6,-27.1,11.51,-1.2,-0.91,-0.15,-0.51,0.1,-107.9,-27.9,73.0,-1.58,0.64,-0.04,0.0,0.5409251334519408,11.608109234496375,0.5062504063578807,0.28,0,2,0.0
5.98483263900016,293,952.0,-94.2,1.7,-27.3,7.41,-2.11,-1.37,-0.3,-0.34,0.19,-108.1,-20.2,118.0,-1.57,0.34,0.13,0.0,0.4916299421312742,7.825413727081783,0.5444346857249764,0.28,0,2,0.0
5.993048918000113,294,952.01,-93.8,1.9,-27.6,1.99,-3.05,-1.36,-0.38,-0.29,0.07,-108.2,-3.5,147.0,-1.57,-0.09,-0.03,0.0,0.4831148931672465,3.887441317885069,0.5418907399952242,0.28,0,2,0.0
6.004725399000108,295,952.02,-93.9,2.0,-27.9,-2.72,-3.44,-1.27,-0.39,-0.53,-0.1,-108.2,5.6,65.0,-1.58,-0.12,-0.02,0.0,0.6655824516917495,4.565621534906282,0.3522347178413068,0.28,0,2,0.0
6.012957928000105,296,952.03,-94.3,2.1,-28.3,-5.13,-3.6,-1.47,-0.34,-0.83,-0.13,-108.2,0.7,-21.0,-1.58,0.06,0.21,0.0,0.9063112048297759,6.437219896818812,0.10927584540921464,0.28,0,2,0.0
6.024716769999941,297,952.04,-94.8,2.2,-28.7,-5.1,-3.74,-1.44,-0.24,-1.06,-0.07,-108.2,-0.3,17.0,-1.58,-0.06,0.13,0.0,1.0890821823902914,6.4862315715675765,0.07202522950827484,0.28,0,2,0.0
6.033196550999946,298,952.05,-95.3,2.3,-29.1,-2.84,-4.35,-1.32,-0.08,-1.31,0.01,-108.2,3.9,31.0,-1.58,-0.16,-0.01,0.0,1.3124785712536415,5.360083954566383,0.2895131860041924,0.28,0,2,0.0
6.044774855000014,299,952.06,-95.4,2.4,-29.5,0.85,-4.88,-1.1,0.09,-1.43,-0.08,-108.1,7.9,45.0,-1.58,-0.3,0.0,0.0,1.435060974314332,5.074140321276108,0.40385367728358523,0.28,0,2,0.0
6.053228929999932,300,952.07,-95.1,2.5,-30.1,4.05,-5.09,-0.97,0.26,-1.42,-0.18,-108.0,16.5,78.0,-1.58,-0.56,-0.1,0.0,1.4547852075134666,6.576587260882349,0.41510635227306536,0.28,0,2,0.0
6.0648015249998934,301,952.08,-94.6,2.5,-30.6,6.04,-4.84,-1.08,0.38,-1.3,-0.19,-107.7,28.0,109.0,-1.59,-0.93,-0.09,0.0,1.367662239004938,7.814960012693604,0.3214237160892459,0.28,0,2,0.0
6.0732851309999205,302,952.09,-94.0,2.6,-31.0,5.93,-4.75,-1.37,0.43,-1.13,-0.13,-107.3,41.4,132.0,-1.6,-1.32,-0.07,0.0,1.2160180919706745,7.720382114895609,0.1663839776738827,0.28,0,2,0.0
6.0847642479998285,303,952.1,-93.5,2.7,-31.5,4.23,-4.39,-1.67,0.4,-0.99,-0.2,-106.8,56.1,147.0,-1.62,-1.73,0.03,0.0,1.0863240768757727,6.3209097446491045,0.03595616332740126,0.28,0,2,0.0
6.093318007000107,304,952.11,-93.2,2.9,-31.9,2.1,-3.69,-1.83,0.29,-0.88,-0.2,-106.1,73.8,165.0,-1.64,-2.22,-0.15,0.0,0.9478923989567593,4.623310502226732,0.10042600429977988,0.28,0,2,0.0
6.104615740000099,305,952.12,-93.1,3.0,-32.3,0.68,-3.33,-1.79,0.16,-0.91,-0.12,-105.3,91.2,173.0,-1.67,-2.71,0.01,0.0,0.9317188417113824,3.841275829721162,0.1142675703142535,0.28,0,2,0.0
6.113241863999974,306,952.13,-93.1,3.2,-32.6,0.76,-3.27,-1.76,0.04,-0.96,-0.07,-104.2,108.1,165.0,-1.7,-3.13,-0.06,0.0,0.9633794683301072,3.7905276677528685,0.0809548048216181,0.28,0,2,0.0
6.124797921000209,307,952.14,-93.0,3.3,-33.0,1.19,-3.38,-1.78,-0.02,-0.97,-0.07,-103.0,125.5,166.0,-1.73,-3.61,-0.01,0.0,0.9727281223445737,4.001112345335981,0.07017402779100868,0.28,0,2,0.0
6.133145662000061,308,952.15,-92.9,3.5,-33.3,1.45,-3.43,-1.85,-0.02,-0.95,-0.09,-101.7,140.4,154.0,-1.77,-4.0,-0.03,0.0,0.9544631999192006,4.158112552589215,0.08667017121205411,0.28,0,2,0.0
6.144806194000012,309,952.16,-92.9,3.6,-33.7,1.16,-3.28,-1.84,0.01,-0.89,-0.11,-100.4,152.9,145.0,-1.81,-4.36,0.0,0.0,0.896827742657418,3.9356829140569745,0.14141951590435986,0.28,0,2,0.0
6.153165833000003,310,952.17,-92.8,3.8,-34.0,0.5,-3.09,-1.82,0.08,-0.9,-0.12,-98.7,164.6,113.0,-1.86,-4.62,0.15,0.0,0.9114823092084673,3.6208424434100968,0.12422965036624445,0.28,0,2,0.0
6.164844224000262,311,952.18,-92.9,3.9,-34.3,0.3,-2.92,-1.85,0.15,-0.91,-0.14,-97.1,171.8,69.0,-1.91,-4.69,0.04,0.0,0.9328451104015071,3.4697118035940675,0.10080951218974066,0.28,0,2,0.0
6.173290909000116,312,952.19,-92.8,4.1,-34.6,0.34,-2.76,-1.8,0.21,-0.9,-0.16,-95.3,172.9,14.0,-1.95,-4.63,0.0,0.0,0.9379232377972091,3.3125820744549106,0.09381675709815784,0.28,0,2,0.0
6.184754561999853,313,952.2,-92.8,4.3,-34.9,0.49,-2.51,-1.67,0.26,-0.91,-0.17,-93.6,166.7,-49.0,-2.0,-4.36,0.17,0.0,0.9615612304996495,3.0543575429212604,0.068775189107803,0.28,0,2,0.0
6.193237652999869,314,952.21,-92.8,4.4,-35.1,0.93,-2.28,-1.45,0.29,-0.9,-0.18,-92.0,154.1,-119.0,-2.04,-3.92,0.1,0.0,0.9625487000666512,2.857586394144541,0.06643196514998528,0.28,0,2,0.0
6.204724487000021,315,952.22,-92.7,4.5,-35.3,1.26,-2.1,-1.16,0.28,-0.88,-0.16,-90.6,135.2,-177.0,-2.07,-3.32,0.11,0.0,0.9372299611087985,2.709833943251874,0.08991569002568112,0.28,0,2,0.0
6.213237265999851,316,952.23,-92.6,4.6,-35.6,1.55,-2.01,-0.88,0.27,-0.87,-0.16,-89.4,111.4,-225.0,-2.1,-2.61,0.09,0.0,0.9248783703817491,2.686447468312008,0.10022193513767585,0.28,0,2,0.0
6.224685145999956,317,952.24,-92.4,4.7,-35.8,1.61,-1.88,-0.57,0.26,-0.83,-0.16,-88.5,84.1,-268.0,-2.12,-1.84,0.17,0.0,0.8843641783790205,2.5399606296161363,0.1379214045975964,0.28,0,2,0.0
6.2332010889999765,318,952.25,-92.3,4.7,-35.9,1.54,-1.63,-0.27,0.25,-0.8,-0.17,-87.8,56.5,-261.0,-2.14,-1.15,-0.22,0.0,0.8552192701290121,2.2586279020679787,0.1637249865906526,0.28,0,2,0.0
6.24490668999988,319,952.26,-92.1,4.7,-36.1,1.32,-1.35,0.03,0.25,-0.77,-0.17,-87.4,33.0,-237.0,-2.14,-0.54,0.2,0.0,0.8272242743053422,1.888332597822746,0.18788558276603617,0.28,0,2,0.0
6.2531140559999585,320,952.27,-92.0,4.7,-36.2,0.9,-0.96,0.32,0.25,-0.77,-0.17,-87.3,8.3,-250.0,-2.14,0.12,0.16,0.0,0.8272242743053422,1.354252561378416,0.1841278711107155,0.28,0,2,0.0
6.264618115999838,321,952.28,-92.0,4.6,-36.3,0.45,-0.55,0.52,0.26,-0.77,-0.19,-87.3,-7.6,-130.0,-2.14,0.19,0.09,0.0,0.8346256645946133,0.8805679985100526,0.17319195120501552,0.28,0,2,0.0
6.2732569499999045,322,952.29,-92.0,4.6,-36.3,-0.15,0.04,0.78,0.28,-0.78,-0.2,-87.4,-2.7,12.0,-2.14,-0.05,-0.01,0.0,0.8525256594378847,0.7952986860293434,0.15218611723450914,0.28,0,2,0.0
6.2847773879998385,323,952.3,-92.0,4.5,-36.3,-0.66,0.58,0.98,0.29,-0.81,-0.21,-87.3,2.4,14.0,-2.14,-0.04,0.07,0.0,0.8856071363759441,1.3162066707018316,0.11672254749052069,0.28,0,2,0.0
6.2931876570000895,324,952.31,-92.1,4.4,-36.2,-0.97,1.15,1.16,0.29,-0.85,-0.2,-87.3,-0.2,-22.0,-2.14,0.05,0.03,0.0,0.9201086892318754,1.8997368238785077,0.08057657474189772,0.28,0,2,0.0
6.304730122999899,325,952.32,-92.2,4.3,-36.0,-1.07,1.62,1.39,0.28,-0.86,-0.2,-87.3,-2.4,-10.0,-2.14,0.07,-0.1,0.0,0.9262828941527529,2.3877604569973094,0.07291432242459983,0.28,0,2,0.0
6.313221207999959,326,952.33,-92.3,4.1,-35.8,-1.12,2.02,1.66,0.25,-0.88,-0.19,-87.4,-2.6,-9.0,-2.14,0.12,0.02,0.0,0.9343446901438462,2.8443628460518187,0.06355547590483634,0.28,0,2,0.0
6.324616106000121,327,952.34,-92.4,3.9,-35.6,-1.28,2.29,1.9,0.23,-0.9,-0.16,-87.4,-6.2,-38.0,-2.14,0.28,0.11,0.0,0.9426027795418386,3.2392128673491034,0.05419143877670718,0.28,0,2,0.0
6.3332348180001645,328,952.35,-92.5,3.8,-35.3,-1.35,2.59,2.07,0.2,-0.94,-0.17,-87.5,-15.3,-80.0,-2.13,0.56,0.06,0.0,0.9759610647971567,3.5798742994691866,0.020416490450961278,0.28,0,2,0.0
6.34477737799989,329,952.36,-92.6,3.6,-35.1,-1.5,2.62,2.15,0.16,-0.96,-0.11,-87.8,-26.7,-110.0,-2.13,0.9,0.13,0.0,0.979438614717635,3.7063324189824094,0.01660016171987333,0.28,0,2,0.0
6.353190925000035,330,952.37,-92.7,3.4,-34.8,-1.43,2.57,2.24,0.14,-0.98,-0.1,-88.1,-39.2,-120.0,-2.11,1.25,0.19,0.0,0.9949874371066199,3.696944684465809,0.0010303125442707728,0.28,0,2,0.0
6.364691989000221,331,952.38,-92.9,3.2,-34.5,-1.23,2.33,2.31,0.13,-1.0,-0.06,-88.6,-52.7,-140.0,-2.1,1.68,0.1,0.0,1.010198000393982,3.5039834474494884,0.013896645728229684,0.28,0,2,0.0
6.373211836999872,332,952.39,-93.0,3.0,-34.3,-0.81,2.06,2.42,0.12,-0.98,-0.07,-89.2,-68.7,-153.0,-2.08,2.11,0.07,0.0,0.9897979591815695,3.2796493715029964,0.006373327574499266,0.28,0,2,0.0
6.384748626000146,333,952.4,-93.0,2.8,-34.1,-0.46,1.86,2.61,0.13,-0.96,-0.07,-90.1,-86.0,-169.0,-2.05,2.58,-0.04,0.0,0.9712878049270464,3.2377924578329598,0.024385812192441958,0.28,0,2,0.0
6.393262639000113,334,952.41,-93.1,2.6,-33.9,-0.22,1.69,2.78,0.14,-0.95,-0.06,-91.0,-102.7,-172.0,-2.03,3.05,0.12,0.0,0.9621330469326994,3.2608127821142996,0.032869758783053094,0.28,0,2,0.0
6.4048090179999235,335,952.42,-93.1,2.4,-33.7,-0.15,1.58,2.96,0.16,-0.94,-0.06,-92.2,-121.5,-190.0,-1.99,3.62,0.05,0.0,0.9554056729996949,3.3586455603412517,0.03880519006173644,0.28,0,2,0.0
6.413195305000045,336,952.43,-93.1,2.1,-33.6,-0.16,1.57,3.16,0.18,-0.91,-0.07,-93.5,-142.6,-206.0,-1.95,4.22,0.05,0.0,0.9302687783646187,3.5321523183464216,0.0626632430028764,0.28,0,2,0.0
6.42465049700013,337,952.44,-93.1,1.8,-33.4,-0.28,1.71,3.41,0.2,-0.88,-0.09,-95.1,-168.3,-260.0,-1.9,5.02,0.05,0.0,0.9069178573608527,3.824996732024748,0.08429388072650956,0.28,0,2,0.0
6.433222460000252,338,952.45,-93.2,1.4,-33.2,-0.72,2.25,3.61,0.19,-0.93,-0.09,-97.0,-192.2,-191.0,-1.85,5.32,-0.08,0.0,0.9534673565466204,4.314278618726426,0.03698949390992701,0.28,0,2,0.0
6.444844436000039,339,952.46,-93.3,1.1,-32.9,-1.91,2.58,3.48,0.09,-0.99,-0.01,-98.9,-190.2,15.0,-1.8,4.89,-0.2,0.0,0.9941327879111522,4.734437664601785,0.0036024187055127,0.28,0,2,0.0
6.453029198999957,340,952.47,-93.5,0.8,-32.6,-3.03,3.09,3.26,0.09,-1.04,0.0,-100.7,-167.2,182.0,-1.76,4.08,-0.07,0.0,1.0438869670610895,5.4181731238490345,0.05228946589834105,0.28,0,2,0.0
6.4647746959999495,341,952.48,-93.9,0.6,-32.2,-4.1,3.55,2.81,0.06,-1.16,0.05,-102.1,-135.6,276.0,-1.72,3.2,-0.25,0.0,1.162626337221035,6.108076620344574,0.16760825933712087,0.28,0,2,0.0
6.4732993890002035,342,952.49,-94.3,0.4,-31.8,-5.26,3.94,2.13,0.03,-1.35,0.05,-103.3,-103.3,304.0,-1.7,2.3,-0.09,0.0,1.3512586724976088,6.908552670422366,0.34911578272142063,0.28,0,3,0.0
6.484699189999901,343,952.5,-94.8,0.2,-31.4,-5.36,4.44,1.04,-0.06,-1.5,0.03,-104.1,-68.7,340.0,-1.68,1.28,-0.19,0.0,1.5014992507490639,7.037385878293161,0.4893692337534181,0.28,0,3,0.0
6.49328546400011,344,952.51,-95.3,0.2,-31.0,-4.05,4.19,0.07,-0.15,-1.39,0.07,-104.5,-29.4,374.0,-1.67,0.23,-0.02,0.0,1.3998214171814916,5.82782120521898,0.379937572182129,0.28,0,3,0.0
6.504810857999928,345,952.52,-95.6,0.3,-30.6,-1.72,3.79,-0.29,-0.14,-1.19,0.08,-104.5,4.2,308.0,-1.68,-0.41,0.1,0.0,1.2008746812219833,4.172121762365044,0.17737101949816836,0.28,0,3,0.0
6.513061569000001,346,952.53,-95.6,0.3,-30.2,0.32,3.59,-0.29,-0.11,-1.02,0.03,-104.4,18.6,167.0,-1.68,-0.64,0.08,0.0,1.026352765865616,3.615881635230888,0.002792122058965063,0.28,0,3,0.0
6.524749288999828,347,952.54,-95.5,0.4,-29.9,1.52,3.45,-0.19,-0.04,-0.85,0.03,-104.2,23.9,62.0,-1.69,-0.6,0.19,0.0,0.85146931829632,3.774784762075846,0.16864949900012438,0.28,0,3,0.0
6.5331981610002,348,952.55,-95.3,0.4,-29.5,2.2,3.42,-0.04,0.08,-0.71,-0.01,-104.0,15.3,-74.0,-1.69,-0.13,0.03,0.0,0.7145628033979938,4.066693988979255,0.29944489362048143,0.28,0,3,0.0
6.544725543999903,349,952.56,-95.1,0.5,-29.2,1.89,3.66,0.08,0.19,-0.66,-0.11,-103.9,-0.6,-102.0,-1.69,0.11,0.09,0.0,0.6955573304911681,4.119963592072144,0.31208135919676094,0.28,0,3,0.0
6.553196641999875,350,952.57,-94.9,0.5,-28.8,0.63,4.21,0.09,0.22,-0.67,-0.2,-104.0,-4.3,-44.0,-1.69,0.13,-0.17,0.0,0.7330075033722371,4.2578280848338625,0.2691385625893782,0.28,0,3,0.0
6.564734050999959,351,952.58,-95.0,0.5,-28.3,-1.41,4.87,0.02,0.2,-0.75,-0.23,-104.0,-5.0,-7.0,-1.69,0.08,0.01,0.0,0.8095677859203638,5.07004930942491,0.18872671444042644,0.28,0,3,0.0
6.573270933999993,352,952.59,-95.2,0.6,-27.8,-3.15,5.26,-0.04,0.14,-0.88,-0.16,-104.0,0.6,34.0,-1.69,-0.06,-0.17,0.0,0.905317623820502,6.131207058972971,0.09111733900948249,0.28,0,3,0.0
6.584767204999935,353,952.6,-95.6,0.7,-27.3,-4.28,5.3,-0.05,0.07,-1.08,-0.08,-104.0,1.9,7.0,-1.69,-0.03,0.01,0.0,1.0852188719332152,6.812554586937267,0.08700823092116616,0.28,0,3,0.0
6.593237973000214,354,952.61,-96.0,0.7,-26.8,-4.19,5.16,-0.04,-0.03,-1.27,-0.04,-104.0,1.4,0.0,-1.69,-0.04,-0.21,0.0,1.2709838708654015,6.647051978132863,0.2673177652562855,0.28,0,3,0.0
6.604785421000088,355,952.62,-96.3,0.8,-26.3,-2.84,4.67,0.01,-0.16,-1.36,-0.03,-104.0,3.6,26.0,-1.69,-0.16,-0.02,0.0,1.3697079980784226,5.4657661859980795,0.35872105461992043,0.28,0,3,0.0
6.613112837000244,356,952.63,-96.5,0.8,-25.8,-0.56,3.95,0.08,-0.26,-1.39,-0.03,-103.9,9.5,67.0,-1.69,-0.41,0.08,0.0,1.4144256784999345,3.990300740545755,0.3953699603406038,0.28,0,3,0.0
6.624598419999984,357,952.64,-96.4,0.8,-25.5,1.64,3.15,0.15,-0.3,-1.28,-0.07,-103.7,21.4,99.0,-1.7,-0.75,-0.01,0.0,1.3165485179058158,3.5545182514653093,0.2915429437515553,0.28,0,3,0.0
6.633171458000106,358,952.65,-96.2,0.9,-25.2,2.54,2.54,0.14,-0.3,-1.16,-0.06,-103.4,33.1,111.0,-1.71,-1.05,0.03,0.0,1.199666620357506,3.5948296204410024,0.1711678252791804,0.28,0,3,0.0
6.6447808309999346,359,952.66,-95.9,0.9,-25.0,2.43,1.92,0.04,-0.26,-1.05,-0.06,-103.0,41.6,79.0,-1.72,-1.21,0.19,0.0,1.0833743581975717,3.097240707468504,0.05377805185686113,0.28,0,3,0.0
6.6531008229999316,360,952.67,-95.7,0.9,-24.8,1.67,1.3,-0.03,-0.17,-0.99,-0.04,-102.6,46.1,44.0,-1.74,-1.26,0.18,0.0,1.0052860289489753,2.11655380276524,0.023824071843900452,0.28,0,3,0.0
6.664751034999881,361,952.68,-95.6,0.9,-24.7,0.72,1.03,0.08,-0.06,-0.96,-0.1,-102.1,45.3,-2.0,-1.75,-1.15,0.15,0.0,0.9670573922989266,1.2592458060283545,0.0608116543240701,0.28,0,3,0.0
6.67332926600011,362,952.69,-95.6,0.8,-24.6,0.17,1.07,0.29,0.0,-1.0,-0.13,-101.7,38.1,-64.0,-1.76,-0.86,0.09,0.0,1.0084145972763385,1.1215614116043757,0.01906536035972506,0.28,0,3,0.0
6.684616001999984,363,952.7,-95.6,0.8,-24.5,0.5,1.33,0.42,0.04,-1.04,-0.15,-101.4,24.0,-124.0,-1.76,-0.41,0.14,0.0,1.05152270541344,1.4816544806398018,0.023561892821828856,0.28,0,3,0.0
6.6932100389999505,364,952.71,-95.5,0.8,-24.3,1.11,1.5,0.56,0.05,-1.03,-0.13,-101.3,8.3,-133.0,-1.76,-0.05,0.18,0.0,1.0393748120865733,1.9482556300444764,0.011185719505063085,0.28,0,3,0.0
6.704640490000202,365,952.72,-95.4,0.8,-24.2,1.31,1.44,0.73,0.03,-0.98,-0.11,-101.3,-0.2,-82.0,-1.76,0.02,-0.03,0.0,0.986610358753647,2.079086337793599,0.040747159151306,0.28,0,3,0.0
6.713287750999825,366,952.73,-95.3,0.7,-24.0,0.98,1.44,0.89,0.0,-0.95,-0.11,-101.3,-0.5,-20.0,-1.76,0.0,0.01,0.0,0.9563472172804185,1.956041921841145,0.0695900946120439,0.28,0,3,0.0
6.724759202999849,367,952.74,-95.2,0.6,-23.9,0.43,1.44,0.99,-0.03,-0.94,-0.1,-101.3,0.0,-3.0,-1.76,0.0,-0.16,0.0,0.9457801012920498,1.7996110690924303,0.07855406638840423,0.28,0,3,0.0
6.732991801000026,368,952.75,-95.2,0.5,-23.7,0.18,1.33,1.04,-0.05,-0.95,-0.08,-101.3,0.0,-2.0,-1.76,0.0,-0.01,0.0,0.9546727187890098,1.697910480561328,0.06826821991361531,0.28,0,3,0.0
6.744885214000078,369,952.76,-95.2,0.3,-23.6,0.33,1.24,1.03,-0.08,-0.96,-0.09,-101.3,-0.1,0.0,-1.76,0.0,0.0,0.0,0.9675226095549395,1.6454178800535746,0.05430996256473197,0.28,0,3,0.0
6.753142724000099,370,952.77,-95.1,0.2,-23.5,0.52,1.07,0.98,-0.11,-0.96,-0.08,-101.3,0.0,-3.0,-1.76,0.0,0.0,0.0,0.9695875411740809,1.5413305939998727,0.051200130326678917,0.28,0,3,0.0
6.764645734000169,371,952.78,-95.1,0.0,-23.4,0.77,0.93,0.9,-0.12,-0.96,-0.08,-101.3,0.3,4.0,-1.76,-0.01,-0.08,0.0,0.9707728879609278,1.5059216447079842,0.049014487869035395,0.28,0,3,0.0
6.773298554000121,372,952.79,-95.0,0.0,-23.3,0.87,0.69,0.74,-0.13,-0.95,-0.06,-101.3,0.1,-1.0,-1.76,0.0,0.09,0.0,0.960728889958036,1.33439124697369,0.057877316154488545,0.28,0,3,0.0
6.784799330000169,373,952.8,-94.9,0.0,-23.2,0.89,0.47,0.52,-0.14,-0.95,-0.07,-101.3,0.0,2.0,-1.76,-0.02,-0.19,0.0,0.9628083921528727,1.1328724553099523,0.054681857680458634,0.28,0,3,0.0
6.793114665999838,374,952.81,-94.8,0.0,-23.2,0.81,0.28,0.26,-0.14,-0.92,-0.07,-101.3,1.3,5.0,-1.76,-0.04,-0.16,0.0,0.9332202312423366,0.8956003573022959,0.08258461821917495,0.28,0,3,0.0
6.804668170000241,375,952.82,-94.7,0.0,-23.2,0.56,0.1,0.06,-0.14,-0.9,-0.06,-101.2,2.3,10.0,-1.76,-0.07,0.07,0.0,0.9127978965795221,0.5720139858430037,0.10094681382434956,0.28,0,3,0.0
6.8132368880001195,376,952.83,-94.7,0.0,-23.2,0.23,-0.06,-0.11,-0.14,-0.9,-0.06,-101.2,4.5,22.0,-1.77,-0.17,-0.15,0.0,0.9127978965795221,0.2619160170741759,0.09892787754786248,0.28,0,3,0.0
6.824797805999879,377,952.84,-94.7,0.0,-23.2,-0.09,-0.25,-0.29,-0.14,-0.9,-0.06,-101.1,6.6,10.0,-1.77,-0.15,0.15,0.0,0.9127978965795221,0.39331920878594273,0.09694931999690526,0.28,0,3,0.0
6.833107620000192,378,952.85,-94.7,0.0,-23.2,-0.4,-0.47,-0.47,-0.15,-0.92,-0.06,-101.1,4.3,-14.0,-1.77,-0.07,0.07,0.0,0.9340770846134703,0.7757576941287788,0.07415672932369799,0.28,0,3,0.0
6.844614583999828,379,952.86,-94.8,0.0,-23.3,-0.61,-0.77,-0.65,-0.15,-0.95,-0.05,-101.1,1.9,-18.0,-1.77,-0.03,0.0,0.0,0.9630680142129111,1.1779218989389746,0.04426248372977204,0.28,0,3,0.0
6.85310919199992,380,952.87,-94.8,0.0,-23.4,-0.65,-1.09,-0.87,-0.14,-0.97,-0.05,-101.1,0.5,-16.0,-1.77,0.0,-0.06,0.0,0.9813256340277675,1.5386682553429119,0.02548476663661725,0.28,0,3,0.0
6.864625682000224,381,952.88,-94.9,0.1,-23.5,-0.62,-1.43,-1.05,-0.13,-0.98,-0.06,-101.1,0.2,-1.0,-1.77,-0.01,-0.06,0.0,0.9904039579888602,1.8793083834219437,0.01607831382201419,0.28,0,3,0.0
6.8732594150001205,382,952.89,-95.0,0.2,-23.7,-0.6,-1.69,-1.23,-0.09,-0.97,-0.09,-101.1,0.0,1.0,-1.77,0.0,0.0,0.0,0.9783148777362021,2.174626404695758,0.0276040461931788,0.28,0,3,0.0
6.884743095999966,383,952.9,-95.0,0.2,-23.9,-0.65,-1.83,-1.39,-0.06,-0.96,-0.11,-101.1,0.0,-1.0,-1.77,0.0,-0.06,0.0,0.9681425514871248,2.3882001591156468,0.03702084499341096,0.28,0,3,0.0
6.893072329999995,384,952.91,-95.1,0.3,-24.1,-0.79,-1.86,-1.55,-0.03,-0.95,-0.14,-101.1,0.0,1.0,-1.77,0.0,0.0,0.0,0.960728889958036,2.5468019161293247,0.04354581639204991,0.28,0,3,0.0
6.904757146000065,385,952.92,-95.3,0.5,-24.3,-1.09,-1.77,-1.68,-0.01,-0.96,-0.15,-101.1,-0.4,-2.0,-1.77,0.01,-0.06,0.0,0.9716995420396163,2.6727139764666177,0.03192366102426025,0.28,0,3,0.0
6.913106405000235,386,952.93,-95.4,0.6,-24.5,-1.27,-1.6,-1.77,0.0,-0.97,-0.16,-101.1,-0.3,0.0,-1.77,0.0,-0.13,0.0,0.9831073186585481,2.702924342263394,0.020105566717221968,0.28,0,3,0.0
6.924470145000214,387,952.94,-95.6,0.8,-24.6,-1.42,-1.44,-1.81,-0.01,-0.98,-0.15,-101.1,-0.2,-1.0,-1.77,0.02,0.06,0.0,0.9914635646356349,2.7140560053175027,0.011514334325332332,0.28,0,3,0.0
6.933229181000115,388,952.95,-95.8,0.9,-24.8,-1.62,-1.3,-1.74,-0.02,-1.0,-0.12,-101.1,-0.8,-3.0,-1.77,0.01,-0.18,0.0,1.0073728207570423,2.7096125184239908,0.004307023360153428,0.28,0,3,0.0
6.944860763000179,389,952.96,-96.0,1.0,-24.9,-1.66,-1.35,-1.72,-0.02,-1.03,-0.09,-101.1,-0.8,-3.0,-1.77,0.03,0.0,0.0,1.034117981663601,2.745268657162719,0.03043114058137797,0.28,0,3,0.0
6.953059488000235,390,952.97,-96.1,1.2,-25.1,-1.21,-1.42,-1.8,-0.04,-1.04,-0.08,-101.1,-0.9,4.0,-1.77,0.0,-0.21,0.0,1.0438390680559912,2.592392717163046,0.03934918243429286,0.28,0,3,0.0
6.9647538640001585,391,952.98,-96.2,1.3,-25.3,-1.02,-1.56,-1.79,-0.09,-1.0,-0.07,-101.1,0.5,6.0,-1.77,0.0,0.13,0.0,1.0064790112068904,2.584202004488039,0.0019493430734882633,0.28,0,3,0.0
6.973284344000149,392,952.99,-96.3,1.5,-25.4,-1.73,-1.66,-1.63,-0.05,-1.04,0.01,-101.1,-0.4,-11.0,-1.77,0.05,0.0,0.0,1.0412492496996097,2.8992067880715235,0.03598518993488353,0.28,0,3,0.0
6.984716065000157,393,953.0,-96.5,1.6,-25.6,-2.32,-1.9,-1.41,-0.02,-1.13,0.1,-101.1,-1.1,-4.0,-1.77,0.03,-0.01,0.0,1.134592437838363,3.3136837507523254,0.12674181051216404,0.28,0,3,0.0
6.993305418000091,394,953.01,-96.9,1.7,-25.8,-3.83,-2.19,-0.58,0.14,-1.22,0.07,-101.1,-2.1,-7.0,-1.77,0.06,-0.22,0.0,1.23,4.449876402777947,0.21770638522032515,0.28,0,3,0.0
7.004767645999891,395,953.02,-97.3,1.6,-26.1,-3.88,-2.36,0.41,0.32,-1.41,-0.1,-101.2,-3.6,-14.0,-1.77,0.11,0.08,0.0,1.4493101807411688,4.5598355233494985,0.42827623464226416,0.28,0,4,0.0
7.01298864599994,396,953.03,-97.6,1.5,-26.3,-1.61,-1.77,1.2,0.42,-1.49,-0.18,-101.2,-4.3,-8.0,-1.77,0.12,0.01,0.0,1.5584928617096712,2.6767517628648347,0.5267097372985512,0.28,0,4,0.0
7.02472798000008,397,953.04,-97.5,1.4,-26.4,2.52,-0.95,1.83,0.46,-1.45,-0.2,-101.2,-4.9,-6.0,-1.76,0.14,-0.19,0.0,1.5343076614551594,3.2560405402881583,0.4924740463031587,0.28,0,4,0.0
7.0331732519998695,398,953.05,-97.0,1.2,-26.4,7.74,-0.01,1.69,0.32,-1.3,-0.16,-101.3,-6.9,-27.0,-1.76,0.25,0.13,0.0,1.348332303254654,7.922360759268667,0.3003687143406002,0.28,0,4,0.0
7.044866312000067,399,953.06,-96.0,1.1,-26.4,10.85,0.38,0.52,0.11,-1.02,0.03,-101.4,-12.8,-44.0,-1.76,0.4,0.0,0.0,1.026352765865616,10.869098398671346,0.021178606587469062,0.28,0,4,0.0
7.053142992000176,400,953.07,-94.9,1.1,-26.3,10.35,0.11,-0.8,-0.08,-0.73,0.2,-101.6,-15.6,-25.0,-1.75,0.43,-0.07,0.0,0.7611175993235211,10.381454618693855,0.2806854976669726,0.28,0,4,0.0
7.064735894000023,401,953.08,-94.1,1.2,-26.4,6.6,-1.14,-1.58,-0.25,-0.48,0.26,-101.7,-11.6,39.0,-1.75,0.21,-0.01,0.0,0.600416522091123,6.881569588400599,0.4325588434013833,0.28,0,4,0.0
7.0730896420000136,402,953.09,-93.7,1.4,-26.6,1.43,-2.09,-1.72,-0.31,-0.42,0.06,-101.8,-5.0,42.0,-1.75,0.09,0.12,0.0,0.525452186216786,3.0612742444936223,0.4973727156902059,0.28,0,4,0.0
7.08461530600016,403,953.1,-93.8,1.5,-26.8,-3.14,-2.43,-1.55,-0.31,-0.51,-0.1,-101.8,-2.4,23.0,-1.75,0.06,-0.08,0.0,0.6051446108162908,4.262276387096454,0.40932668526888705,0.28,0,4,0.0
7.09330600300018,404,953.11,-94.3,1.6,-27.1,-5.61,-2.76,-1.44,-0.28,-0.76,-0.14,-101.8,-1.9,17.0,-1.75,0.02,-0.17,0.0,0.8219489035213807,6.4158631531540635,0.18867194471252113,0.28,0,4,0.0
7.104770774999906,405,953.12,-94.9,1.8,-27.4,-5.53,-2.93,-1.25,-0.2,-1.05,-0.12,-101.8,0.3,21.0,-1.75,-0.03,-0.08,0.0,1.0755928597754822,6.381872765889336,0.06367257131074888,0.28,0,4,0.0
7.113238979000016,406,953.13,-95.3,1.8,-27.7,-3.44,-3.33,-0.98,-0.1,-1.28,-0.08,-101.8,0.1,-5.0,-1.75,0.03,0.01,0.0,1.2863902984708802,4.887013402887289,0.2689806098060239,0.28,0,4,0.0
7.124848767000003,407,953.14,-95.5,1.9,-28.1,-0.27,-3.86,-0.85,0.01,-1.43,-0.07,-101.8,-0.3,6.0,-1.75,-0.02,0.05,0.0,1.4317471843869642,3.961691557908061,0.40605074580766587,0.28,0,4,0.0
7.1331247789999,408,953.15,-95.4,1.9,-28.5,2.67,-4.26,-0.75,0.16,-1.44,-0.13,-101.8,2.5,18.0,-1.75,-0.09,0.05,0.0,1.4546820958546234,5.0832076487194575,0.42040594412981847,0.28,0,4,0.0
7.144665531000101,409,953.16,-95.0,2.0,-28.9,4.64,-4.27,-0.85,0.26,-1.34,-0.14,-101.8,4.0,17.0,-1.75,-0.13,-0.07,0.0,1.3721515951235128,6.3627824102353205,0.3311179345307338,0.28,0,4,0.0
7.1532102959999975,410,953.17,-94.5,2.0,-29.4,4.9,-4.34,-1.2,0.34,-1.19,-0.14,-101.7,8.6,53.0,-1.75,-0.34,-0.06,0.0,1.2455119429375214,6.654742669705569,0.20038871669784752,0.28,0,4,0.0
7.164618461999908,411,953.18,-94.1,2.2,-29.8,3.76,-4.15,-1.62,0.36,-1.07,-0.18,-101.6,16.3,53.0,-1.76,-0.48,0.1,0.0,1.1431972708154967,5.829622629296,0.09611256368430632,0.28,0,4,0.0
7.173371992999819,412,953.19,-93.8,2.3,-30.2,2.31,-3.48,-1.97,0.3,-0.97,-0.2,-101.4,20.6,55.0,-1.76,-0.64,0.1,0.0,1.034842983258813,4.618159806676248,0.011996889394929822,0.28,0,4,0.0
7.184755949000191,413,953.2,-93.7,2.5,-30.5,1.08,-2.97,-2.08,0.21,-0.93,-0.15,-101.1,30.9,86.0,-1.77,-0.94,-0.05,0.0,0.9651424765287248,3.783345080745345,0.08006344820251787,0.28,0,4,0.0
7.1930904830001055,414,953.21,-93.6,2.7,-30.8,0.74,-2.8,-2.04,0.14,-0.95,-0.07,-100.7,41.0,103.0,-1.78,-1.25,0.07,0.0,0.9628083921528727,3.542485003496839,0.08074958192680248,0.28,0,4,0.0
7.204628215999946,415,953.22,-93.5,2.9,-31.1,1.11,-2.89,-1.92,0.07,-0.96,-0.07,-100.2,51.7,102.0,-1.8,-1.51,0.61,0.0,0.965090669315583,3.6428834732941984,0.07689795866881033,0.28,0,4,0.0
7.213303619000271,416,953.23,-93.4,3.1,-31.4,1.5,-2.99,-1.77,0.05,-0.94,-0.07,-99.6,60.3,87.0,-1.82,-1.73,-0.14,0.0,0.9439279633531363,3.784573952243502,0.09609945133863174,0.28,0,4,0.0
7.22450195600004,417,953.24,-93.3,3.2,-31.7,1.51,-2.94,-1.64,0.05,-0.9,-0.08,-99.0,68.4,81.0,-1.83,-1.94,0.1,0.0,0.9049309365912959,3.68962057669891,0.13239454853846278,0.28,0,4,0.0
7.23325445699993,418,953.25,-93.2,3.4,-32.0,1.16,-2.91,-1.51,0.08,-0.87,-0.1,-98.2,76.6,80.0,-1.86,-2.17,0.03,0.0,0.8793747778962051,3.477614124655006,0.1547916930888824,0.28,0,4,0.0
7.244794488000025,419,953.26,-93.2,3.5,-32.3,0.67,-2.78,-1.43,0.14,-0.89,-0.12,-97.4,79.7,28.0,-1.88,-2.16,0.02,0.0,0.9089004345911602,3.19721754029969,0.12276071566604885,0.28,0,4,0.0
7.253165538999838,420,953.27,-93.1,3.7,-32.6,0.49,-2.65,-1.36,0.19,-0.89,-0.13,-96.7,77.4,-20.0,-1.9,-2.02,0.17,0.0,0.9192932067626738,3.0186420788162347,0.11012058462464447,0.28,0,4,0.0
7.26463264899985,421,953.28,-93.1,3.8,-32.9,0.7,-2.53,-1.23,0.23,-0.91,-0.13,-95.9,71.4,-46.0,-1.92,-1.86,0.0,0.0,0.9475758544834287,2.8989308373950555,0.08020117816581163,0.28,0,4,0.0
7.273320581000007,422,953.29,-93.0,3.9,-33.1,1.21,-2.39,-1.04,0.26,-0.89,-0.14,-95.3,61.9,-98.0,-1.93,-1.51,0.05,0.0,0.937709976485267,2.873638808201198,0.0882657150406938,0.28,0,4,0.0
7.284632165999938,423,953.3,-92.9,4.0,-33.4,1.66,-2.2,-0.79,0.27,-0.85,-0.15,-94.8,45.8,-154.0,-1.95,-1.0,-0.01,0.0,0.9043782394551518,2.867001918380942,0.11916550302939277,0.28,0,4,0.0
7.293330892000085,424,953.31,-92.7,4.0,-33.6,1.91,-2.03,-0.49,0.26,-0.82,-0.15,-94.4,29.8,-142.0,-1.95,-0.65,0.09,0.0,0.8732124598286489,2.8300353354684455,0.14732465700277786,0.28,0,4,0.0
7.3046733199998926,425,953.32,-92.5,4.0,-33.8,1.87,-1.74,-0.16,0.25,-0.77,-0.16,-94.2,16.0,-131.0,-1.96,-0.3,-0.07,0.0,0.8252272414311103,2.559316314956008,0.19140367789231016,0.28,0,4,0.0
7.313182000999859,426,953.33,-92.4,4.0,-33.9,1.55,-1.41,0.24,0.25,-0.75,-0.16,-94.1,5.6,-112.0,-1.96,-0.03,0.01,0.0,0.8065977932030313,2.1090756269038815,0.20583246359798135,0.28,0,4,0.0
7.324749125999915,427,953.34,-92.2,4.0,-34.1,1.2,-1.01,0.6,0.27,-0.74,-0.16,-94.1,-1.9,-61.0,-1.96,0.05,0.01,0.0,0.8038034585643432,1.679315336677421,0.20445426227193608,0.28,0,4,0.0
7.333196132000012,428,953.35,-92.2,3.9,-34.1,0.9,-0.52,0.92,0.29,-0.74,-0.18,-94.1,-0.5,-3.0,-1.96,-0.02,-0.07,0.0,0.8149233092751734,1.3880922159568507,0.1894677233298837,0.28,0,4,0.0
7.3447552080001515,429,953.36,-92.1,3.8,-34.1,0.52,0.04,1.17,0.31,-0.76,-0.19,-94.1,1.2,-3.0,-1.96,0.0,0.1,0.0,0.8424962907930218,1.2809761902549164,0.15865684697579452,0.28,0,4,0.0
7.353191172000152,430,953.37,-92.1,3.7,-34.1,0.0,0.69,1.39,0.32,-0.79,-0.21,-94.1,-0.6,-12.0,-1.96,0.04,0.0,0.0,0.8778382538941899,1.5518376203714097,0.1208485861971339,0.28,0,4,0.0
7.364739848000227,431,953.38,-92.1,3.5,-34.0,-0.52,1.38,1.48,0.31,-0.86,-0.21,-94.1,-1.0,-4.0,-1.96,0.03,-0.08,0.0,0.9379765455489811,2.0893061049066026,0.059496088651495804,0.28,0,4,0.0
7.373088581000047,432,953.39,-92.1,3.4,-33.8,-0.79,2.05,1.51,0.29,-0.91,-0.21,-94.2,-0.7,0.0,-1.96,0.01,0.08,0.0,0.9779059259458448,2.665839455031004,0.01917537408953951,0.28,0,4,0.0
7.38462145099993,433,953.4,-92.2,3.2,-33.6,-0.88,2.57,1.58,0.26,-0.95,-0.18,-94.2,-1.4,-7.0,-1.96,0.06,-0.07,0.0,1.0012492197250393,3.1425626485402,0.004084561295861877,0.28,0,4,0.0
7.393307694000214,434,953.41,-92.3,3.1,-33.3,-0.71,2.9,1.63,0.23,-0.99,-0.15,-94.2,-3.1,-11.0,-1.96,0.09,-0.08,0.0,1.0273752965688827,3.401617262420921,0.02960642537691116,0.28,0,4,0.0
7.404692800000248,435,953.42,-92.3,2.9,-33.0,-0.48,3.05,1.69,0.2,-1.0,-0.12,-94.2,-4.7,-19.0,-1.95,0.17,-0.02,0.0,1.0268398122394748,3.519801130745883,0.02848952222655321,0.28,0,4,0.0
7.413132207000217,436,953.43,-92.3,2.8,-32.7,-0.2,3.07,1.79,0.17,-1.0,-0.1,-94.3,-9.8,-49.0,-1.95,0.34,-0.04,0.0,1.0192644406629714,3.5593538739495965,0.020495867637048804,0.28,0,4,0.0
7.42461825700002,437,953.44,-92.3,2.6,-32.3,0.09,2.96,1.88,0.13,-0.99,-0.07,-94.4,-13.6,-34.0,-1.95,0.41,0.03,0.0,1.000949549178179,3.5077200572451614,0.002137356629211329,0.28,0,4,0.0
7.433174704000066,438,953.45,-92.3,2.5,-32.0,0.24,2.82,2.03,0.11,-0.97,-0.06,-94.6,-16.8,-23.0,-1.94,0.45,-0.11,0.0,0.9780593029055038,3.4829441568879624,0.020337831850594568,0.28,0,4,0.0
7.44473675800009,439,953.46,-92.3,2.3,-31.8,0.36,2.62,2.18,0.11,-0.96,-0.05,-94.8,-20.0,-42.0,-1.94,0.61,-0.1,0.0,0.9675742865537508,3.4273021460034716,0.0302063912383006,0.28,0,4,0.0
7.453161456000089,440,953.47,-92.3,2.1,-31.5,0.36,2.41,2.33,0.11,-0.94,-0.05,-95.0,-25.3,-43.0,-1.93,0.73,0.08,0.0,0.9477341399358787,3.3714388619697675,0.04904560709904915,0.28,0,4,0.0
7.464830591000009,441,953.48,-92.2,2.0,-31.3,0.22,2.24,2.45,0.12,-0.95,-0.05,-95.3,-31.3,-69.0,-1.92,0.96,0.07,0.0,0.9588534820294495,3.3269355268775502,0.037167739705368796,0.28,0,4,0.0
7.473121856000034,442,953.49,-92.2,1.8,-31.0,0.08,2.15,2.54,0.14,-0.93,-0.07,-95.7,-40.0,-93.0,-1.91,1.26,0.15,0.0,0.9430800602281866,3.3287384997923763,0.05188233827649913,0.28,0,4,0.0
7.484665295000013,443,953.5,-92.2,1.5,-30.8,0.01,2.27,2.69,0.19,-0.93,-0.09,-96.2,-52.6,-96.0,-1.9,1.5,0.07,0.0,0.9534673565466204,3.5198153360652316,0.04066514111890396,0.28,0,4,0.0
7.493348876000255,444,953.51,-92.2,1.3,-30.6,-1.04,2.36,2.61,0.07,-1.03,-0.02,-96.7,-53.0,0.0,-1.88,1.33,0.06,0.0,1.032569610244268,3.6692369779015364,0.037668370327168854,0.28,0,4,0.0
7.50469324300002,445,953.52,-92.4,1.1,-30.3,-1.76,2.48,2.51,0.03,-1.02,-0.02,-97.2,-40.1,123.0,-1.87,0.8,-0.11,0.0,1.0206370559606386,3.943107911280136,0.025221099722668616,0.28,0,4,0.0
7.51313165900001,446,953.53,-92.5,0.8,-30.0,-2.1,2.63,2.29,0.04,-1.14,0.07,-97.4,-18.2,176.0,-1.87,0.25,0.0,0.0,1.1428473213863695,4.070749316772036,0.14448273784543153,0.28,0,4,0.0
7.52461062500015,447,953.54,-92.7,0.7,-29.8,-3.07,2.61,1.78,0.0,-1.28,0.1,-97.5,0.4,162.0,-1.87,-0.14,-0.19,0.0,1.2839003076563227,4.405156069879931,0.279825009633077,0.28,0,4,0.0
7.533150779000152,448,953.55,-93.0,0.5,-29.5,-3.7,2.79,1.23,-0.07,-1.43,0.03,-97.4,4.0,38.0,-1.87,-0.04,0.04,0.0,1.4320265360669822,4.794475988051249,0.4193922132828618,0.28,0,5,0.0
7.5447432290002325,449,953.56,-93.3,0.4,-29.2,-3.13,2.71,0.51,-0.14,-1.5,0.08,-97.4,-1.0,-7.0,-1.87,0.04,-0.1,0.0,1.5086417732516888,4.171462573246942,0.486087301458217,0.28,0,5,0.0
7.553155083000092,450,953.57,-93.6,0.4,-29.0,-0.95,1.94,-0.08,-0.14,-1.38,0.1,-97.4,0.2,13.0,-1.87,-0.02,-0.05,0.0,1.3906832852953974,2.1615966321217286,0.36076623723188717,0.28,0,5,0.0
7.564746388999993,451,953.58,-93.5,0.4,-28.8,1.25,1.61,-0.2,-0.07,-1.15,0.03,-97.4,0.2,0.0,-1.87,-0.01,0.0,0.0,1.1525189803209315,2.0480722643500644,0.1201498936122729,0.28,0,5,0.0
7.573145810999904,452,953.59,-93.3,0.5,-28.7,2.46,1.33,-0.1,0.0,-0.96,0.06,-97.4,0.3,-2.0,-1.87,0.0,0.22,0.0,0.9618731725128838,2.798303057211638,0.06908599591185915,0.28,0,5,0.0
7.584729713999877,453,953.6,-93.0,0.5,-28.5,3.06,1.28,0.09,0.11,-0.79,0.03,-97.4,-0.6,-6.0,-1.87,0.03,0.04,0.0,0.7981854421122951,3.318147073292563,0.22811825178619882,0.28,0,5,0.0
7.593221629000254,454,953.61,-92.7,0.5,-28.4,2.94,1.73,0.38,0.23,-0.69,-0.05,-97.4,-2.2,-16.0,-1.87,0.09,0.04,0.0,0.7290404652692468,3.43233156906497,0.2913179640566621,0.28,0,5,0.0
7.604747335999946,455,953.62,-92.4,0.4,-28.2,1.97,2.72,0.69,0.31,-0.62,-0.12,-97.5,-3.0,0.0,-1.87,0.06,-0.15,0.0,0.7034912934784624,3.4286148806770353,0.31052979313049767,0.28,0,5,0.0
7.61319234199982,456,953.63,-92.3,0.3,-27.8,0.64,3.86,0.92,0.33,-0.63,-0.13,-97.5,-2.3,3.0,-1.87,0.04,-0.03,0.0,0.7229799443968,4.019402940736348,0.2852203193679169,0.28,0,5,0.0
7.624757239000246,457,953.64,-92.3,0.3,-27.4,-0.56,4.8,0.96,0.3,-0.71,-0.12,-97.5,-0.5,17.0,-1.87,-0.01,0.17,0.0,0.7800640999302557,4.926986908852103,0.22357344055777206,0.28,0,5,0.0
7.63311673599992,458,953.65,-92.4,0.2,-26.9,-1.47,5.49,0.81,0.23,-0.81,-0.12,-97.5,0.4,5.0,-1.87,0.0,0.18,0.0,0.8505292469985968,5.7408274664894785,0.1500461276196423,0.28,0,5,0.0
7.644695733999924,459,953.66,-92.6,0.2,-26.3,-1.91,5.82,0.58,0.15,-0.89,-0.08,-97.5,1.0,10.0,-1.87,-0.04,-0.09,0.0,0.9060905032059435,6.15279611233787,0.0925951739840496,0.28,0,5,0.0
7.653134806000253,460,953.67,-92.8,0.2,-25.7,-2.27,6.04,0.4,0.08,-1.0,-0.05,-97.5,3.0,18.0,-1.87,-0.11,-0.1,0.0,1.0044401425669924,6.464866587950597,0.005639376069459301,0.28,0,5,0.0
7.664624427000035,461,953.68,-93.0,0.2,-25.1,-2.49,5.81,0.23,-0.02,-1.11,0.03,-97.4,5.6,24.0,-1.87,-0.19,-0.22,0.0,1.110585431202841,6.325274697592192,0.10954897141120168,0.28,0,5,0.0
7.6731545339998775,462,953.69,-93.2,0.2,-24.5,-2.24,5.36,0.06,-0.14,-1.21,0.02,-97.3,9.9,51.0,-1.87,-0.38,-0.31,0.0,1.2182364302548172,5.809543871940378,0.2128559710539144,0.28,0,5,0.0
7.684764360999907,463,953.7,-93.4,0.2,-24.0,-1.16,4.8,-0.01,-0.29,-1.27,0.0,-97.2,22.6,120.0,-1.88,-0.82,0.0,0.0,1.3026895255585653,4.93818792676018,0.2913628850305092,0.28,0,5,0.0
7.693095526999969,464,953.71,-93.4,0.2,-23.6,0.38,4.04,-0.04,-0.36,-1.26,-0.01,-96.8,36.5,124.0,-1.89,-1.15,-0.06,0.0,1.3104579352272243,4.058029078259543,0.29314866880518475,0.28,0,5,0.0
7.70462268700021,465,953.72,-93.3,0.3,-23.2,1.64,3.03,-0.1,-0.37,-1.21,0.01,-96.4,51.2,145.0,-1.9,-1.59,0.14,0.0,1.2653458025377884,3.446810119516304,0.24307580539343387,0.28,0,5,0.0
7.713211121999848,466,953.73,-93.1,0.3,-23.0,2.2,2.08,-0.28,-0.32,-1.13,0.0,-95.8,66.1,138.0,-1.92,-1.93,0.0,0.0,1.1744360348695027,3.0405262702367826,0.14912271697064527,0.28,0,5,0.0
7.724706896000043,467,953.74,-92.9,0.3,-22.8,1.79,1.28,-0.38,-0.24,-1.04,-0.02,-95.0,73.8,69.0,-1.94,-2.01,0.17,0.0,1.0675204916066015,2.2331368072735716,0.041363030233589226,0.28,0,5,0.0
7.733172160999857,468,953.75,-92.8,0.4,-22.7,0.9,0.81,-0.27,-0.12,-0.98,-0.06,-94.3,70.0,-22.0,-1.96,-1.8,0.15,0.0,0.9891410415102591,1.24056438768812,0.03627609146549804,0.28,0,5,0.0
7.744881842000268,469,953.76,-92.7,0.4,-22.6,0.13,0.77,-0.04,-0.01,-1.0,-0.08,-93.7,57.2,-106.0,-1.98,-1.37,0.19,0.0,1.0032447358446492,0.7819207120929845,0.02172894918848578,0.28,0,5,0.0
7.753209685999991,470,953.77,-92.8,0.4,-22.6,0.1,0.93,0.19,0.06,-1.04,-0.12,-93.2,37.9,-179.0,-1.99,-0.74,0.14,0.0,1.0486181383134663,0.9544631999192007,0.02317156421472455,0.28,0,5,0.0
7.764669567000055,471,953.78,-92.8,0.4,-22.5,0.42,1.2,0.46,0.08,-1.04,-0.11,-93.0,14.5,-217.0,-1.99,-0.09,0.12,0.0,1.0488565202161828,1.3520355024924455,0.022941747195092344,0.28,0,5,0.0
7.77322006500026,472,953.79,-92.7,0.4,-22.3,0.82,1.33,0.64,0.07,-1.01,-0.11,-93.0,-3.9,-146.0,-1.99,0.16,-0.13,0.0,1.0183810681665286,1.6884608375677537,0.00738303075747071,0.28,0,5,0.0
7.784818552000161,473,953.8,-92.7,0.3,-22.2,0.84,1.41,0.74,0.04,-0.96,-0.11,-93.1,-3.6,-20.0,-1.99,0.01,0.0,0.0,0.9671090941563936,1.800361074895811,0.05748190467225367,0.28,0,5,0.0
7.793181459000152,474,953.81,-92.7,0.3,-22.0,0.36,1.6,0.89,0.0,-0.93,-0.1,-93.1,1.5,10.0,-1.99,-0.03,0.09,0.0,0.9353608929178086,1.8659314028120113,0.08744550379262184,0.28,0,5,0.0
7.804775922999852,475,953.82,-92.7,0.2,-21.9,0.0,1.67,0.94,-0.04,-0.93,-0.08,-93.1,-0.7,-13.0,-1.99,0.03,0.0,0.0,0.9342911751697113,1.91637678967368,0.08674491710990473,0.28,0,5,0.0
7.813192082000114,476,953.83,-92.7,0.0,-21.7,-0.13,1.68,0.9,-0.07,-0.98,-0.08,-93.1,-0.8,1.0,-1.99,0.0,-0.04,0.0,0.9857484466130291,1.9103141102970473,0.034581892753255294,0.28,0,5,0.0
7.824686994999865,477,953.84,-92.7,0.0,-21.5,0.13,1.69,0.76,-0.1,-0.99,-0.08,-93.1,0.1,2.0,-1.99,0.0,0.0,0.0,0.9982484660644363,1.8575790696495262,0.021640235835811095,0.28,0,5,0.0
7.832970241000112,478,953.85,-92.7,-0.1,-21.3,0.51,1.61,0.57,-0.12,-0.97,-0.06,-93.1,0.0,1.0,-1.99,0.0,0.09,0.0,0.9792343948207701,1.7824421449236438,0.03984122093788767,0.28,0,5,0.0
7.844462858000043,479,953.86,-92.6,-0.1,-21.2,0.63,1.45,0.3,-0.14,-0.95,-0.03,-93.1,-0.1,0.0,-1.99,0.0,0.09,0.0,0.960728889958036,1.6091612722160573,0.05717979128460948,0.28,0,5,0.0
7.857174142000076,480,953.87,-92.6,-0.1,-21.1,0.5,1.16,0.01,-0.16,-0.93,0.0,-93.1,-0.1,0.0,-1.99,0.0,0.0,0.0,0.9436630754670864,1.263210196285638,0.07276069366004789,0.28,0,5,0.0
7.865485471999818,481,953.88,-92.6,-0.1,-21.0,0.21,0.85,-0.27,-0.17,-0.91,-0.01,-93.1,0.0,2.0,-1.99,0.0,0.09,0.0,0.9257969539807311,0.9162423260251623,0.08881427884347515,0.28,0,5,0.0
7.873592796000139,482,953.89,-92.5,-0.1,-20.9,-0.11,0.58,-0.48,-0.17,-0.87,-0.01,-93.1,0.0,0.0,-1.99,0.0,0.05,0.0,0.8865100112237876,0.7608547824650903,0.12553919716841033,0.28,0,5,0.0
7.8846187369999825,483,953.9,-92.6,0.0,-20.8,-0.46,0.35,-0.68,-0.19,-0.89,0.0,-93.1,0.0,0.0,-1.99,0.0,-0.01,0.0,0.9100549433962765,0.892468486838611,0.09995437969600307,0.28,0,5,0.0
7.893341361000239,484,953.91,-92.6,0.0,-20.8,-0.73,0.04,-0.92,-0.19,-0.91,-0.01,-93.1,-0.4,0.0,-1.99,0.0,0.04,0.0,0.9296773633901172,1.1751170154499508,0.07872532050811909,0.28,0,5,0.0
7.904773723999824,485,953.92,-92.7,0.1,-20.8,-0.91,-0.29,-1.2,-0.19,-0.92,-0.01,-93.1,0.2,0.0,-1.99,0.0,0.08,0.0,0.9394679345246436,1.5336883646947315,0.06755605438612078,0.28,0,5,0.0
7.913203547000194,486,953.93,-92.8,0.2,-20.9,-1.1,-0.71,-1.49,-0.19,-0.94,-0.01,-93.1,0.0,0.0,-1.99,0.0,0.04,0.0,0.9590620417887468,1.9834817871611528,0.04700270817957719,0.28,0,5,0.0
7.924635284000033,487,953.94,-93.0,0.4,-21.0,-1.31,-1.12,-1.79,-0.17,-0.94,-0.02,-93.1,-0.1,0.0,-1.99,0.0,0.0,0.0,0.9554580053565933,2.484874242290744,0.04959460971949614,0.28,0,5,0.0
7.933302857999934,488,953.95,-93.1,0.6,-21.1,-1.5,-1.42,-2.06,-0.16,-0.94,-0.04,-93.1,-0.1,-2.0,-1.99,0.01,0.0,0.0,0.9543584232352119,2.9171904291629644,0.04968030800406009,0.28,0,5,0.0
7.944775200000095,489,953.96,-93.3,0.8,-21.3,-1.71,-1.7,-2.29,-0.15,-0.94,-0.04,-93.1,-0.8,-3.0,-1.99,0.02,-0.14,0.0,0.952732911156112,3.3253871955006984,0.05027970368149681,0.28,0,5,0.0
7.953034807000222,490,953.97,-93.4,1.0,-21.5,-1.94,-1.9,-2.45,-0.14,-0.93,-0.05,-93.1,-1.6,-6.0,-1.99,0.04,-0.13,0.0,0.9418067742376883,3.6573350953939125,0.0599817237879221,0.28,0,5,0.0
7.964703981000184,491,953.98,-93.7,1.2,-21.7,-2.13,-2.04,-2.58,-0.15,-0.93,-0.06,-93.1,-2.6,-7.0,-1.98,0.07,-0.09,0.0,0.9439279633531364,3.918532888722513,0.056703323979024556,0.28,0,5,0.0
7.973172239000178,492,953.99,-93.9,1.5,-22.0,-2.32,-2.23,-2.74,-0.14,-0.93,-0.03,-93.2,-4.3,-18.0,-1.98,0.14,0.0,0.0,0.9409569596958195,4.22645241307648,0.05848084108361473,0.28,0,5,0.0
7.984772005000195,493,954.0,-94.1,1.8,-22.2,-2.43,-2.55,-2.97,-0.14,-0.93,-0.02,-93.2,-7.1,-41.0,-1.98,0.28,0.0,0.0,0.9406912352095134,4.607417931987503,0.05757163425852241,0.28,0,5,0.0
7.9931926409999505,494,954.01,-94.4,2.1,-22.5,-2.36,-2.94,-3.39,-0.16,-0.92,-0.01,-93.3,-11.9,-42.0,-1.98,0.38,0.18,0.0,0.9338629449764029,5.070039447578293,0.06311192600180027,0.28,0,5,0.0
8.00485563600023,495,954.02,-94.6,2.4,-22.9,-2.92,-3.25,-3.67,-0.19,-0.92,0.2,-93.5,-18.6,-58.0,-1.97,0.57,0.03,0.0,0.9604686356149273,5.70594426891816,0.035776110656010274,0.28,0,5,0.0
8.013076770000225,496,954.03,-95.1,2.7,-23.3,-6.69,-4.23,-2.77,-0.04,-1.01,0.24,-93.7,-25.5,-73.0,-1.97,0.81,0.15,0.0,1.0388936422945325,8.38581540459841,0.041795918103123,0.28,0,5,0.0
8.024723172999984,497,954.04,-96.1,2.8,-23.7,-11.12,-4.46,-0.91,0.36,-1.4,-0.11,-94.1,-38.8,-126.0,-1.95,1.24,0.0,0.0,1.4497241116847026,12.015577389372513,0.44357385974342733,0.28,0,6,0.0
8.03316926000025,498,954.05,-97.3,2.8,-24.1,-11.01,-2.87,0.7,0.82,-1.88,-0.38,-94.6,-53.8,-141.0,-1.94,1.65,0.0,0.0,2.0859530196051876,11.399429810301918,1.058206712310634,0.28,0,6,0.0
8.044752215000244,499,954.06,-98.1,2.6,-24.3,-4.94,-1.39,2.3,1.09,-2.03,-0.39,-95.2,-70.7,-158.0,-1.92,2.11,-0.04,0.0,2.3368996555265267,5.623673176848029,1.2829702812673336,0.28,0,6,0.0
8.053228882999974,500,954.07,-98.0,2.3,-24.3,6.37,-0.43,2.68,1.01,-1.89,-0.36,-96.0,-82.6,-103.0,-1.9,2.29,-0.22,0.0,2.172970317330635,6.9241750411150065,1.0966601242100131,0.28,0,6,0.0
8.064709203999882,501,954.08,-96.8,2.1,-24.2,16.7,1.49,1.86,0.47,-1.3,-0.37,-96.9,-84.6,-33.0,-1.87,2.28,-0.17,0.0,1.4310136267695008,16.869193815947458,0.34760936497590134,0.28,0,6,0.0
8.073009617000025,502,954.09,-94.9,2.0,-24.0,19.76,2.84,0.64,0.06,-0.78,-0.01,-97.7,-78.7,38.0,-1.85,2.04,-0.11,0.0,0.7823681997627461,19.973302180661065,0.2950153407902363,0.28,0,6,0.0
8.084806902999844,503,954.1,-93.0,2.0,-23.7,15.81,2.18,-0.08,-0.27,-0.32,0.29,-98.4,-67.5,104.0,-1.83,1.65,-0.14,0.0,0.5093132631298738,15.959790098870348,0.5567088718746465,0.28,0,6,0.0
8.108961908999845,505,954.12,-91.7,2.2,-23.7,-1.63,-1.15,-1.48,-0.52,-0.35,-0.09,-99.4,-35.5,148.0,-1.81,0.78,0.15,0.0,0.6332456079595026,2.4839082108644837,0.4241209965041173,0.28,0,6,0.0
8.11721044800015,506,954.13,-92.3,2.4,-23.8,-9.3,-1.04,-2.16,-0.52,-0.48,-0.2,-99.6,-23.4,118.0,-1.81,0.51,-0.06,0.0,0.7353910524340095,9.60401999164933,0.3155360409890182,0.28,0,6,0.0
8.125253732000147,507,954.14,-93.5,2.6,-24.0,-13.44,-1.64,-2.4,-0.26,-0.8,-0.17,-99.8,-12.8,105.0,-1.8,0.25,-0.08,0.0,0.858195781858662,13.750752706670278,0.18887668533307844,0.28,0,6,0.0
8.133170853000138,508,954.15,-94.9,2.8,-24.2,-12.79,-2.07,-2.14,-0.04,-1.06,0.0,-99.9,-5.6,75.0,-1.8,0.09,-0.09,0.0,1.0607544484940896,13.131968626218994,0.013408341676302227,0.28,0,6,0.0
8.144820237000204,509,954.16,-95.9,3.0,-24.4,-7.26,-2.36,-1.11,0.1,-1.4,0.08,-99.9,-0.5,55.0,-1.8,-0.02,-0.09,0.0,1.4058449416631977,7.7142271161795595,0.3513288581485021,0.28,0,6,0.0
8.153223506999893,510,954.17,-96.1,3.0,-24.7,1.07,-3.07,-0.18,0.26,-1.51,-0.14,-99.9,0.5,12.0,-1.8,0.01,0.0,0.0,1.5386032627028972,3.256101964005427,0.4744054356044376,0.28,0,6,0.0
8.16476893700019,511,954.18,-95.7,3.0,-25.0,6.67,-3.01,0.63,0.41,-1.4,-0.28,-99.9,-0.1,9.0,-1.8,-0.02,-0.09,0.0,1.485429230895905,7.344787267171188,0.4128067757214964,0.28,0,6,0.0
8.173332279000078,512,954.19,-94.9,2.9,-25.3,9.55,-2.54,0.95,0.37,-1.08,-0.1,-99.9,0.0,0.0,-1.8,0.0,0.09,0.0,1.145993019175946,9.927567677936022,0.0719031527215066,0.28,0,6,0.0
8.184637603999818,513,954.2,-94.0,2.7,-25.5,9.04,-2.74,0.84,0.36,-0.91,-0.04,-99.9,0.4,1.0,-1.8,0.0,-0.09,0.0,0.979438614717635,9.483396016195885,0.09275822670206835,0.28,0,6,0.0
8.19311714200012,514,954.21,-93.2,2.7,-25.8,6.39,-2.77,0.33,0.33,-0.73,-0.11,-99.9,-0.1,1.0,-1.8,-0.02,-0.21,0.0,0.8086408349817612,6.972366886502746,0.25828488630918345,0.28,0,6,0.0
8.20451716000025,515,954.22,-92.8,2.6,-26.1,2.85,-2.13,-0.17,0.3,-0.63,-0.21,-99.9,0.1,-3.0,-1.8,0.0,0.0,0.0,0.7286974680894672,3.562064008408608,0.33146368813744786,0.28,0,6,0.0
8.213313744000061,516,954.23,-92.7,2.7,-26.2,-0.7,-1.04,-0.38,0.23,-0.62,-0.14,-99.9,0.0,1.0,-1.8,0.0,0.0,0.0,0.6759437846448475,1.3099618315050252,0.37653302415042633,0.28,0,6,0.0
8.224733477999962,517,954.24,-92.9,2.7,-26.3,-2.9,-0.58,-0.4,0.18,-0.76,-0.06,-99.9,0.1,0.0,-1.8,0.0,0.16,0.0,0.7833262411026456,2.9843592277070132,0.2637675563387756,0.28,0,6,0.0
8.233145080000213,518,954.25,-93.2,2.7,-26.3,-2.74,-0.09,-0.23,0.15,-0.91,-0.09,-99.9,-0.1,0.0,-1.8,0.0,-0.08,0.0,0.9266606714434362,2.7511088673478556,0.1180244634780252,0.28,0,6,0.0
8.244847510999989,519,954.26,-93.4,2.8,-26.3,-1.47,-0.01,-0.1,0.13,-1.01,-0.05,-99.9,0.2,0.0,-1.8,0.0,0.0,0.0,1.0195587280779856,1.4734313692873515,0.024623878706606206,0.28,0,6,0.0
8.253212358999917,520,954.27,-93.5,2.8,-26.3,0.09,-0.07,0.04,0.11,-1.03,-0.08,-99.9,-0.1,1.0,-1.8,0.0,-0.08,0.0,1.0389417693018217,0.12083045973594572,0.00513602073311481,0.28,0,6,0.0
8.264749865999875,521,954.28,-93.4,2.9,-26.3,0.8,-0.11,0.13,0.1,-1.02,-0.08,-99.9,-0.1,0.0,-1.8,0.0,0.0,0.0,1.0280077820717117,0.8179242018671413,0.01574860780396037,0.28,0,6,0.0
8.273227600000155,522,954.29,-93.3,2.9,-26.3,0.77,-0.21,0.14,0.09,-0.97,-0.05,-99.9,0.1,3.0,-1.8,-0.01,0.16,0.0,0.9754486147409304,0.8103085831953157,0.06694161963204681,0.28,0,6,0.0
8.284810148999895,523,954.3,-93.3,2.9,-26.4,0.2,-0.24,0.07,0.1,-0.95,-0.06,-99.9,-0.1,-2.0,-1.8,0.0,-0.08,0.0,0.9571311299921239,0.32015621187164245,0.08355392229323622,0.28,0,6,0.0
8.29313128800004,524,954.31,-93.3,2.9,-26.4,-0.36,-0.34,0.12,0.11,-0.95,-0.04,-99.9,0.2,0.0,-1.8,0.0,-0.01,0.0,0.957183368012629,0.5095095681142799,0.08183165058727637,0.28,0,6,0.0
8.304655424999964,525,954.32,-93.3,2.9,-26.4,-0.46,-0.58,0.31,0.12,-0.97,-0.02,-99.9,0.0,-1.0,-1.8,0.0,0.16,0.0,0.9775990998359194,0.8025584090893323,0.0601876003887063,0.28,0,6,0.0
8.313155624000046,526,954.33,-93.4,2.9,-26.5,-0.2,-0.86,0.52,0.14,-0.99,-0.03,-99.9,0.4,2.0,-1.8,-0.01,0.16,0.0,1.000299955013495,1.02469507659596,0.03673701030690801,0.28,0,6,0.0
8.324779569999919,527,954.34,-93.4,2.9,-26.6,0.36,-1.1,0.63,0.14,-0.99,-0.05,-99.9,0.4,-1.0,-1.8,0.0,0.0,0.0,1.0010993956645864,1.3177632564311392,0.035218818262700236,0.28,0,6,0.0
8.333173203000115,528,954.35,-93.3,2.9,-26.7,0.61,-1.26,0.74,0.14,-0.97,-0.06,-99.9,0.4,0.0,-1.8,0.0,-0.08,0.0,0.9818859404228171,1.583445610054226,0.0533436280343802,0.28,0,6,0.0
8.345283932000257,529,954.36,-93.3,2.9,-26.8,0.76,-1.34,0.8,0.16,-0.96,-0.06,-99.9,0.1,-6.0,-1.8,0.01,0.0,0.0,0.9750897394599125,1.735857136978732,0.05893703241733905,0.28,0,6,0.0
8.353286166000089,530,954.37,-93.2,2.8,-27.0,0.73,-1.25,0.81,0.17,-0.95,-0.08,-99.9,0.2,4.0,-1.8,-0.02,0.0,0.0,0.9684007434941384,1.6587646005386056,0.06431350781545087,0.28,0,6,0.0
8.364938459999848,531,954.38,-93.1,2.7,-27.1,0.46,-1.01,0.84,0.19,-0.95,-0.09,-99.9,0.7,3.0,-1.8,-0.02,0.15,0.0,0.9729850975220535,1.3918692467326088,0.05853457071178503,0.28,0,6,0.0
8.377213660000052,532,954.39,-93.1,2.6,-27.2,0.22,-0.68,0.79,0.2,-0.97,-0.1,-99.9,0.1,-3.0,-1.8,0.0,0.0,0.0,0.9954396013822235,1.0653168542738822,0.03535846551458266,0.28,0,6,0.0
8.385245890000078,533,954.4,-93.1,2.6,-27.2,0.01,-0.32,0.69,0.2,-0.97,-0.09,-99.9,0.0,-1.0,-1.8,0.0,0.23,0.0,0.9944847912361455,0.7606576102294644,0.03558701014744747,0.28,0,6,0.0
8.393269795999913,534,954.41,-93.1,2.5,-27.2,-0.23,0.01,0.63,0.21,-0.98,-0.09,-99.9,0.5,6.0,-1.8,-0.03,-0.08,0.0,1.0062802790475425,0.6707458535093601,0.02331569188932958,0.28,0,6,0.0
8.40478685700009,535,954.42,-93.1,2.4,-27.2,-0.35,0.32,0.56,0.21,-1.0,-0.09,-99.8,1.4,6.0,-1.8,-0.04,0.14,0.0,1.0257680049601858,0.7338255923582933,0.0037514066571524562,0.28,0,6,0.0
8.413251302999925,536,954.43,-93.2,2.4,-27.1,-0.5,0.61,0.58,0.2,-1.01,-0.08,-99.8,1.6,2.0,-1.8,-0.04,-0.06,0.0,1.0327148686835104,0.9790301323248431,0.003131547924848599,0.28,0,6,0.0
8.424729484000181,537,954.44,-93.2,2.3,-27.1,-0.4,0.79,0.56,0.18,-1.02,-0.06,-99.8,1.9,4.0,-1.8,-0.06,-0.07,0.0,1.037496987947435,1.0477117924314874,0.007755393844997682,0.28,0,6,0.0
8.433276247999856,538,954.45,-93.2,2.3,-27.0,-0.23,0.91,0.52,0.16,-1.01,-0.04,-99.8,3.0,11.0,-1.8,-0.1,-0.06,0.0,1.023376763464952,1.0730330842988953,0.0062375340247355915,0.28,0,6,0.0
8.444891588000246,539,954.46,-93.2,2.3,-26.9,-0.09,0.88,0.52,0.14,-0.99,-0.04,-99.7,4.7,10.0,-1.81,-0.12,0.03,0.0,1.000649788887201,1.0261091559868276,0.02838521843043673,0.28,0,6,0.0
8.453203502000179,540,954.47,-93.2,2.3,-26.8,-0.07,0.86,0.51,0.12,-0.97,-0.05,-99.7,4.9,1.0,-1.81,-0.12,-0.03,0.0,0.9786725703727472,1.002297361066066,0.049355188205992606,0.28,0,6,0.0
8.46489944599989,541,954.48,-93.3,2.3,-26.7,-0.23,0.84,0.49,0.12,-0.94,-0.05,-99.6,2.6,-22.0,-1.81,-0.02,-0.09,0.0,0.9489467845985885,0.9992997548283498,0.07749935450054835,0.28,0,6,0.0
8.473228999000185,542,954.49,-93.3,2.4,-26.6,-0.46,0.83,0.52,0.14,-0.94,-0.05,-99.6,-0.5,-16.0,-1.81,0.01,0.0,0.0,0.9516827202382104,1.082081327812286,0.07326815048370794,0.28,0,6,0.0
8.484766316999867,543,954.5,-93.4,2.4,-26.5,-0.63,0.86,0.58,0.15,-0.94,-0.07,-99.6,0.1,-4.0,-1.81,0.0,0.04,0.0,0.9544631999192006,1.2136309158883518,0.06907791738666336,0.28,0,6,0.0
8.493387369000175,544,954.51,-93.4,2.3,-26.4,-0.58,0.98,0.72,0.15,-0.92,-0.08,-99.6,-0.1,-3.0,-1.81,0.01,-0.08,0.0,0.9355746896961247,1.3472935834479431,0.08620709905754442,0.28,0,6,0.0
8.504713301000265,545,954.52,-93.5,2.2,-26.3,-0.52,1.05,0.87,0.16,-0.93,-0.08,-99.6,0.0,0.0,-1.81,0.0,0.0,0.0,0.9470480452437459,1.45938343145316,0.07323906863972474,0.28,0,6,0.0
8.513391950999903,546,954.53,-93.5,2.2,-26.2,-0.63,1.21,0.95,0.17,-0.94,-0.09,-99.6,0.0,0.0,-1.81,0.0,-0.04,0.0,0.9594790253048786,1.6623778150588993,0.05959192680702019,0.28,0,6,0.0
8.524637282000185,547,954.54,-93.6,2.1,-26.1,-0.85,1.4,1.0,0.16,-0.95,-0.09,-99.7,0.0,4.0,-1.81,-0.01,-0.04,0.0,0.9675742865537508,1.9189841062395487,0.05046673224698506,0.28,0,6,0.0
8.533351577999838,548,954.55,-93.7,2.0,-25.9,-1.13,1.63,1.04,0.15,-0.97,-0.1,-99.7,-0.2,-5.0,-1.81,0.02,0.06,0.0,0.986610358753647,2.2395088747312433,0.030802046846146958,0.28,0,6,0.0
8.544568214000265,549,954.56,-93.8,1.9,-25.7,-1.29,1.91,1.07,0.13,-1.0,-0.1,-99.7,0.0,0.0,-1.81,0.0,-0.04,0.0,1.0133607452432722,2.5410824465176254,0.003970627149391337,0.28,0,6,0.0
8.55333584400023,550,954.57,-94.0,1.9,-25.5,-1.25,2.2,1.04,0.1,-1.04,-0.1,-99.7,-0.2,-1.0,-1.81,0.0,-0.03,0.0,1.049571341072154,2.735708317785359,0.03159516930590067,0.28,0,6,0.0
8.564734905000023,551,954.58,-94.1,1.8,-25.3,-1.07,2.42,0.95,0.09,-1.05,-0.08,-99.7,0.0,1.0,-1.81,0.0,0.01,0.0,1.0568822072492279,2.811369772904304,0.0381279147733149,0.28,0,6,0.0
8.573275556000226,552,954.59,-94.2,1.8,-25.0,-0.93,2.51,0.88,0.07,-1.02,-0.06,-99.7,0.0,1.0,-1.81,0.0,0.0,0.0,1.0241581909060729,2.817694092693527,0.005295820461556744,0.28,0,6,0.0
8.584879185999853,553,954.6,-94.2,1.7,-24.7,-0.79,2.68,0.89,0.05,-0.99,-0.08,-99.7,0.0,-1.0,-1.81,0.0,0.05,0.0,0.9944847912361455,2.9323369519889764,0.023890027624203225,0.28,0,6,0.0
8.593428270999993,554,954.61,-94.3,1.7,-24.5,-0.61,2.86,0.93,0.05,-0.97,-0.07,-99.7,0.1,2.0,-1.81,0.0,-0.04,0.0,0.9738069623903908,3.068647910725504,0.04367649934055884,0.28,0,6,0.0
8.604603883999971,555,954.62,-94.4,1.6,-24.2,-0.51,3.08,1.02,0.05,-0.95,-0.08,-99.7,-0.1,2.0,-1.81,-0.01,-0.14,0.0,0.9546727187890098,3.284341638745884,0.06155452808310091,0.28,0,6,0.0
8.613484411000172,556,954.63,-94.4,1.6,-23.8,-0.45,3.32,1.04,0.05,-0.95,-0.06,-99.7,0.2,0.0,-1.81,0.0,0.0,0.0,0.9532051195833979,3.508062143121185,0.06176168474293853,0.28,0,6,0.0
8.624886522999986,557,954.64,-94.4,1.5,-23.5,-0.45,3.57,1.0,0.05,-0.93,-0.07,-99.7,0.2,1.0,-1.81,-0.01,0.14,0.0,0.9339700209321496,3.734621801467988,0.07937684772630316,0.28,0,6,0.0
8.633280867999929,558,954.65,-94.5,1.4,-23.1,-0.43,3.78,0.92,0.05,-0.92,-0.08,-99.6,0.8,2.0,-1.81,-0.02,-0.04,0.0,0.9248243076390239,3.914038834758797,0.08675210979904024,0.28,0,6,0.0
8.644926471999952,559,954.66,-94.5,1.4,-22.7,-0.24,3.96,0.86,0.03,-0.9,-0.08,-99.6,2.6,15.0,-1.81,-0.09,0.04,0.0,0.9040464589831654,4.059408823954542,0.10537935928580078,0.28,0,6,0.0
8.65333850900015,560,954.67,-94.5,1.4,-22.3,-0.17,4.05,0.8,0.02,-0.9,-0.07,-99.6,4.9,22.0,-1.81,-0.16,-0.02,0.0,0.9029396436085858,4.131755075025624,0.10435645116717274,0.28,0,6,0.0
8.664795443000003,561,954.68,-94.5,1.3,-21.9,-0.32,4.12,0.62,0.0,-0.92,-0.07,-99.5,10.8,64.0,-1.81,-0.42,-0.15,0.0,0.9226592003551474,4.1786600723198335,0.082944156532199,0.28,0,6,0.0
8.673279619999903,562,954.69,-94.6,1.3,-21.5,-0.72,4.1,0.32,-0.04,-0.96,-0.06,-99.3,21.1,87.0,-1.82,-0.69,0.0,0.0,0.9627045237246993,4.1750209580312285,0.04204085649939404,0.28,0,6,0.0
8.68480139500025,563,954.7,-94.7,1.2,-21.1,-1.31,3.92,0.03,-0.09,-1.0,-0.05,-99.0,30.1,97.0,-1.83,-0.96,-0.08,0.0,1.0052860289489753,4.133206987316266,0.0005298357503844553,0.28,0,6,0.0
8.69345159500017,564,954.71,-94.8,1.3,-20.7,-1.79,3.6,-0.2,-0.13,-1.09,-0.05,-98.7,40.2,93.0,-1.84,-1.2,-0.08,0.0,1.0988630487917956,4.025431653872663,0.09222471848134073,0.28,0,6,0.0
8.704802615000062,565,954.72,-95.0,1.3,-20.4,-1.94,3.15,-0.37,-0.15,-1.16,-0.05,-98.2,47.9,81.0,-1.85,-1.4,-0.12,0.0,1.1707262703125783,3.7179295313386453,0.1608061812020809,0.28,0,6,0.0
8.713095218000035,566,954.73,-95.2,1.4,-20.1,-1.72,2.62,-0.38,-0.16,-1.23,-0.05,-97.7,52.2,37.0,-1.87,-1.41,0.28,0.0,1.2413702106946178,3.157087265186061,0.22682111915243808,0.28,0,6,0.0
8.724652702000185,567,954.74,-95.3,1.5,-19.9,-1.12,2.1,-0.24,-0.14,-1.26,-0.07,-97.2,49.8,-6.0,-1.88,-1.31,0.0,0.0,1.2696850003051938,2.3920702330826327,0.25003319058775375,0.28,0,6,0.0
8.733378688999892,568,954.75,-95.4,1.5,-19.7,-0.32,1.5,-0.02,-0.11,-1.26,-0.04,-96.7,42.6,-64.0,-1.89,-1.03,0.09,0.0,1.2654248298496438,1.5338839591051208,0.2408575597295597,0.28,0,6,0.0
8.745042961999843,569,954.76,-95.3,1.5,-19.5,0.9,1.22,0.26,-0.06,-1.22,-0.09,-96.4,31.5,-102.0,-1.9,-0.7,-0.08,0.0,1.2247856955402443,1.5381807436059003,0.19621405691175697,0.28,0,6,0.0
8.753335821999826,570,954.77,-95.2,1.4,-19.4,1.79,0.96,0.43,-0.03,-1.14,-0.07,-96.2,17.8,-127.0,-1.9,-0.3,0.0,0.0,1.1425410277097272,2.076198449089104,0.11169000129961515,0.28,0,6,0.0
8.764827064000201,571,954.78,-94.9,1.3,-19.3,2.09,0.65,0.52,-0.01,-1.03,-0.05,-96.1,2.7,-139.0,-1.9,0.08,-0.18,0.0,1.0312613635737546,2.24966664197165,0.00040213042036962854,0.28,0,6,0.0
8.773324972999944,572,954.79,-94.7,1.3,-19.3,1.82,0.5,0.64,0.0,-0.96,-0.07,-96.1,-3.7,-55.0,-1.9,0.07,0.0,0.0,0.9625487000666512,1.992987706936498,0.06694432242499915,0.28,0,6,0.0
8.784538724999948,573,954.8,-94.6,1.2,-19.2,1.22,0.54,0.8,0.0,-0.93,-0.12,-96.1,0.2,13.0,-1.9,-0.06,-0.13,0.0,0.937709976485267,1.5556349186104046,0.08994738508625555,0.28,0,6,0.0
8.793270350000057,574,954.81,-94.5,1.1,-19.2,0.82,0.82,1.02,0.0,-0.94,-0.14,-96.1,0.9,-12.0,-1.9,0.03,-0.23,0.0,0.9503683496413377,1.5444092721814382,0.07574323169158126,0.28,0,6,0.0
8.804785805999927,575,954.82,-94.5,1.0,-19.0,0.97,1.19,1.16,-0.01,-0.97,-0.11,-96.1,-1.5,-10.0,-1.9,0.04,-0.27,0.0,0.9762684057163787,1.924214125298949,0.04884631210420942,0.28,0,6,0.0
8.813366870000209,576,954.83,-94.4,0.8,-18.9,1.21,1.4,1.24,-0.02,-0.98,-0.09,-96.1,0.9,11.0,-1.9,-0.03,0.0,0.0,0.9843271813782244,2.2274873737015883,0.03997178571351645,0.28,0,6,0.0
8.824641942000198,577,954.84,-94.3,0.7,-18.7,1.2,1.5,1.21,-0.04,-0.95,-0.08,-96.1,0.4,-5.0,-1.9,0.0,0.04,0.0,0.95420123663722,2.270264301793956,0.0686957758454304,0.28,0,6,0.0
8.833292332999918,578,954.85,-94.2,0.5,-18.6,0.9,1.46,1.08,-0.06,-0.93,-0.07,-96.1,-0.6,-5.0,-1.9,0.02,-0.04,0.0,0.9345587193964862,2.026820169625317,0.08657152722444095,0.28,0,6,0.0
8.84489079900004,579,954.86,-94.1,0.4,-18.4,0.64,1.42,0.9,-0.07,-0.91,-0.07,-96.1,0.3,12.0,-1.9,-0.05,0.14,0.0,0.9153687781435415,1.7988885457415087,0.10364623910783799,0.28,0,6,0.0
8.853354715000023,580,954.87,-94.0,0.3,-18.3,0.45,1.32,0.63,-0.09,-0.91,-0.07,-96.1,0.4,-12.0,-1.9,0.03,0.0,0.0,0.9171150418568,1.5302940893828219,0.09986197588668777,0.28,0,6,0.0
8.864837709999847,581,954.88,-94.0,0.2,-18.2,0.17,1.15,0.36,-0.11,-0.89,-0.06,-96.1,-0.9,5.0,-1.9,-0.01,0.09,0.0,0.8987769467448529,1.2169634341261037,0.11583606957866233,0.28,0,6,0.0
8.873368994999964,582,954.89,-94.0,0.1,-18.1,-0.24,0.97,0.15,-0.12,-0.9,-0.06,-96.1,0.6,-4.0,-1.9,0.01,-0.18,0.0,0.9099450532861861,1.0104454463255301,0.10257460377658245,0.28,0,6,0.0
8.884499551999852,583,954.9,-94.0,0.0,-18.0,-0.52,0.79,-0.1,-0.13,-0.91,-0.06,-96.1,0.0,0.0,-1.9,0.0,-0.09,0.0,0.9211948762341224,0.9510520490488416,0.08949828521207315,0.28,0,6,0.0
8.893358747000093,584,954.91,-94.1,0.1,-17.9,-0.7,0.55,-0.42,-0.14,-0.91,-0.05,-96.1,-0.5,-4.0,-1.9,0.01,0.08,0.0,0.9220629045786409,0.9843271813782245,0.08685765173020366,0.28,0,6,0.0
8.904639703000157,585,954.92,-94.2,0.1,-17.9,-0.8,0.15,-0.76,-0.16,-0.91,-0.05,-96.1,0.1,5.0,-1.9,-0.02,0.04,0.0,0.9253107586103168,1.113597772986279,0.08193760174455733,0.28,0,6,0.0
8.917244159999882,586,954.93,-94.3,0.2,-17.9,-0.99,-0.32,-1.08,-0.17,-0.9,-0.04,-96.1,-0.2,-8.0,-1.9,0.03,-0.09,0.0,0.9167878707749139,1.4996332885075605,0.08865127978836107,0.28,0,6,0.0
8.925330941000084,587,954.94,-94.4,0.3,-18.0,-1.29,-0.89,-1.38,-0.18,-0.91,-0.03,-96.1,-0.9,2.0,-1.9,0.0,0.18,0.0,0.9281163720137686,2.0882049707823223,0.07577632297851622,0.28,0,6,0.0
8.933291706000091,588,954.95,-94.5,0.5,-18.1,-1.64,-1.49,-1.69,-0.19,-0.92,-0.05,-96.1,-0.5,-2.0,-1.9,0.02,-0.14,0.0,0.9407443861113389,2.78671850031538,0.06188534270332702,0.28,0,6,0.0
8.945227535999948,589,954.96,-94.7,0.7,-18.3,-1.84,-2.06,-1.96,-0.21,-0.95,-0.04,-96.1,-1.2,-9.0,-1.9,0.06,-0.14,0.0,0.973755616158387,3.3868569500349435,0.028296630403153444,0.28,0,6,0.0
8.953241349000109,590,954.97,-94.9,0.9,-18.6,-1.78,-2.62,-2.24,-0.23,-0.94,-0.06,-96.2,-3.0,-11.0,-1.9,0.09,-0.05,0.0,0.9695875411740809,3.879484501837841,0.03181541127971044,0.28,0,6,0.0
8.964707591000206,591,954.98,-95.1,1.1,-18.9,-1.64,-3.19,-2.55,-0.24,-0.92,-0.07,-96.2,-4.5,-25.0,-1.9,0.19,0.08,0.0,0.9533624704172071,4.400931719533944,0.047079672395852534,0.28,0,6,0.0
8.973253464000209,592,954.99,-95.2,1.3,-19.2,-1.49,-3.69,-2.89,-0.26,-0.88,-0.07,-96.3,-11.3,-56.0,-1.9,0.38,0.0,0.0,0.9202716990106781,4.918160225124838,0.07856703492633399,0.28,0,6,0.0
8.984971688999849,593,955.0,-95.4,1.6,-19.7,-1.5,-4.19,-3.3,-0.27,-0.84,-0.05,-96.4,-17.0,-103.0,-1.89,0.69,0.0,0.0,0.883742043811428,5.540406122298256,0.11279475632307245,0.28,0,6,0.0
8.993458316000215,594,955.01,-95.6,1.9,-20.1,-2.31,-4.63,-3.5,-0.24,-0.79,0.11,-96.7,-28.4,-94.0,-1.88,0.91,0.07,0.0,0.8329465769183519,6.246839200747846,0.1603184187518255,0.28,0,6,0.0
9.004728237000108,595,955.02,-96.0,2.1,-20.7,-6.17,-5.22,-2.68,-0.07,-0.88,0.06,-97.1,-40.3,-119.0,-1.87,1.28,0.16,0.0,0.8848163651289459,8.51467556633839,0.10627965793040695,0.28,0,6,0.0
9.013223838000158,596,955.03,-96.9,2.3,-21.2,-10.79,-4.82,-1.2,0.35,-1.3,-0.23,-97.6,-55.0,-155.0,-1.85,1.78,0.13,0.0,1.3657964709282273,11.87840477505292,0.36720643891149696,0.28,0,7,0.0
9.024765777000084,597,955.04,-98.1,2.3,-21.6,-12.03,-2.92,0.21,0.77,-1.77,-0.4,-98.3,-73.4,-170.0,-1.83,2.26,0.08,0.0,1.9712432625122656,12.381090420475894,0.9532001658856244,0.28,0,7,0.0
9.033288038000137,598,955.05,-99.1,2.1,-21.8,-7.4,-2.08,1.73,1.14,-1.88,-0.43,-99.1,-90.7,-171.0,-1.81,2.72,0.12,0.0,2.2402901597784157,7.879041819916937,1.1978021218887391,0.28,0,7,0.0
9.044746856000074,599,955.06,-99.4,1.9,-21.9,2.29,-0.66,2.92,1.05,-1.66,-0.42,-100.1,-104.9,-133.0,-1.78,2.99,0.05,0.0,2.008606482116395,3.7690980353394896,0.9467960753421842,0.28,0,7,0.0
9.053339408999818,600,955.07,-98.6,1.5,-21.8,11.8,0.73,3.5,0.62,-1.26,-0.51,-101.2,-110.5,-56.0,-1.75,3.0,0.0,0.0,1.4940214188558343,12.329756688596902,0.423566791839991,0.28,0,7,0.0
9.064588377999826,601,955.08,-97.2,1.2,-21.6,15.18,2.96,3.53,0.25,-0.8,-0.43,-102.3,-108.1,10.0,-1.72,2.83,-0.07,0.0,0.942019108086455,15.863634514196297,0.12586680855080046,0.28,0,7,0.0
9.073246140000265,602,955.09,-95.7,1.0,-21.2,13.28,4.03,2.45,-0.12,-0.57,-0.06,-103.4,-98.8,86.0,-1.69,2.46,0.0,0.0,0.585576638878294,14.092615087342732,0.4726630922037821,0.28,0,7,0.0
9.084819960999994,603,955.1,-94.6,0.8,-20.8,7.92,3.63,1.23,-0.3,-0.4,0.03,-104.2,-81.0,161.0,-1.67,1.89,-0.09,0.0,0.5008991914547277,8.798647623356672,0.5461937288348014,0.28,0,7,0.0
9.093397213000117,604,955.11,-94.3,0.8,-20.5,-0.18,2.69,-0.13,-0.45,-0.46,0.07,-104.9,-60.4,190.0,-1.66,1.34,0.09,0.0,0.6473020933072904,2.6991480137258126,0.391795010442594,0.28,0,7,0.0
9.10466549900002,605,955.12,-94.7,0.9,-20.2,-6.89,2.32,-0.96,-0.49,-0.52,-0.07,-105.4,-41.4,180.0,-1.65,0.89,-0.09,0.0,0.7179136438319026,7.3332189385017,0.3147597907196221,0.28,0,7,0.0
9.113300539000193,606,955.13,-95.7,1.0,-20.1,-11.87,1.41,-1.09,-0.37,-0.69,-0.1,-105.7,-26.8,142.0,-1.64,0.6,0.03,0.0,0.7893034904268446,12.003045446885553,0.2385025452421865,0.28,0,7,0.0
9.124837458000002,607,955.14,-97.0,1.1,-20.0,-13.08,0.96,-1.03,-0.2,-0.98,-0.08,-105.9,-16.9,113.0,-1.64,0.3,-0.01,0.0,1.0033942395688744,13.155565362233583,0.023923560178153558,0.28,0,7,0.0
9.133266177000223,608,955.15,-98.2,1.2,-19.9,-9.93,0.57,-0.45,-0.05,-1.26,0.0,-106.0,-8.0,93.0,-1.63,0.1,-0.09,0.0,1.2609916732476865,9.956520476552036,0.22900039603064526,0.28,0,7,0.0
9.14483264799992,609,955.16,-98.8,1.2,-19.9,-3.53,0.0,0.36,0.04,-1.41,-0.03,-106.0,-0.8,72.0,-1.63,-0.05,0.06,0.0,1.41088624630053,3.5483094566286066,0.3713170697018191,0.28,0,7,0.0
9.153330195999843,610,955.17,-98.8,1.1,-19.9,2.33,-0.61,1.11,0.11,-1.38,-0.13,-106.0,0.9,17.0,-1.63,0.0,-0.02,0.0,1.3904675472660264,2.65199924585208,0.34388040325396907,0.28,0,7,0.0
9.164642822000133,611,955.18,-98.3,1.0,-19.9,5.95,-0.83,1.54,0.12,-1.19,-0.1,-106.0,-0.1,7.0,-1.63,0.0,-0.01,0.0,1.2002083152519816,6.20185456133889,0.15054874781512573,0.28,0,7,0.0
9.173371965000115,612,955.19,-97.6,0.9,-20.0,6.59,-1.24,1.61,0.1,-0.97,0.0,-106.0,0.1,3.0,-1.63,0.0,0.06,0.0,0.9751410154434075,6.896216353914659,0.07302818095357932,0.28,0,7,0.0
9.184581803000128,613,955.2,-97.0,0.7,-20.2,4.94,-1.73,1.39,0.08,-0.82,0.0,-106.0,0.1,1.0,-1.63,0.0,-0.01,0.0,0.8238931969618392,5.415588610668281,0.2197904794464446,0.28,0,7,0.0
9.193141432000175,614,955.21,-96.7,0.6,-20.3,2.36,-1.83,0.92,0.06,-0.78,-0.05,-106.0,0.5,5.0,-1.64,-0.01,0.06,0.0,0.7839005038906405,3.1248839978469602,0.25458750906729033,0.28,0,7,0.0
9.204705905000083,615,955.22,-96.6,0.5,-20.5,0.01,-1.4,0.44,0.05,-0.8,-0.09,-106.0,1.2,5.0,-1.64,-0.03,-0.01,0.0,0.8065977932030313,1.467548977036201,0.22725241535980145,0.28,0,7,0.0
9.213267562000055,616,955.23,-96.7,0.5,-20.6,-1.52,-1.1,0.07,0.06,-0.92,-0.09,-106.0,0.7,-2.0,-1.64,-0.01,-0.09,0.0,0.9263368717696603,1.8775782273982622,0.10536307005730894,0.28,0,7,0.0
9.224657578000006,617,955.24,-96.8,0.6,-20.7,-1.58,-0.79,-0.31,0.07,-1.05,-0.11,-106.0,0.5,-3.0,-1.64,0.0,-0.09,0.0,1.0580642702596095,1.793488221316215,0.025837041863987498,0.28,0,7,0.0
9.2333552770001,618,955.25,-96.9,0.6,-20.8,-0.8,-0.62,-0.6,0.1,-1.1,-0.13,-106.0,0.0,-3.0,-1.64,0.01,-0.01,0.0,1.1121600604229591,1.1766052864066183,0.07833417538679033,0.28,0,7,0.0
9.244587140000021,619,955.26,-97.0,0.8,-20.8,0.13,-0.42,-0.78,0.13,-1.11,-0.15,-106.0,-0.3,-1.0,-1.64,0.01,-0.01,0.0,1.1276080879454529,0.895377015563835,0.09190655885109833,0.28,0,7,0.0
9.253051461000268,620,955.27,-96.9,0.9,-20.9,0.81,-0.35,-0.78,0.14,-1.03,-0.14,-106.0,0.0,1.0,-1.64,0.0,-0.01,0.0,1.0488565202161828,1.177709641634983,0.012891891299391611,0.28,0,7,0.0
9.26496668000027,621,955.28,-96.8,1.0,-20.9,0.8,0.0,-0.68,0.15,-0.98,-0.15,-106.0,0.1,0.0,-1.64,0.0,-0.01,0.0,1.00269636480841,1.0499523798725352,0.0326028988262137,0.28,0,7,0.0
9.273610810000264,622,955.29,-96.8,1.0,-20.9,0.37,0.22,-0.46,0.13,-0.92,-0.14,-106.0,0.0,0.0,-1.64,0.01,0.06,0.0,0.9396275858019495,0.63,0.09375824427602064,0.28,0,7,0.0
9.284914911000214,623,955.3,-96.7,1.1,-20.9,-0.1,0.39,-0.18,0.11,-0.9,-0.1,-106.0,-0.2,0.0,-1.64,0.0,0.06,0.0,0.9121951545584969,0.4410215414239989,0.1187668620090837,0.28,0,7,0.0
9.293294167000113,624,955.31,-96.8,1.1,-20.8,-0.52,0.45,0.04,0.08,-0.93,-0.07,-106.0,0.1,-2.0,-1.64,0.0,-0.01,0.0,0.936055553906925,0.688839603971781,0.09300833340744241,0.28,0,7,0.0
9.304872986000191,625,955.32,-96.8,1.2,-20.8,-0.63,0.35,0.25,0.06,-0.94,-0.07,-106.0,0.1,0.0,-1.64,0.0,0.06,0.0,0.9445104552094699,0.762823701781742,0.08286236346279963,0.28,0,7,0.0
9.313327630000003,626,955.33,-96.8,1.2,-20.7,-0.56,0.14,0.37,0.03,-0.98,-0.07,-106.0,-0.1,0.0,-1.64,0.0,0.06,0.0,0.9829547293746543,0.685638388656878,0.04352972751166284,0.28,0,7,0.0
9.324890364000112,627,955.34,-96.9,1.1,-20.7,-0.36,-0.11,0.32,0.02,-1.0,-0.08,-106.0,0.0,0.0,-1.64,0.0,0.06,0.0,1.0033942395688744,0.494064773081425,0.02262841297109386,0.28,0,7,0.0
9.333314640000026,628,955.35,-96.9,1.1,-20.8,-0.26,-0.3,0.25,0.02,-1.01,-0.09,-106.0,-0.2,0.0,-1.64,0.0,-0.09,0.0,1.0141991914806479,0.46914816422959604,0.011586991838133942,0.28,0,7,0.0
9.34530852700027,629,955.36,-96.9,1.1,-20.8,-0.16,-0.47,0.12,0.03,-1.01,-0.09,-106.0,0.3,4.0,-1.64,-0.01,-0.01,0.0,1.0144456614328832,0.5107837115648853,0.01111371144818074,0.28,0,7,0.0
9.353168543000265,630,955.37,-96.9,1.1,-20.9,-0.04,-0.6,0.04,0.04,-1.0,-0.09,-106.0,0.0,-2.0,-1.64,0.0,0.06,0.0,1.0048382954485762,0.6026607669327745,0.020306655883838065,0.28,0,7,0.0
9.364701188000254,631,955.38,-96.9,1.1,-20.9,0.11,-0.62,-0.01,0.06,-0.99,-0.1,-106.0,-0.3,0.0,-1.64,0.0,0.06,0.0,0.9968450230602548,0.6297618597533515,0.027733929706716287,0.28,0,7,0.0
9.373587166000107,632,955.39,-96.8,1.1,-21.0,0.16,-0.6,-0.01,0.09,-0.98,-0.11,-106.0,0.0,-3.0,-1.64,0.01,-0.09,0.0,0.9902524930541705,0.6210475022089695,0.033639930518544636,0.28,0,7,0.0
9.384807286000068,633,955.4,-96.8,1.2,-21.0,0.13,-0.5,0.01,0.12,-0.97,-0.11,-106.0,-0.3,2.0,-1.64,0.0,-0.01,0.0,0.9835649444749441,0.5167204273105526,0.03952092951581565,0.28,0,7,0.0
9.393361331000051,634,955.41,-96.8,1.2,-21.1,0.1,-0.37,0.07,0.12,-0.97,-0.11,-106.0,0.3,2.0,-1.64,0.01,0.07,0.0,0.9835649444749441,0.3896151947755631,0.038730510925499395,0.28,0,7,0.0
9.404536042000018,635,955.42,-96.8,1.3,-21.1,0.01,-0.21,0.17,0.12,-0.97,-0.11,-106.0,-0.2,0.0,-1.64,0.01,-0.01,0.0,0.9835649444749441,0.27037011669191546,0.0379559007069894,0.28,0,7,0.0
9.413125685000068,636,955.43,-96.8,1.3,-21.1,0.02,-0.05,0.24,0.11,-0.97,-0.11,-106.0,0.1,4.0,-1.64,0.0,-0.01,0.0,0.9823950325607311,0.24596747752497686,0.03834329636877842,0.28,0,7,0.0
9.42455582499997,637,955.44,-96.8,1.3,-21.1,0.0,0.09,0.3,0.09,-0.97,-0.1,-106.0,-0.4,-3.0,-1.64,0.0,-0.17,0.0,0.9792854537876073,0.3132091952673165,0.0406238176390642,0.28,0,7,0.0
9.433315151999977,638,955.45,-96.8,1.3,-21.1,-0.04,0.22,0.32,0.08,-0.98,-0.1,-106.0,0.5,2.0,-1.64,0.0,0.06,0.0,0.9883319280484669,0.3903844259188627,0.030945796510640444,0.28,0,7,0.0
9.444898460999866,639,955.46,-96.8,1.3,-21.1,-0.01,0.33,0.3,0.08,-0.98,-0.1,-106.0,-0.4,-4.0,-1.64,0.0,-0.09,0.0,0.9883319280484669,0.44609416046390926,0.03032688058042765,0.28,0,7,0.0
9.453357752000102,640,955.47,-96.8,1.3,-21.0,-0.02,0.43,0.26,0.08,-0.99,-0.1,-106.0,0.2,2.0,-1.64,-0.02,-0.01,0.0,0.9982484660644363,0.5028916384272063,0.02000213571316911,0.28,0,7,0.0
9.46465559399985,641,955.48,-96.8,1.3,-21.0,-0.07,0.5,0.22,0.08,-0.99,-0.1,-106.0,0.0,-4.0,-1.64,0.0,0.06,0.0,0.9982484660644363,0.5507267925205745,0.019602092998905696,0.28,0,7,0.0
9.473143664999952,642,955.49,-96.8,1.4,-20.9,-0.13,0.58,0.18,0.09,-0.98,-0.1,-106.0,0.0,2.0,-1.64,0.0,0.06,0.0,0.9891915891272024,0.6210475022089695,0.028085790537416888,0.28,0,7,0.0
9.484708370000135,643,955.5,-96.8,1.4,-20.8,-0.14,0.64,0.18,0.1,-0.98,-0.1,-106.0,0.0,0.0,-1.64,0.0,-0.09,0.0,0.990151503558925,0.6794115100585212,0.026583358583580408,0.28,0,7,0.0
9.49329623299991,644,955.51,-96.8,1.4,-20.8,-0.09,0.68,0.19,0.1,-0.99,-0.11,-106.0,-0.1,-1.0,-1.64,0.0,0.06,0.0,1.0010993956645864,0.7117583859709699,0.015322757148360733,0.28,0,7,0.0
9.504708500000106,645,955.52,-96.8,1.5,-20.7,0.05,0.71,0.18,0.09,-1.0,-0.11,-106.0,-0.2,-3.0,-1.64,0.01,-0.01,0.0,1.0100495037373167,0.7341661937191061,0.0062451960941178886,0.28,0,7,0.0
9.513270229000227,646,955.53,-96.8,1.5,-20.6,0.19,0.73,0.19,0.09,-1.0,-0.1,-106.0,0.1,4.0,-1.64,0.0,0.06,0.0,1.0090094152187083,0.7778817390837761,0.00713957892047179,0.28,0,7,0.0
9.524825019000218,647,955.54,-96.7,1.5,-20.5,0.29,0.72,0.22,0.08,-0.99,-0.09,-106.0,-0.1,2.0,-1.64,0.0,0.06,0.0,0.9972963451251589,0.8067837380611981,0.018475596033740826,0.28,0,7,0.0
9.53323469199995,648,955.55,-96.7,1.5,-20.5,0.38,0.7,0.28,0.07,-0.98,-0.08,-106.0,0.0,0.0,-1.64,0.0,-0.01,0.0,0.9857484466130291,0.8442748367682174,0.029423024654953167,0.28,0,7,0.0
