host_time_s,seq,device_time_s,roll,pitch,yaw,gyro_x,gyro_y,gyro_z,accel_x,accel_y,accel_z,belt_length,belt_velocity,belt_acceleration,motor_pos,motor_vel,motor_iq_meas,motor_iq_set,acc_mag,gyro_mag,acc_residual,threshold,heel_strike,hs_count,torque_cmd_nm
2.065481556999657,1,5673.23,-92.9,-2.4,-118.3,0.87,-5.7,0.12,-0.1,-0.96,0.19,-249.1,-281.6,282.0,2.31,6.43,-0.01,0.0,0.9837174391053561,5.767261048366027,0.0,0.5,0,0,0.0
2.073875009999938,2,5673.24,-92.8,-2.4,-118.9,1.37,-6.07,0.32,-0.06,-0.87,0.18,-252.6,-229.1,237.0,2.37,6.21,0.05,0.0,0.8904493247793498,6.230906836087344,0.09140275203948622,0.5,0,0,0.0
2.086226245999569,3,5673.25,-92.6,-2.5,-119.5,1.17,-6.21,0.48,-0.04,-0.87,0.13,-254.9,-226.0,126.0,2.43,6.01,-0.02,0.0,0.8805679985100526,6.337460059045737,0.09925839674260772,0.5,0,0,0.0
2.0984216169999854,4,5673.26,-92.5,-2.6,-120.1,1.16,-6.18,0.44,-0.02,-0.86,0.11,-257.1,-210.3,178.0,2.48,5.46,0.03,0.0,0.8672369918309527,6.3033007226373075,0.11033761535327347,0.5,0,0,0.0
2.1104814479995184,6,5673.28,-92.2,-2.6,-121.3,0.82,-5.45,-0.08,0.01,-0.89,0.02,-260.5,-141.1,371.0,2.57,3.3,-0.17,0.0,0.8902808545621994,5.511923439236071,0.08554787756958626,0.5,0,0,0.0
2.1219332299997404,7,5673.29,-92.1,-2.6,-121.8,0.2,-4.94,-0.46,0.05,-0.9,0.02,-261.6,-99.3,417.0,2.59,2.11,-0.16,0.0,0.90160967164289,4.9654002859789665,0.07273467927911781,0.5,0,0,0.0
2.1304009469995435,8,5673.3,-92.1,-2.6,-122.3,-0.48,-4.5,-0.85,0.1,-0.93,0.02,-262.3,-56.1,411.0,2.61,1.09,-0.17,0.0,0.9355746896961248,4.604660682395609,0.037994268001365294,0.5,0,0,0.0
2.1420554329997685,9,5673.31,-92.1,-2.5,-122.7,-0.78,-4.12,-1.16,0.15,-0.93,0.01,-262.6,-13.2,400.0,2.61,-0.02,-0.09,0.0,0.9420721840708386,4.350678108065455,0.030866838154118503,0.5,0,0,0.0
2.150308753999525,10,5673.32,-92.2,-2.4,-123.1,-0.73,-3.69,-1.36,0.18,-0.92,0.01,-262.5,19.2,325.0,2.6,-0.86,-0.07,0.0,0.9374966666607407,3.9998249961717076,0.034733508452932105,0.5,0,0,0.0
2.1619329679997463,11,5673.33,-92.3,-2.2,-123.5,-0.47,-3.31,-1.47,0.2,-0.89,0.01,-262.1,45.6,282.0,2.59,-1.55,-0.08,0.0,0.9122499657440388,3.6521089797540274,0.05878060518224126,0.5,0,0,0.0
2.1705041449995406,12,5673.34,-92.3,-2.1,-123.8,-0.26,-2.96,-1.46,0.18,-0.83,0.02,-261.4,72.0,280.0,2.57,-2.31,-0.06,0.0,0.8495292814258965,3.310709893663291,0.11907126371037602,0.5,0,0,0.0
2.1818101219996606,13,5673.35,-92.3,-2.0,-124.1,-0.23,-2.76,-1.34,0.13,-0.79,0.01,-260.5,98.4,266.0,2.54,-2.99,-0.15,0.0,0.8006872048434396,3.076702780575335,0.16455507348697618,0.5,0,0,0.0
2.1903018089997204,14,5673.36,-92.3,-1.9,-124.3,-0.31,-2.57,-1.17,0.09,-0.77,0.0,-259.4,122.8,243.0,2.51,-3.61,-0.25,0.0,0.7752418977325722,2.8407569413802367,0.18620037298588665,0.5,0,0,0.0
2.2018096639994837,15,5673.37,-92.3,-1.7,-124.6,-0.46,-2.44,-1.02,0.05,-0.77,0.0,-258.0,146.4,236.0,2.47,-4.25,0.02,0.0,0.771621668954417,2.684324868565651,0.1860241897287611,0.5,0,0,0.0
2.214377074999902,16,5673.38,-92.4,-1.6,-124.8,-0.7,-2.36,-0.83,0.02,-0.79,-0.01,-256.4,168.4,222.0,2.42,-4.85,-0.07,0.0,0.7903163923391695,2.5977875201794314,0.16398287701712844,0.5,0,0,0.0
2.222375467999882,17,5673.39,-92.4,-1.5,-125.1,-0.72,-2.3,-0.69,0.01,-0.83,-0.02,-254.5,191.5,233.0,2.37,-5.5,-0.41,0.0,0.8303011501858828,2.5068905041904,0.12151815678700684,0.5,0,0,0.0
2.230561989999842,18,5673.4,-92.5,-1.4,-125.3,-0.58,-2.25,-0.57,0.01,-0.86,-0.03,-252.4,214.4,225.0,2.31,-6.08,-0.04,0.0,0.8605811989580064,2.3924464466315647,0.08941334585458549,0.5,0,0,0.0
2.2418341409993445,19,5673.41,-92.5,-1.4,-125.5,-0.49,-2.21,-0.49,0.04,-0.89,-0.04,-250.1,236.9,229.0,2.24,-6.72,-0.02,0.0,0.8917959407846618,2.3160958529387337,0.05703463194737146,0.5,0,0,0.0
2.2503163189994666,20,5673.42,-92.6,-1.3,-125.8,-0.37,-2.14,-0.47,0.06,-0.9,-0.06,-247.6,262.0,254.0,2.17,-7.46,-0.23,0.0,0.9039911503991619,2.2220261024569448,0.043942633886214,0.5,0,0,0.0
2.261835092000183,21,5673.43,-92.6,-1.2,-126.0,-0.4,-2.0,-0.45,0.1,-0.9,-0.08,-244.8,289.1,262.0,2.09,-8.17,-0.04,0.0,0.9090654541890809,2.0886598574205424,0.03809096349436902,0.5,0,0,0.0
2.270454591000089,22,5673.44,-92.7,-1.2,-126.2,-0.57,-1.8,-0.45,0.12,-0.92,-0.1,-241.7,311.9,227.0,2.0,-8.73,-0.17,0.0,0.9331666517830564,1.9409791343546174,0.013709970582385655,0.5,0,0,0.0
2.2815735479998693,23,5673.45,-92.7,-1.1,-126.3,-0.65,-1.6,-0.43,0.14,-0.92,-0.11,-238.4,337.3,272.0,1.91,-9.56,-0.2,0.0,0.9370699013414101,1.779719078956002,0.009610586603551297,0.5,0,0,0.0
2.290393942999799,24,5673.46,-92.8,-1.1,-126.5,-0.67,-1.38,-0.39,0.14,-0.94,-0.13,-234.9,367.8,275.0,1.81,-10.29,-0.07,0.0,0.959218431849597,1.5828455388950622,0.012287185026542913,0.5,0,0,0.0
2.3020681339994553,25,5673.47,-92.8,-1.1,-126.6,-0.52,-1.14,-0.36,0.15,-0.94,-0.14,-231.0,390.5,235.0,1.7,-10.88,-0.13,0.0,0.9621330469326993,1.303687079018581,0.01489776410745236,0.5,0,0,0.0
2.310142063999592,26,5673.48,-92.9,-1.1,-126.7,-0.5,-0.98,-0.17,0.15,-0.91,-0.15,-227.0,414.2,252.0,1.59,-11.6,0.0,0.0,0.9343982020530648,1.1132385189167682,0.012580339156738507,0.5,0,0,0.0
2.321710548999363,27,5673.49,-92.9,-1.0,-126.8,-0.39,-0.78,-0.14,0.13,-0.93,-0.18,-222.6,441.3,269.0,1.47,-12.36,0.0,0.0,0.9561380653441218,0.8832326986700617,0.008976333651632196,0.5,0,0,0.0
2.3303661079999074,28,5673.5,-93.0,-1.0,-126.9,-0.16,-0.57,-0.1,0.12,-0.92,-0.19,-218.0,473.2,295.0,1.34,-13.19,0.02,0.0,0.9470480452437459,0.600416522091123,0.00011141271976888856,0.5,0,0,0.0
2.341753142000016,29,5673.51,-93.0,-1.0,-126.9,-0.06,-0.4,0.03,0.11,-0.9,-0.2,-213.1,493.1,212.0,1.2,-13.64,-0.13,0.0,0.9284934033152847,0.405585995813465,0.018292733555265395,0.5,0,0,0.0
2.3502593129996967,30,5673.52,-93.0,-1.1,-126.9,-0.01,-0.24,0.16,0.1,-0.9,-0.22,-208.0,516.9,234.0,1.06,-14.31,-0.08,0.0,0.9318798205777395,0.28861739379323625,0.014608189966954344,0.5,0,0,0.0
2.361910028999773,31,5673.53,-93.0,-1.1,-127.0,0.0,-0.07,0.32,0.09,-0.89,-0.24,-202.7,533.4,206.0,0.92,-14.83,-0.04,0.0,0.9261749294814668,0.327566787083184,0.019906819441962487,0.5,0,0,0.0
2.3703193069995905,32,5673.54,-93.0,-1.1,-127.0,0.03,0.16,0.51,0.08,-0.9,-0.25,-197.2,562.6,237.0,0.76,-15.51,-0.07,0.0,0.9374966666607407,0.5353503525729669,0.008413380617434796,0.5,0,0,0.0
2.381968790999963,33,5673.55,-93.0,-1.2,-126.9,0.14,0.41,0.68,0.07,-0.91,-0.25,-191.4,578.4,189.0,0.6,-15.96,-0.02,0.0,0.9463086177352503,0.8062877898120497,0.00039059904793325995,0.5,0,0,0.0
2.3902963659993475,34,5673.56,-92.9,-1.3,-126.9,0.31,0.64,0.81,0.09,-0.9,-0.26,-185.5,599.0,220.0,0.44,-16.63,0.05,0.0,0.9411163583744574,1.0778682665335315,0.004705627106602495,0.5,0,0,0.0
2.4017064479994588,35,5673.57,-92.9,-1.3,-126.8,0.32,0.92,0.9,0.09,-0.91,-0.24,-179.3,627.7,219.0,0.27,-17.21,-0.17,0.0,0.9454099639838793,1.3261975720080323,0.0004037810672369302,0.5,0,0,0.0
2.4102739680001832,36,5673.58,-92.9,-1.4,-126.7,0.33,1.15,1.09,0.13,-0.89,-0.24,-173.0,642.8,186.0,0.09,-17.67,-0.04,0.0,0.9309135298189624,1.6184869477385353,0.014602210927510795,0.5,0,0,0.0
2.4221225490000506,37,5673.59,-92.8,-1.5,-126.5,0.27,1.34,1.2,0.17,-0.87,-0.21,-166.5,634.4,-102.0,-0.07,-16.88,0.02,0.0,0.9109884741312593,1.8189282558693733,0.0338367212829096,0.5,0,0,0.0
2.4303772969997226,38,5673.6,-92.8,-1.7,-126.4,0.52,1.63,1.43,0.26,-0.82,-0.23,-160.5,591.9,-443.0,-0.23,-15.09,0.48,0.0,0.8904493247793498,2.229843043803756,0.053288353222122664,0.5,0,0,0.0
2.4417273629997,39,5673.61,-92.8,-1.8,-126.2,0.67,2.01,1.74,0.31,-0.81,-0.25,-155.2,498.3,-811.0,-0.36,-12.32,0.3,0.0,0.9026073343375846,2.7416418438592594,0.04030773679061017,0.5,0,0,0.0
2.4502743849998296,40,5673.62,-92.7,-2.0,-125.9,0.09,2.56,1.86,0.25,-0.86,-0.27,-150.9,401.0,-897.0,-0.46,-9.77,0.27,0.0,0.9354143466934853,3.165643694416666,0.007350709946015166,0.5,0,0,0.0
2.4619045529998402,41,5673.63,-92.8,-2.1,-125.7,-0.96,3.0,1.59,0.14,-0.94,-0.25,-147.5,314.0,-844.0,-0.54,-7.56,0.46,0.0,0.982700361249552,3.528413241104279,0.03913659851785045,0.5,0,0,0.0
2.470165273999555,42,5673.64,-92.9,-2.3,-125.3,-1.57,3.05,1.08,0.05,-0.98,-0.19,-144.9,234.9,-811.0,-0.61,-5.41,0.49,0.0,0.9994998749374608,3.596359270150856,0.0548173899616442,0.5,0,0,0.0
2.4817263340000864,43,5673.65,-93.1,-2.3,-125.1,-1.59,2.72,0.66,0.0,-0.99,-0.15,-143.1,154.6,-805.0,-0.64,-3.23,0.13,0.0,1.0012991560967182,3.219021590483668,0.05548433769848349,0.5,0,0,0.0
2.490349879999485,44,5673.66,-93.3,-2.4,-124.8,-1.26,2.13,0.42,-0.04,-0.99,-0.15,-142.1,78.2,-753.0,-0.66,-1.27,0.22,0.0,1.0020977996183806,2.5101593574910734,0.05515732159574305,0.5,0,0,0.0
2.5018137070001103,45,5673.67,-93.5,-2.4,-124.6,-0.96,1.6,0.41,-0.05,-0.98,-0.19,-141.7,13.1,-650.0,-0.66,0.3,0.13,0.0,0.9994998749374608,1.9104188022525324,0.05150820897652675,0.5,0,0,0.0
2.510515371999645,46,5673.68,-93.6,-2.4,-124.5,-0.65,1.12,0.48,-0.02,-0.96,-0.23,-141.9,-24.5,-388.0,-0.66,0.9,0.06,0.0,0.9873702446397703,1.381050324933889,0.038591007105259534,0.5,0,0,0.0
2.521772291000161,47,5673.69,-93.7,-2.5,-124.4,-0.31,0.82,0.61,0.03,-0.96,-0.29,-142.3,-45.4,-279.0,-0.64,1.51,0.22,0.0,1.0032945728947207,1.067988763985839,0.05342502865300569,0.5,0,0,0.0
2.5301697899994906,48,5673.7,-93.7,-2.5,-124.3,-0.18,0.81,0.66,0.05,-1.0,-0.33,-142.9,-70.9,-283.0,-0.62,2.31,0.09,0.0,1.054229576515476,1.0602358228243376,0.10227283162828593,0.5,0,0,0.0
2.541673445000015,49,5673.71,-93.7,-2.6,-124.2,-0.32,0.9,0.52,0.09,-1.07,-0.34,-143.9,-112.9,-422.0,-0.59,3.7,0.18,0.0,1.1263214461245066,1.087566089945802,0.17087740721257005,0.5,0,0,0.0
2.550374448000184,50,5673.72,-93.8,-2.6,-124.1,-0.85,1.35,0.27,0.07,-1.23,-0.37,-145.4,-160.0,-419.0,-0.55,4.81,0.16,0.0,1.2863514294313199,1.6179925834193432,0.3242892427089956,0.5,0,0,0.0
2.5617407359995923,51,5673.73,-94.0,-2.6,-124.0,-1.9,1.41,-0.49,-0.08,-1.42,-0.27,-147.2,-192.5,-335.0,-0.49,5.58,0.09,0.0,1.447653273404927,2.4162367433676692,0.4758792649489507,0.5,0,0,0.0
2.570385091999924,52,5673.74,-94.2,-2.5,-123.8,-2.2,1.35,-1.15,-0.09,-1.41,-0.2,-149.3,-221.5,-315.0,-0.43,6.4,0.08,0.0,1.426954799564443,2.8257742301889586,0.4460771752862973,0.5,0,0,0.0
2.5819008709995614,53,5673.75,-94.5,-2.4,-123.7,-1.89,1.04,-1.65,-0.02,-1.38,-0.17,-151.8,-253.6,-312.0,-0.36,7.24,0.13,0.0,1.3905754204644922,2.7159160517217757,0.40150384026261965,0.5,0,0,0.0
2.590289703000053,54,5673.76,-94.7,-2.2,-123.6,-1.82,0.88,-1.92,0.0,-1.28,-0.21,-154.5,-279.7,-250.0,-0.28,7.83,-0.01,0.0,1.2971121771072849,2.788045910669335,0.30187978496730405,0.5,0,0,0.0
2.601646494999841,55,5673.77,-94.9,-1.9,-123.6,-2.31,0.79,-2.07,-0.01,-1.2,-0.18,-157.4,-292.6,-133.0,-0.2,8.0,0.07,0.0,1.2134661099511597,3.2007967758044247,0.21386904345495528,0.5,0,0,0.0
2.610278623999875,56,5673.78,-95.2,-1.7,-123.5,-2.72,0.52,-2.25,-0.06,-1.18,-0.08,-160.3,-292.0,-9.0,-0.12,7.8,-0.08,0.0,1.184229707446997,3.568094729684177,0.1809399881317768,0.5,0,0,0.0
2.6218660360000285,57,5673.79,-95.5,-1.5,-123.5,-2.98,0.22,-2.25,-0.02,-1.16,-0.05,-163.2,-278.3,122.0,-0.05,7.27,-0.06,0.0,1.1612493272333895,3.7404946196993785,0.15480041575980596,0.5,0,0,0.0
2.630215686000156,58,5673.8,-95.8,-1.3,-123.5,-3.22,0.15,-2.34,0.04,-1.33,0.01,-165.8,-254.0,203.0,0.01,6.61,0.02,0.0,1.3306389442670015,3.9832775449370836,0.31770623213754967,0.5,0,0,0.0
2.641824999000164,59,5673.81,-96.1,-1.0,-123.5,-3.36,0.02,-2.82,0.06,-1.42,0.03,-168.2,-231.7,201.0,0.07,6.07,0.0,0.0,1.4215836239912163,4.386616007812856,0.40047789362452924,0.5,0,0,0.0
2.6503280480001195,60,5673.82,-96.4,-0.7,-123.5,-3.5,0.26,-2.92,0.08,-1.41,0.02,-170.4,-213.7,182.0,0.13,5.59,0.26,0.0,1.4124092891226678,4.565522971139232,0.3834774875808611,0.5,0,0,0.0
2.6618639899998016,61,5673.83,-96.7,-0.4,-123.5,-2.4,0.71,-2.46,0.13,-1.32,0.01,-172.4,-196.8,176.0,0.18,5.12,-0.16,0.0,1.3264237633576985,3.509373163401122,0.291542122579574,0.5,0,0,0.0
2.670321337999667,62,5673.84,-96.9,-0.2,-123.4,-0.71,1.49,-1.5,0.25,-1.18,-0.03,-174.2,-179.8,173.0,0.23,4.66,-0.14,0.0,1.206565373280702,2.230291460773681,0.1682500578525259,0.5,0,0,0.0
2.6978852719994393,64,5673.86,-96.8,0.0,-122.9,1.24,3.74,-0.1,0.3,-0.98,-0.05,-177.4,-150.6,133.0,0.31,3.95,-0.12,0.0,1.0261091559868276,3.941471806318041,0.011962036252521457,0.5,0,0,0.0
2.7063430929993046,65,5673.87,-96.7,0.0,-122.5,1.52,4.92,0.1,0.25,-0.9,-0.01,-178.9,-137.9,127.0,0.35,3.6,-0.04,0.0,0.9341306118525396,5.150417458808557,0.10186176877907327,0.5,0,0,0.0
2.714293311999427,66,5673.88,-96.5,0.0,-121.9,1.31,5.81,0.22,0.19,-0.87,0.07,-180.2,-125.6,125.0,0.38,3.25,0.03,0.0,0.8932524839036273,5.959916106792107,0.13988509879342592,0.5,0,0,0.0
2.722251258999677,67,5673.89,-96.4,0.0,-121.3,1.14,6.32,0.06,0.13,-0.92,0.12,-181.3,-112.2,134.0,0.41,2.88,0.09,0.0,0.9368564457802486,6.422273740662259,0.09435551417846844,0.5,0,0,0.0
2.730474691999916,68,5673.9,-96.3,0.1,-120.7,1.07,6.5,-0.29,0.04,-0.96,0.12,-182.3,-96.6,161.0,0.44,2.39,-0.07,0.0,0.9682974749528164,6.5938607810599095,0.06165619530578259,0.5,0,0,0.0
2.7417440700000952,69,5673.91,-96.2,0.2,-120.1,1.3,6.26,-0.71,-0.03,-0.97,0.17,-183.2,-76.8,187.0,0.46,1.84,-0.03,0.0,0.9852410872471773,6.432860949841835,0.043818331351193285,0.5,0,0,0.0
2.7504147129993726,70,5673.92,-96.0,0.4,-119.5,1.69,5.7,-1.09,-0.09,-0.94,0.18,-183.8,-57.2,192.0,0.47,1.31,-0.09,0.0,0.9613012014972206,6.044352736232391,0.06640305275912683,0.5,0,0,0.0
2.7617435349993684,71,5673.93,-95.8,0.6,-119.0,1.58,5.04,-1.25,-0.15,-0.9,0.14,-184.2,-37.9,180.0,0.48,0.85,-0.09,0.0,0.9230926280715278,5.427752757817917,0.10251939366112317,0.5,0,0,0.0
2.7703302069994606,72,5673.94,-95.7,0.7,-118.5,0.97,4.4,-1.21,-0.19,-0.87,0.09,-184.5,-25.5,132.0,0.49,0.57,-0.1,0.0,0.8950418984606252,4.66529741817175,0.12795872080658532,0.5,0,0,0.0
2.7818024379994313,73,5673.95,-95.6,0.9,-118.1,0.42,3.8,-0.89,-0.22,-0.86,0.06,-184.7,-17.6,87.0,0.5,0.41,0.01,0.0,0.889719056781409,3.925366224952775,0.13061593123608561,0.5,0,0,0.0
2.7901922800001557,74,5673.96,-95.6,1.0,-117.8,0.12,3.24,-0.52,-0.22,-0.88,0.04,-184.9,-14.5,32.0,0.5,0.41,0.0,0.0,0.9079647570252933,3.2836564984784875,0.11012282637235726,0.5,0,0,0.0
2.801785531999485,75,5673.97,-95.6,1.0,-117.5,0.11,2.7,-0.18,-0.19,-0.91,0.01,-185.0,-17.9,-31.0,0.5,0.6,-0.09,0.0,0.9296773633901172,2.708228203087768,0.08664201560738283,0.5,0,0,0.0
2.8104125039999417,76,5673.98,-95.6,1.1,-117.2,0.1,2.26,0.16,-0.16,-0.91,-0.02,-185.3,-30.0,-106.0,0.51,1.01,-0.17,0.0,0.9241753080449617,2.2678624296901253,0.09030118953348754,0.5,0,0,0.0
2.8216030859994135,77,5673.99,-95.5,1.0,-117.0,0.08,2.09,0.45,-0.15,-0.93,-0.05,-185.7,-46.4,-148.0,0.53,1.48,0.24,0.0,0.9433451118228153,2.139392437118538,0.06970875804052135,0.5,0,0,0.0
2.8304265489996396,78,5674.0,-95.5,1.0,-116.8,0.33,2.04,0.57,-0.12,-0.97,-0.05,-186.1,-59.5,-221.0,0.55,2.02,0.23,0.0,0.9786725703727472,2.1436884101939815,0.033693673500777566,0.5,0,0,0.0
2.841750607999529,79,5674.01,-95.5,1.0,-116.6,0.73,1.98,0.6,-0.09,-0.97,-0.04,-187.1,-85.9,-224.0,0.57,2.6,0.01,0.0,0.9749871794028884,2.1939234261933573,0.03663148318122378,0.5,0,0,0.0
2.8502803430001222,80,5674.02,-95.4,0.9,-116.4,1.09,1.84,0.63,-0.05,-0.94,-0.03,-188.1,-105.0,-191.0,0.6,3.06,0.0,0.0,0.9418067742376882,2.2294842452908252,0.06841565057949539,0.5,0,0,0.0
2.8618348760001027,81,5674.03,-95.2,0.8,-116.2,1.27,1.71,0.65,-0.02,-0.91,-0.04,-189.3,-120.3,-157.0,0.63,3.44,0.14,0.0,0.9110982383914481,2.2269934889891347,0.09714170269722078,0.5,0,0,0.0
2.870270471999902,82,5674.04,-95.0,0.8,-116.1,1.38,1.58,0.55,0.0,-0.91,-0.05,-190.6,-133.1,-127.0,0.67,3.73,-0.06,0.0,0.9113725912051558,2.1687092935661063,0.09493000288584286,0.5,0,0,0.0
2.881752043999768,83,5674.05,-94.9,0.7,-115.9,1.24,1.49,0.58,-0.01,-0.86,-0.06,-191.9,-139.8,-77.0,0.71,3.86,0.19,0.0,0.8621484790916237,2.0233882474700695,0.14127103269938746,0.5,0,0,0.0
2.890306684999814,84,5674.06,-94.8,0.6,-115.7,0.83,1.32,0.71,-0.02,-0.85,-0.05,-193.4,-142.5,-30.0,0.75,3.86,0.0,0.0,0.8517041739947033,1.7133009076049661,0.14868103104038166,0.5,0,0,0.0
2.90179490599985,85,5674.07,-94.7,0.5,-115.6,0.49,1.14,0.86,-0.04,-0.86,-0.05,-194.8,-140.2,10.0,0.78,3.76,0.0,0.0,0.8623804264940154,1.50973507609779,0.13524468297024828,0.5,0,0,0.0
2.9103684920000887,86,5674.08,-94.7,0.4,-115.5,0.36,0.96,0.95,-0.06,-0.9,-0.07,-196.1,-134.2,48.0,0.82,3.57,-0.04,0.0,0.9047098982546837,1.3977481890526633,0.09105690698538826,0.5,0,0,0.0
2.92157152999971,87,5674.09,-94.6,0.3,-115.4,0.5,0.8,1.05,-0.06,-0.91,-0.09,-197.4,-126.1,75.0,0.85,3.31,-0.08,0.0,0.9164060235506967,1.4115594213493106,0.07777356605558783,0.5,0,0,0.0
2.930416311999579,88,5674.1,-94.6,0.1,-115.3,0.68,0.72,1.08,-0.07,-0.93,-0.11,-198.6,-115.3,105.0,0.88,2.96,0.0,0.0,0.939095309327014,1.4653327267211362,0.05398259467368505,0.5,0,0,0.0
2.94168605699997,89,5674.11,-94.5,0.0,-115.3,0.74,0.63,1.09,-0.07,-0.92,-0.14,-199.7,-100.7,129.0,0.91,2.58,0.09,0.0,0.9332202312423366,1.4603424255975035,0.05866051930319527,0.5,0,0,0.0
2.950314136000088,90,5674.12,-94.4,0.0,-115.2,0.78,0.62,1.1,-0.06,-0.93,-0.16,-200.6,-88.8,125.0,0.94,2.25,0.0,0.0,0.9455686120002081,1.4841832770921521,0.045385895774417206,0.5,0,0,0.0
2.9618092849996174,91,5674.13,-94.3,-0.1,-115.1,1.03,0.58,1.01,-0.06,-0.93,-0.18,-201.4,-75.4,129.0,0.96,1.89,-0.03,0.0,0.9491575211733826,1.5547990223819925,0.040961046869217865,0.5,0,0,0.0
2.9702502330001153,92,5674.14,-94.2,-0.2,-115.0,1.34,0.55,0.84,-0.07,-0.92,-0.2,-202.1,-62.7,125.0,0.97,1.56,0.13,0.0,0.9440868604106298,1.6744252745345194,0.04511107347933119,0.5,0,0,0.0
2.981759346999752,93,5674.15,-94.1,-0.3,-115.0,1.69,0.46,0.57,-0.08,-0.91,-0.19,-202.6,-53.8,82.0,0.99,1.41,-0.01,0.0,0.9330594836343501,1.8419011917038328,0.055015681250498716,0.5,0,0,0.0
2.990203561999806,94,5674.16,-93.9,-0.3,-114.9,2.2,0.32,0.15,-0.1,-0.89,-0.18,-203.1,-48.1,62.0,1.0,1.25,0.01,0.0,0.9135097153287425,2.2282055560472873,0.07307414056498418,0.5,0,0,0.0
3.00186569699963,95,5674.17,-93.6,-0.3,-114.9,2.53,0.04,-0.29,-0.14,-0.82,-0.17,-203.6,-44.3,43.0,1.01,1.15,-0.25,0.0,0.8490583018850942,2.5468804447794557,0.13477504292845977,0.5,0,0,0.0
3.0104020019998643,96,5674.18,-93.4,-0.2,-115.0,2.18,-0.41,-0.52,-0.16,-0.75,-0.16,-204.0,-42.1,23.0,1.02,1.13,0.01,0.0,0.7833900688673554,2.278354669492878,0.1964344104272746,0.5,0,0,0.0
3.021455703999891,97,5674.19,-93.2,-0.2,-115.0,1.25,-0.86,-0.57,-0.16,-0.72,-0.15,-204.4,-44.8,-22.0,1.03,1.27,0.01,0.0,0.7526619427073484,1.6208022704821214,0.22261928585553592,0.5,0,0,0.0
3.030225579999751,98,5674.2,-93.2,-0.1,-115.1,0.23,-1.25,-0.6,-0.14,-0.73,-0.16,-204.9,-49.7,-40.0,1.05,1.41,0.28,0.0,0.7603288762108144,1.4054892386638895,0.21065330530502857,0.5,0,0,0.0
3.0417365550001705,99,5674.21,-93.2,-0.1,-115.3,-0.65,-1.51,-0.62,-0.12,-0.78,-0.16,-205.5,-58.7,-87.0,1.07,1.74,-0.16,0.0,0.8052328855678959,1.7569860557215586,0.16243431002898812,0.5,0,0,0.0
3.0503033260001757,100,5674.22,-93.3,0.0,-115.4,-1.04,-1.67,-0.66,-0.08,-0.85,-0.16,-206.1,-70.8,-106.0,1.08,2.05,0.13,0.0,0.8686195945291586,2.0751144546747295,0.09706664904637086,0.5,0,0,0.0
3.0617353439993167,101,5674.23,-93.4,0.0,-115.6,-1.17,-1.78,-0.69,-0.04,-0.89,-0.17,-206.9,-84.6,-140.0,1.11,2.51,0.02,0.0,0.9069729874698585,2.2390623037334176,0.057538990983557525,0.5,0,0,0.0
3.070419493999907,102,5674.24,-93.5,0.0,-115.8,-1.3,-1.82,-0.65,-0.01,-0.92,-0.19,-207.9,-102.0,-166.0,1.14,3.0,0.01,0.0,0.9394679345246436,2.3291414727319593,0.024543163050196992,0.5,0,0,0.0
3.0817443129999447,103,5674.25,-93.7,0.0,-116.0,-1.37,-1.68,-0.5,0.0,-0.96,-0.2,-209.1,-120.4,-166.0,1.17,3.45,0.0,0.0,0.980612053770501,2.2247022272654826,0.016268937071747147,0.5,0,0,0.0
3.094369308999376,104,5674.26,-93.9,0.1,-116.1,-1.37,-1.52,-0.28,0.01,-1.01,-0.2,-210.4,-135.8,-159.0,1.21,3.88,-0.07,0.0,1.0296601381038308,2.065357111978459,0.06401068097697549,0.5,0,0,0.0
3.1023430199993527,105,5674.27,-94.0,0.1,-116.3,-0.99,-1.39,-0.08,0.02,-1.07,-0.23,-211.8,-150.5,-146.0,1.25,4.24,0.07,0.0,1.0946232228488486,1.7083910559353792,0.12639429040755334,0.5,0,0,0.0
3.110282155999812,106,5674.28,-94.1,0.1,-116.4,-0.28,-1.35,0.16,0.03,-1.08,-0.26,-213.2,-160.7,-117.0,1.29,4.52,0.08,0.0,1.1112605455067683,1.3879841497654073,0.14017098080416357,0.5,0,0,0.0
3.121626483,107,5674.29,-94.1,0.0,-116.6,0.03,-1.31,0.49,0.04,-1.1,-0.28,-214.9,-169.0,-89.0,1.34,4.71,0.22,0.0,1.1357816691600549,1.3989639023220006,0.16139826236830113,0.5,0,0,0.0
3.1302349689995026,108,5674.3,-94.1,0.0,-116.7,0.2,-1.23,0.67,0.04,-1.17,-0.26,-216.7,-175.7,-68.0,1.39,4.85,-0.02,0.0,1.1992080720208649,1.4148498153514386,0.22032817192452891,0.5,0,0,0.0
3.1417397089999213,109,5674.31,-94.1,0.0,-116.8,0.11,-1.23,0.76,0.01,-1.23,-0.18,-218.4,-180.9,-53.0,1.44,4.95,0.0,0.0,1.2431411826498227,1.4500344823486095,0.258976056902417,0.5,0,0,0.0
3.150449906999711,110,5674.32,-94.1,-0.1,-116.9,0.22,-1.32,0.82,0.01,-1.28,-0.16,-220.3,-183.1,-28.0,1.49,5.02,-0.31,0.0,1.29,1.569458505345076,0.29971817676754253,0.5,0,0,0.0
3.161647154000093,111,5674.33,-94.1,-0.2,-117.0,0.5,-1.15,1.01,0.04,-1.29,-0.19,-222.1,-187.0,-47.0,1.54,5.17,0.09,0.0,1.304530566909032,1.6101552720157146,0.3079637688030429,0.5,0,0,0.0
3.1703252639999846,112,5674.34,-94.1,-0.3,-117.1,0.48,-0.84,1.2,0.03,-1.3,-0.15,-224.0,-194.8,-78.0,1.59,5.45,0.1,0.0,1.3089690599857584,1.5414279094398153,0.306154216642174,0.5,0,0,0.0
3.1816490419996626,113,5674.35,-94.1,-0.4,-117.2,0.06,-0.74,1.43,0.02,-1.32,-0.05,-226.1,-206.7,-114.0,1.65,5.83,0.02,0.0,1.3210980281568814,1.611241757155021,0.3119175211170311,0.5,0,0,0.0
3.19013916699987,114,5674.36,-94.1,-0.6,-117.3,-0.76,-0.56,1.84,0.08,-1.37,0.0,-228.2,-222.0,-147.0,1.71,6.3,-0.01,0.0,1.3723337786413334,2.06804255275369,0.35589020616945355,0.5,0,0,0.0
3.2020501339993643,115,5674.37,-94.2,-0.8,-117.3,-0.83,-0.16,2.22,0.13,-1.48,0.06,-230.6,-241.2,-186.0,1.78,6.89,0.04,0.0,1.4869095466772686,2.3754788990854037,0.4610566547212809,0.5,0,0,0.0
3.214428248999866,116,5674.38,-94.2,-1.0,-117.2,0.05,0.26,2.57,0.13,-1.48,0.09,-233.2,-265.8,-233.0,1.85,7.61,0.07,0.0,1.4884219831754704,2.5836021365527624,0.4533177093950931,0.5,0,0,0.0
3.22215023499939,117,5674.39,-94.1,-1.3,-117.2,1.54,0.4,2.7,0.1,-1.41,0.18,-236.0,-289.4,-216.0,1.93,8.14,0.09,0.0,1.424956139675885,3.1339432030590473,0.38205482857759754,0.5,0,0,0.0
3.2302297629994428,118,5674.4,-93.9,-1.5,-117.1,2.41,0.02,2.33,0.0,-1.21,0.23,-239.0,-305.5,-173.0,2.02,8.55,0.25,0.0,1.231665539016173,3.352223142930673,0.18498894335952798,0.5,0,0,0.0
3.241738474000158,119,5674.41,-93.7,-1.7,-117.2,1.72,-0.83,1.84,-0.14,-0.99,0.28,-242.2,-324.4,-208.0,2.11,9.17,0.18,0.0,1.038315944209661,2.6519615381826336,0.00819343841804443,0.5,0,0,0.0
3.250261238999883,120,5674.42,-93.6,-1.9,-117.3,0.23,-1.86,1.31,-0.29,-0.87,0.29,-245.6,-347.5,-204.0,2.2,9.68,-0.01,0.0,0.9618211892030659,2.286613216090557,0.08299442955614666,0.5,0,0,0.0
3.2617290640000647,121,5674.43,-93.6,-2.0,-117.5,-0.82,-2.99,0.97,-0.37,-0.85,0.32,-249.2,-360.1,-132.0,2.3,9.92,0.2,0.0,0.9807140255956371,3.248599698331575,0.06281956130030386,0.5,0,0,0.0
3.2703296529998624,122,5674.44,-93.7,-2.1,-117.9,-1.09,-4.03,0.84,-0.36,-0.9,0.28,-252.8,-370.2,-112.0,2.4,10.16,0.15,0.0,1.0089598604503551,4.2584739050509635,0.033882251916674155,0.5,0,0,0.0
3.281589917999554,123,5674.45,-93.8,-2.2,-118.3,-0.68,-4.66,0.82,-0.32,-0.94,0.24,-256.6,-370.4,18.0,2.5,9.85,-0.11,0.0,1.0215674231297707,4.78020920044301,0.020849195452513403,0.5,0,0,0.0
3.2903147990000434,124,5674.46,-93.8,-2.4,-118.8,-0.22,-5.28,0.91,-0.22,-0.94,0.21,-260.1,-351.9,153.0,2.6,9.21,-0.14,0.0,0.9879777325425912,5.362359555270422,0.05335010831889886,0.5,0,0,0.0
3.3017338619993097,125,5674.47,-93.8,-2.5,-119.4,0.14,-5.76,0.92,-0.1,-0.94,0.15,-263.5,-325.7,240.0,2.68,8.39,0.0,0.0,0.9571311299921239,5.834689366195941,0.08251277665197887,0.5,0,0,0.0
3.3103356479996364,126,5674.48,-93.7,-2.6,-120.0,0.48,-5.81,0.9,-0.03,-0.94,0.08,-266.5,-292.2,326.0,2.76,7.35,-0.25,0.0,0.9438749917229505,5.898855821258899,0.0938535366227291,0.5,0,0,0.0
3.32163133999984,127,5674.49,-93.7,-2.7,-120.5,0.27,-5.49,0.8,0.01,-0.98,0.04,-269.2,-250.6,396.0,2.82,6.14,-0.1,0.0,0.9808669634563089,5.5545476863557495,0.055724333591583464,0.5,0,0,0.0
3.3303177079997113,128,5674.5,-93.6,-2.9,-121.0,-0.05,-5.03,0.57,0.07,-1.04,0.04,-271.4,-205.6,440.0,2.88,4.88,-0.13,0.0,1.0431203190428227,5.062440123102692,0.006398441555031775,0.5,0,0,0.0
3.341624648999641,129,5674.51,-93.6,-2.9,-121.5,-0.04,-4.54,0.28,0.12,-1.07,0.04,-273.1,-157.7,469.0,2.92,3.56,-0.04,0.0,1.0774506949276148,4.54880204009803,0.03991424109102737,0.5,0,0,0.0
3.3501741019999827,130,5674.52,-93.6,-3.0,-121.9,0.05,-4.07,-0.02,0.16,-1.06,0.02,-274.3,-110.5,469.0,2.94,2.29,-0.35,0.0,1.072194012294417,4.070356249764878,0.03396440728867289,0.5,0,0,0.0
3.361765461999312,131,5674.53,-93.6,-3.0,-122.3,0.14,-3.53,-0.31,0.18,-1.01,-0.01,-275.1,-63.1,472.0,2.96,1.02,-0.18,0.0,1.0259629622944486,3.546350236510771,0.012021309857069395,0.5,0,0,0.0
3.37031352699978,132,5674.54,-93.5,-2.9,-122.6,0.0,-3.03,-0.54,0.16,-0.93,0.0,-275.4,-17.7,458.0,2.96,-0.19,-0.21,0.0,0.9436630754670864,3.0777426793024785,0.09243477275074297,0.5,0,0,0.0
3.381764256999304,133,5674.55,-93.5,-2.9,-122.9,-0.27,-2.66,-0.64,0.13,-0.86,0.0,-275.3,22.4,378.0,2.95,-1.05,0.09,0.0,0.8697700845625814,2.7491998836025,0.16300120838214294,0.5,0,0,0.0
3.390313285999582,134,5674.56,-93.6,-2.8,-123.2,-0.54,-2.34,-0.64,0.1,-0.82,0.0,-274.9,52.1,317.0,2.94,-1.81,-0.07,0.0,0.8260750571225353,2.4853168812044872,0.2025623111057453,0.5,0,0,0.0
3.4016337019993443,135,5674.57,-93.6,-2.8,-123.4,-0.69,-2.09,-0.58,0.06,-0.81,-0.01,-274.2,80.1,289.0,2.91,-2.57,0.16,0.0,0.8122807396460907,2.276093143964016,0.212029496010546,0.5,0,0,0.0
3.410297534000165,136,5674.58,-93.7,-2.7,-123.6,-0.85,-1.85,-0.5,0.03,-0.82,-0.03,-273.2,106.8,280.0,2.88,-3.31,-0.01,0.0,0.8210968274204936,2.096425529323663,0.19914914007142015,0.5,0,0,0.0
3.421613098999842,137,5674.59,-93.7,-2.6,-123.8,-1.05,-1.68,-0.5,0.03,-0.85,-0.04,-271.9,133.6,272.0,2.84,-4.04,0.0,0.0,0.85146931829632,2.043257203584512,0.16540111621168196,0.5,0,0,0.0
3.4302995239995653,138,5674.6,-93.9,-2.5,-124.0,-1.17,-1.51,-0.55,0.03,-0.88,-0.06,-270.4,160.0,259.0,2.8,-4.69,0.0,0.0,0.8825531145489205,1.987838021570168,0.13163097355989994,0.5,0,0,0.0
3.4416302820000055,139,5674.61,-94.0,-2.4,-124.1,-1.15,-1.35,-0.6,0.05,-0.89,-0.07,-268.6,183.7,247.0,2.75,-5.37,-0.09,0.0,0.8941476388158726,1.8721645226849055,0.11763572030708891,0.5,0,0,0.0
3.4502980639999805,140,5674.62,-94.1,-2.3,-124.2,-0.97,-1.15,-0.66,0.06,-0.9,-0.09,-266.6,208.2,245.0,2.69,-6.01,-0.09,0.0,0.9064766957842877,1.6428633540255257,0.10320053007190022,0.5,0,0,0.0
3.4616630149994307,141,5674.63,-94.2,-2.3,-124.3,-0.78,-0.98,-0.71,0.07,-0.9,-0.1,-264.4,232.2,242.0,2.62,-6.68,-0.19,0.0,0.9082400563727632,1.4397569239284802,0.09940842609375633,0.5,0,0,0.0
3.470175988999472,142,5674.64,-94.2,-2.2,-124.4,-0.63,-0.87,-0.81,0.08,-0.89,-0.1,-261.9,256.1,233.0,2.55,-7.3,-0.2,0.0,0.899166280506559,1.34532523948672,0.10631255792076133,0.5,0,0,0.0
3.4817537629996878,143,5674.65,-94.3,-2.1,-124.5,-0.65,-0.81,-0.9,0.09,-0.88,-0.11,-259.2,279.4,235.0,2.47,-7.97,-0.09,0.0,0.891403387922662,1.3742634390829147,0.11179394149456512,0.5,0,0,0.0
3.4902614989996437,144,5674.66,-94.4,-2.0,-124.6,-0.74,-0.73,-0.95,0.11,-0.88,-0.12,-256.2,304.4,249.0,2.39,-8.63,-0.07,0.0,0.8949301648732151,1.4081903280451828,0.10610182125313194,0.5,0,0,0.0
3.501748662999489,145,5674.67,-94.4,-2.0,-124.7,-0.79,-0.65,-0.91,0.13,-0.87,-0.14,-253.0,327.5,227.0,2.3,-9.22,-0.22,0.0,0.890730037665734,1.3691968448692833,0.1080959094914008,0.5,0,0,0.0
3.5103240769994954,146,5674.68,-94.5,-1.9,-124.8,-0.7,-0.51,-0.8,0.14,-0.89,-0.15,-249.6,348.6,219.0,2.2,-9.82,-0.22,0.0,0.9133454987024351,1.1790250209389113,0.08377083948560571,0.5,0,0,0.0
3.5218691209993267,147,5674.69,-94.6,-1.8,-124.8,-0.57,-0.32,-0.56,0.15,-0.88,-0.17,-245.9,375.1,260.0,2.1,-10.61,-0.16,0.0,0.9087353850269065,0.8607554821202128,0.08661333409791161,0.5,0,0,0.0
3.5303633519997675,148,5674.7,-94.6,-1.8,-124.8,-0.3,-0.14,-0.28,0.16,-0.89,-0.19,-242.0,398.6,220.0,1.99,-11.13,-0.21,0.0,0.9240129869217207,0.433589667773576,0.06990901755903545,0.5,0,0,0.0
3.5416839829995297,149,5674.71,-94.6,-1.8,-124.8,-0.04,-0.02,0.02,0.15,-0.89,-0.18,-237.8,424.3,290.0,1.87,-12.09,-0.03,0.0,0.9203260291874831,0.048989794855663564,0.07212405578740766,0.5,0,0,0.0
3.550331611999354,150,5674.72,-94.6,-1.8,-124.8,0.15,0.1,0.26,0.13,-0.92,-0.21,-233.4,455.7,267.0,1.75,-12.73,-0.08,0.0,0.9525754563287887,0.3163858403911275,0.039077136073179974,0.5,0,0,0.0
3.561630479000087,151,5674.73,-94.6,-1.8,-124.8,0.55,0.21,0.39,0.11,-0.92,-0.21,-228.6,479.0,255.0,1.61,-13.38,-0.04,0.0,0.9500526301210896,0.7061869440877536,0.04076796303526142,0.5,0,0,0.0
3.5704448509995927,152,5674.74,-94.5,-1.9,-124.8,0.83,0.33,0.67,0.1,-0.88,-0.21,-223.7,505.5,263.0,1.47,-14.16,-0.18,0.0,0.9102197536858888,1.1165572085656874,0.078988822681053,0.5,0,0,0.0
3.5817528119996496,153,5674.75,-94.4,-1.9,-124.7,0.96,0.5,0.94,0.08,-0.88,-0.22,-218.4,537.9,314.0,1.33,-15.06,-0.09,0.0,0.9106041950265769,1.4335968749965942,0.07703229371355769,0.5,0,0,0.0
3.590236791999814,154,5674.76,-94.3,-2.0,-124.7,1.04,0.71,1.14,0.06,-0.87,-0.22,-212.8,560.3,227.0,1.17,-15.57,-0.04,0.0,0.899388681271896,1.698617084572035,0.08648285131887379,0.5,0,0,0.0
3.601830629999313,155,5674.77,-94.2,-2.2,-124.6,0.98,0.94,1.34,0.05,-0.86,-0.23,-207.1,583.9,211.0,1.01,-16.04,-0.13,0.0,0.8916277250063503,1.9077735714701576,0.092358931432731,0.5,0,0,0.0
3.6103493290002007,156,5674.78,-94.1,-2.3,-124.4,0.76,1.17,1.36,0.05,-0.87,-0.23,-201.1,601.4,253.0,0.85,-16.89,0.0,0.0,0.9012768719988326,1.948358283273382,0.08105558875144381,0.5,0,0,0.0
3.6215905369999746,157,5674.79,-94.1,-2.4,-124.3,0.51,1.33,1.41,0.07,-0.86,-0.23,-194.9,629.3,220.0,0.68,-17.37,0.04,0.0,0.892972563968233,2.0042704408337713,0.08757269884640251,0.5,0,0,0.0
3.630097156999909,158,5674.8,-94.1,-2.5,-124.2,0.19,1.45,1.4,0.08,-0.89,-0.23,-188.5,650.1,235.0,0.5,-18.08,0.05,0.0,0.9227133899537818,2.0244999382563584,0.056675235403636615,0.5,0,0,0.0
3.6417274149998775,159,5674.81,-94.1,-2.7,-124.0,-0.12,1.54,1.29,0.11,-0.93,-0.22,-181.7,684.0,336.0,0.31,-19.08,-0.48,0.0,0.9619771307052991,2.012486024796197,0.017063264759076935,0.5,0,0,0.0
3.6504772509997565,160,5674.82,-94.1,-2.8,-123.8,-0.17,1.66,1.16,0.12,-0.93,-0.23,-174.7,709.6,264.0,0.11,-19.69,0.04,0.0,0.9655050491841045,2.0322647465327934,0.013264639354666152,0.5,0,0,0.0
3.6617355889993632,161,5674.83,-94.1,-2.9,-123.6,-0.31,1.8,1.08,0.1,-0.93,-0.22,-167.5,727.3,149.0,-0.07,-19.96,-0.06,0.0,0.9608850087289322,2.1219095173922944,0.017526986213641682,0.5,0,0,0.0
3.6703915959997175,162,5674.84,-94.2,-3.0,-123.5,-0.36,1.91,1.07,0.1,-0.9,-0.23,-160.1,741.6,104.0,-0.28,-20.01,-0.06,0.0,0.9342911751697112,2.218693309134906,0.04323840337740548,0.5,0,0,0.0
3.681675783999708,163,5674.85,-94.2,-3.1,-123.2,-0.36,2.02,1.08,0.09,-0.88,-0.22,-152.8,719.3,-232.0,-0.47,-18.55,0.9,0.0,0.9115371632577577,2.3187065359807826,0.06467256698357182,0.5,0,0,0.0
3.6902909390000787,164,5674.86,-94.2,-3.2,-123.0,0.17,1.9,1.15,0.17,-0.82,-0.17,-146.2,616.7,-1018.0,-0.63,-14.14,0.42,0.0,0.8545174076635302,2.227420032234603,0.1192584761262433,0.5,0,0,0.0
3.701660630999868,165,5674.87,-94.2,-3.3,-122.8,1.16,2.16,1.56,0.25,-0.81,-0.21,-141.4,419.4,-1768.0,-0.72,-8.2,0.68,0.0,0.8733269719870103,2.9059938059121877,0.098439933566708,0.5,0,0,0.0
3.7102517929997703,166,5674.88,-94.1,-3.4,-122.6,0.11,2.43,1.25,-0.01,-1.11,-0.24,-138.6,223.8,-1739.0,-0.77,-3.75,0.53,0.0,1.1356936206565573,2.734867455654844,0.16064818080078225,0.5,0,0,0.0
3.7214369650000663,167,5674.89,-94.2,-3.5,-122.3,-1.7,2.53,0.18,-0.24,-1.19,-0.21,-137.4,80.4,-1454.0,-0.79,-0.33,0.54,0.0,1.231990259701756,3.0534079321309164,0.2518059234490613,0.5,0,0,0.0
3.730345635000049,168,5674.9,-94.4,-3.4,-122.1,-1.58,1.93,-0.4,-0.26,-1.08,-0.13,-137.3,-25.6,-1044.0,-0.78,1.6,0.15,0.0,1.118436408563312,2.5261235124197707,0.13548703086440494,0.5,0,0,0.0
3.7417521629995463,169,5674.91,-94.5,-3.4,-122.0,0.06,1.03,-0.24,-0.14,-0.95,-0.14,-138.0,-77.7,-651.0,-0.75,2.78,0.17,0.0,0.9704122835166504,1.059292216529509,0.012286352298611525,0.5,0,0,0.0
3.750244549999479,170,5674.92,-94.4,-3.4,-121.9,0.73,0.84,0.32,0.02,-0.89,-0.25,-139.1,-127.6,-582.0,-0.71,4.29,0.18,0.0,0.9246621004453465,1.1579723658188048,0.05687580466251718,0.5,0,0,0.0
3.7617693779993715,171,5674.93,-94.4,-3.4,-121.8,-0.08,0.99,0.64,0.07,-0.95,-0.33,-140.8,-180.6,-526.0,-0.66,5.62,0.25,0.0,1.0081170566953026,1.1815667564721004,0.026047568555690126,0.5,0,0,0.0
3.7704602109997722,172,5674.94,-94.5,-3.4,-121.7,-2.14,1.07,-0.01,-0.03,-1.22,-0.27,-142.9,-226.0,-470.0,-0.6,6.8,0.14,0.0,1.249879994239447,2.3926136336650763,0.26245429597783776,0.5,0,0,0.0
3.7815943479999987,173,5674.95,-94.8,-3.4,-121.6,-2.97,1.04,-0.83,-0.05,-1.33,-0.24,-145.4,-268.5,-426.0,-0.52,7.84,0.22,0.0,1.352405264704334,3.254443116725195,0.3576799751138704,0.5,0,0,0.0
3.790337430999898,174,5674.96,-95.2,-3.2,-121.5,-2.9,0.82,-1.54,-0.07,-1.41,-0.2,-148.4,-302.4,-351.0,-0.44,8.65,0.0,0.0,1.4258330898110056,3.384375865650859,0.4224856442161311,0.5,0,0,0.0
3.801496443999895,175,5674.97,-95.5,-3.1,-121.4,-2.42,0.57,-2.17,-0.09,-1.42,-0.18,-151.6,-328.8,-270.0,-0.35,9.21,-0.01,0.0,1.4341896666759248,3.300030302891172,0.4222253766594293,0.5,0,0,0.0
3.810262076000072,176,5674.98,-95.7,-2.8,-121.4,-2.19,0.2,-2.82,-0.13,-1.38,-0.17,-155.0,-344.4,-167.0,-0.25,9.47,0.01,0.0,1.3964956140282,3.5761012289922665,0.3768406975314704,0.5,0,0,0.0
3.821470298999884,177,5674.99,-96.0,-2.5,-121.5,-2.29,-0.12,-3.39,-0.16,-1.35,-0.14,-158.5,-349.4,-72.0,-0.16,9.51,-0.01,0.0,1.3666382110858748,4.092749686946418,0.34004362869736227,0.5,0,0,0.0
3.830312455999774,178,5675.0,-96.0,-2.5,-121.5,-2.29,-0.12,-3.39,-0.16,-1.35,-0.14,-160.7,-348.7,0.0,-0.06,9.27,-0.02,0.0,1.3666382110858748,4.092749686946418,0.33324275612341503,0.5,0,0,0.0
3.8416219719993023,179,5675.01,-96.4,-1.9,-121.7,-2.51,-1.12,-3.61,-0.09,-1.12,-0.04,-165.7,-330.4,137.0,0.02,8.74,-0.08,0.0,1.1243220179290274,4.537245860651591,0.08910803170723636,0.5,0,0,0.0
3.850219463999565,180,5675.02,-96.6,-1.6,-121.8,-2.26,-1.47,-3.2,0.04,-1.13,0.0,-168.8,-311.2,176.0,0.1,8.2,0.08,0.0,1.1307077429645558,4.184315953653596,0.09358388160790954,0.5,0,0,0.0
3.8618776909997905,181,5675.03,-96.8,-1.3,-122.0,-2.36,-1.39,-3.02,0.14,-1.21,-0.03,-171.8,-287.2,245.0,0.18,7.42,-0.16,0.0,1.2184416276539471,4.077020971248492,0.17769141097135477,0.5,0,0,0.0
3.870319663999908,182,5675.04,-97.1,-1.0,-122.2,-3.15,-0.96,-2.95,0.16,-1.28,0.01,-174.4,-253.9,312.0,0.24,6.46,-0.06,0.0,1.29,4.421153695586707,0.24426478765105952,0.5,0,0,0.0
3.8815775699995356,183,5675.05,-97.4,-0.7,-122.3,-3.18,-0.74,-2.78,0.21,-1.24,0.04,-176.7,-219.2,333.0,0.3,5.54,-0.18,0.0,1.258292493818508,4.288169772758536,0.2083061358401761,0.5,0,0,0.0
3.8903175790001114,184,5675.06,-97.7,-0.5,-122.4,-2.02,-0.05,-2.29,0.27,-1.17,-0.06,-178.7,-185.2,339.0,0.35,4.61,-0.12,0.0,1.2022478945708326,3.0540137524248316,0.1492163058606506,0.5,0,0,0.0
3.90168254999935,185,5675.07,-97.8,-0.3,-122.4,-0.66,0.89,-1.64,0.29,-1.07,-0.08,-180.3,-150.2,347.0,0.39,3.65,-0.16,0.0,1.1114854924829203,1.9792170169034016,0.05728482569728355,0.5,0,0,0.0
3.9102207509995424,186,5675.08,-97.8,-0.2,-122.2,0.17,1.97,-0.99,0.3,-0.98,-0.06,-181.6,-115.7,335.0,0.42,2.76,-1.43,0.0,1.0266450214168479,2.2113118278524175,0.02700453246141299,0.5,0,0,0.0
3.9218753079994713,187,5675.09,-97.8,0.0,-122.0,0.71,3.19,-0.58,0.26,-0.97,-0.04,-182.5,-84.8,321.0,0.44,1.9,0.04,0.0,1.0050373127401788,3.319126391085461,0.047639996315320454,0.5,0,0,0.0
3.930278955999711,188,5675.1,-97.7,0.0,-121.6,1.19,4.28,-0.5,0.22,-0.98,0.04,-183.2,-55.7,291.0,0.46,1.18,-0.26,0.0,1.005186549850325,4.470402666427265,0.046540944021070896,0.5,0,0,0.0
3.941633790999731,189,5675.11,-97.5,0.1,-121.1,1.58,4.92,-0.7,0.17,-1.01,0.08,-183.5,-29.5,265.0,0.46,0.51,-0.16,0.0,1.027326627709026,5.214671609986577,0.02391284883912248,0.5,0,0,0.0
3.950340350999795,190,5675.12,-97.4,0.2,-120.6,1.76,5.27,-1.05,0.09,-1.02,0.1,-183.7,-5.5,238.0,0.46,-0.09,-0.05,0.0,1.0288342918079665,5.654467260494131,0.021957081045378413,0.5,0,0,0.0
3.9617079279996688,191,5675.13,-97.2,0.4,-120.1,2.09,5.19,-1.39,0.01,-0.99,0.15,-183.6,7.8,117.0,0.46,-0.2,0.07,0.0,1.0013490899781154,5.765093234285114,0.04845343721772477,0.5,0,0,0.0
3.9703052240001853,192,5675.14,-96.9,0.6,-119.7,2.33,4.83,-1.6,-0.07,-0.96,0.16,-183.5,3.4,-9.0,0.46,0.01,0.0,0.0,0.9757561170702441,5.59623087443683,0.07256548192308421,0.5,0,0,0.0
3.981745504999708,193,5675.15,-96.7,0.9,-119.2,2.26,4.31,-1.62,-0.12,-0.93,0.15,-183.6,-2.2,-21.0,0.46,0.06,-0.08,0.0,0.9496315074806648,5.129142228482263,0.0967162896824102,0.5,0,0,0.0
3.9903717019997202,194,5675.16,-96.5,1.0,-118.8,1.74,3.79,-1.34,-0.16,-0.86,0.11,-183.6,-1.0,10.0,0.46,0.0,-0.07,0.0,0.8816461875378353,4.380331037718497,0.16140757743273493,0.5,0,0,0.0
4.0016628869998385,195,5675.17,-96.4,1.2,-118.5,1.09,3.34,-0.81,-0.16,-0.85,0.07,-183.6,-0.4,-10.0,0.46,0.06,0.08,0.0,0.8677557259966654,3.6055235403475043,0.17179207819442677,0.5,0,0,0.0
4.010260973999721,196,5675.18,-96.3,1.3,-118.2,0.74,2.88,-0.26,-0.11,-0.87,0.04,-183.6,-5.7,-41.0,0.46,0.22,-0.07,0.0,0.8778382538941898,2.9848953080468332,0.15847535929096424,0.5,0,0,0.0
4.021769238000161,197,5675.19,-96.2,1.3,-117.9,0.33,2.5,0.19,-0.05,-0.89,-0.01,-183.7,-13.1,-79.0,0.47,0.5,0.15,0.0,0.8914594774862176,2.5288337232803584,0.14195705298495775,0.5,0,0,0.0
4.030371998999726,198,5675.2,-96.2,1.3,-117.7,-0.08,2.33,0.55,-0.02,-0.92,-0.07,-184.0,-30.6,-162.0,0.48,1.09,0.05,0.0,0.9228759396581969,2.395370535011233,0.1083297789967188,0.5,0,0,0.0
4.041734770999938,199,5675.21,-96.2,1.2,-117.5,-0.27,2.32,0.84,-0.02,-0.95,-0.09,-184.4,-52.1,-212.0,0.49,1.73,-0.05,0.0,0.9544631999192006,2.48211603274303,0.07520766836100079,0.5,0,0,0.0
4.050367942999401,200,5675.22,-96.2,1.1,-117.2,-0.02,2.32,0.98,-0.03,-0.99,-0.1,-185.1,-78.5,-234.0,0.51,2.41,0.23,0.0,0.9954898291795853,2.518571023417843,0.03349741831860387,0.5,0,0,0.0
4.061615169000106,201,5675.23,-96.1,1.0,-117.0,0.5,2.28,0.99,-0.05,-0.99,-0.1,-186.1,-101.4,-232.0,0.54,3.04,0.06,0.0,0.9962931295557548,2.5354486782421763,0.03204023558358571,0.5,0,0,0.0
4.07038115099931,202,5675.24,-96.1,0.9,-116.7,0.87,2.17,0.99,-0.06,-0.95,-0.09,-187.2,-124.0,-221.0,0.58,3.61,-0.05,0.0,0.9561380653441217,2.538877704813684,0.07075139379931439,0.5,0,0,0.0
4.081526817999475,203,5675.25,-96.0,0.7,-116.5,1.04,2.02,1.0,-0.07,-0.93,-0.09,-188.6,-141.9,-186.0,0.62,4.07,-0.01,0.0,0.9369631796394137,2.4823376079816377,0.0881277539139419,0.5,0,0,0.0
4.089864476999537,204,5675.26,-95.8,0.6,-116.3,1.2,1.79,0.98,-0.08,-0.87,-0.09,-190.1,-155.5,-136.0,0.66,4.34,0.1,0.0,0.8782938005018593,2.367382520844487,0.1438611903904662,0.5,0,0,0.0
4.101427189999413,205,5675.27,-95.7,0.5,-116.2,0.87,1.49,1.17,-0.07,-0.83,-0.09,-191.7,-163.1,-84.0,0.7,4.49,0.08,0.0,0.8377947242612596,2.0846822299813463,0.18067306129844463,0.5,0,0,0.0
4.110372178999569,206,5675.28,-95.7,0.3,-116.0,0.39,1.16,1.42,-0.06,-0.83,-0.1,-193.4,-165.9,-37.0,0.75,4.51,0.0,0.0,0.8381527307120105,1.874593289223025,0.1767087537507399,0.5,0,0,0.0
4.121663550999983,207,5675.29,-95.7,0.1,-115.9,0.04,0.91,1.65,-0.05,-0.83,-0.12,-195.0,-166.1,-12.0,0.79,4.5,-0.15,0.0,0.8401190391843288,1.884728097100481,0.17124759637285314,0.5,0,0,0.0
4.130341633999706,208,5675.3,-95.7,0.0,-115.8,0.03,0.83,1.7,-0.04,-0.87,-0.15,-196.7,-163.9,21.0,0.84,4.39,-0.1,0.0,0.8837420438114281,1.8920359404620197,0.12507209991083879,0.5,0,0,0.0
4.141645544999847,209,5675.31,-95.8,-0.2,-115.7,0.26,0.74,1.64,-0.04,-0.9,-0.16,-198.3,-158.6,42.0,0.88,4.24,-0.23,0.0,0.9149863386958299,1.8179108889051738,0.09195124892590822,0.5,0,0,0.0
4.150369727999532,210,5675.32,-95.7,-0.4,-115.6,0.36,0.67,1.63,-0.06,-0.9,-0.18,-199.8,-152.2,66.0,0.92,4.02,-0.15,0.0,0.9197825830053535,1.7987217683677483,0.085411904524057,0.5,0,0,0.0
4.161773294999875,211,5675.33,-95.7,-0.5,-115.5,0.47,0.55,1.6,-0.07,-0.91,-0.18,-201.3,-141.9,101.0,0.96,3.7,-0.09,0.0,0.9302687783646187,1.7559612751994278,0.07342719498149586,0.5,0,0,0.0
4.170290070999727,212,5675.34,-95.6,-0.7,-115.5,0.73,0.4,1.45,-0.09,-0.93,-0.17,-202.6,-127.6,130.0,1.0,3.29,-0.07,0.0,0.9496841580230767,1.6719449751711328,0.05293157901657708,0.5,0,0,0.0
4.181848549999813,213,5675.35,-95.6,-0.8,-115.4,1.04,0.23,1.16,-0.12,-0.92,-0.19,-203.8,-111.4,155.0,1.02,2.83,-0.08,0.0,0.9470480452437459,1.574833324514058,0.05445633795998972,0.5,0,0,0.0
4.190204843999709,214,5675.36,-95.4,-0.9,-115.4,1.26,0.04,0.83,-0.15,-0.92,-0.2,-204.8,-96.2,151.0,1.05,2.42,0.03,0.0,0.9533624704172071,1.5093376030563872,0.04717907453079795,0.5,0,0,0.0
4.201516495999385,215,5675.37,-95.3,-0.9,-115.4,1.57,-0.11,0.38,-0.17,-0.9,-0.19,-205.7,-81.5,145.0,1.07,2.04,-0.06,0.0,0.9354143466934854,1.6190738093119783,0.06382465428942918,0.5,0,0,0.0
4.2103194589999475,216,5675.38,-95.1,-1.0,-115.4,2.1,-0.36,-0.05,-0.2,-0.85,-0.14,-206.4,-65.8,155.0,1.09,1.6,0.19,0.0,0.8843641783790205,2.1312203077110543,0.11257732615181626,0.5,0,0,0.0
4.221686644999863,217,5675.39,-94.9,-0.9,-115.5,2.44,-0.74,-0.34,-0.23,-0.76,-0.11,-206.9,-52.8,130.0,1.1,1.29,-0.08,0.0,0.8016233529532433,2.5723141332271218,0.19141178854604157,0.5,0,0,0.0
4.230376658999376,218,5675.4,-94.6,-0.9,-115.6,2.13,-1.11,-0.41,-0.23,-0.69,-0.09,-207.4,-42.7,97.0,1.11,1.07,0.13,0.0,0.73287106642301,2.4366165065516565,0.2549607935747493,0.5,0,0,0.0
4.24175887399997,219,5675.41,-94.5,-0.9,-115.7,1.36,-1.53,-0.43,-0.21,-0.66,-0.08,-207.8,-34.4,81.0,1.12,0.87,0.17,0.0,0.6972087205421343,2.0917456824384746,0.2848106766665125,0.5,0,0,0.0
4.250276545999441,220,5675.42,-94.4,-0.8,-115.9,0.11,-1.88,-0.41,-0.15,-0.67,-0.12,-208.1,-31.0,39.0,1.13,0.83,0.02,0.0,0.6969935437290651,1.9273297590189387,0.27932533640999013,0.5,0,0,0.0
4.261697582999659,221,5675.43,-94.4,-0.8,-116.1,-1.23,-2.08,-0.39,-0.06,-0.74,-0.17,-208.4,-34.5,-23.0,1.14,1.0,0.02,0.0,0.7616429609731846,2.4477336456403913,0.2103824007825532,0.5,0,0,0.0
4.270379560999572,222,5675.44,-94.6,-0.8,-116.3,-1.99,-1.93,-0.41,0.02,-0.85,-0.24,-208.8,-40.2,-57.0,1.15,1.2,0.07,0.0,0.8834591105421914,2.802338309340969,0.08679492618927553,0.5,0,0,0.0
4.281629743999474,223,5675.45,-94.8,-0.8,-116.5,-1.93,-1.49,-0.46,0.07,-0.95,-0.29,-209.2,-50.6,-99.0,1.17,1.54,0.04,0.0,0.9957409301620578,2.4812496851385193,0.024977155561978992,0.5,0,0,0.0
4.290362427999753,224,5675.46,-95.0,-0.7,-116.6,-1.43,-0.95,-0.38,0.08,-1.0,-0.29,-209.9,-66.4,-147.0,1.19,2.02,0.01,0.0,1.044270080008041,1.7583515006960353,0.07203617929980288,0.5,0,0,0.0
4.301704261999475,225,5675.47,-95.1,-0.7,-116.7,-0.61,-0.55,-0.13,0.09,-1.04,-0.24,-210.7,-85.9,-189.0,1.21,2.6,0.05,0.0,1.0711209082078457,0.8315647900193948,0.09690926734961547,0.5,0,0,0.0
4.3103023019994,226,5675.48,-95.1,-0.7,-116.7,0.4,-0.5,0.2,0.07,-1.04,-0.22,-211.7,-106.7,-199.0,1.24,3.15,0.2,0.0,1.0653168542738822,0.6708203932499369,0.08928310914733895,0.5,0,0,0.0
4.321658629999547,227,5675.49,-95.0,-0.8,-116.8,1.04,-0.49,0.52,0.07,-1.04,-0.26,-212.9,-127.2,-198.0,1.28,3.69,-0.06,0.0,1.074290463515338,1.2617844506887854,0.0962915840210189,0.5,0,0,0.0
4.330330533000051,228,5675.5,-94.9,-0.8,-116.8,0.97,-0.37,0.75,0.03,-1.08,-0.23,-214.3,-147.0,-192.0,1.32,4.21,-0.06,0.0,1.1046266337545914,1.2807419724519065,0.12409519917506673,0.5,0,0,0.0
4.341594880999764,229,5675.51,-94.8,-0.9,-116.8,0.51,-0.26,0.75,-0.01,-1.17,-0.13,-215.9,-165.2,-181.0,1.36,4.68,0.04,0.0,1.1772425408555365,0.9435041070392858,0.19277688415049166,0.5,0,0,0.0
4.3503240829995775,230,5675.52,-94.8,-1.0,-116.8,-0.03,-0.28,0.75,-0.04,-1.27,-0.08,-217.7,-182.9,-185.0,1.41,5.21,0.34,0.0,1.2731457104353767,0.8011242100947893,0.2829064526557252,0.5,0,0,0.0
4.36166426499949,231,5675.53,-94.8,-1.1,-116.9,-0.15,-0.34,0.85,-0.01,-1.29,-0.12,-219.6,-200.3,-166.0,1.47,5.63,0.14,0.0,1.2956079653969406,0.9276852914647294,0.2992613334649433,0.5,0,0,0.0
4.370243280000068,232,5675.54,-94.9,-1.2,-116.9,-0.37,-0.27,1.07,0.0,-1.32,-0.12,-221.7,-215.3,-164.0,1.53,6.06,0.05,0.0,1.3254433220624713,1.1639158045150861,0.3225147563278645,0.5,0,0,0.0
4.381567194000127,233,5675.55,-94.9,-1.3,-116.9,-0.49,-0.46,1.14,-0.05,-1.34,-0.06,-224.0,-235.8,-207.0,1.59,6.7,0.0,0.0,1.3422741895752894,1.3233669181296621,0.33255871136386905,0.5,0,0,0.0
4.390345394999713,234,5675.56,-94.9,-1.4,-117.0,-0.86,-0.45,1.28,-0.06,-1.35,-0.02,-226.5,-260.8,-231.0,1.66,7.37,0.0,0.0,1.351480669488099,1.60639347608237,0.33492988745114505,0.5,0,0,0.0
4.401696570999775,235,5675.57,-95.0,-1.6,-117.0,-1.34,-0.29,1.5,-0.02,-1.41,0.03,-229.3,-285.9,-252.0,1.74,8.09,0.0,0.0,1.4104609175726919,2.0321663317750347,0.38603193282502324,0.5,0,0,0.0
4.410166489999938,236,5675.58,-95.1,-1.7,-117.0,-1.44,0.05,1.77,0.04,-1.54,0.06,-232.4,-314.4,-288.0,1.83,8.94,0.22,0.0,1.5416873872481411,2.28232337761326,0.506913234450463,0.5,1,1,3.0
4.421553092000067,237,5675.59,-95.2,-1.9,-116.9,0.01,0.24,1.78,0.07,-1.58,0.1,-235.7,-345.4,-285.0,1.92,9.69,0.14,0.0,1.584708175027819,1.7961347388211164,0.538935341785538,0.5,0,1,3.0
4.430379282999638,238,5675.6,-95.1,-2.1,-116.9,1.65,0.09,1.49,0.02,-1.45,0.15,-239.2,-341.5,286.0,2.01,7.94,3.02,3.49,1.4578751661236293,2.2250168538687523,0.4038602862237215,0.5,0,1,3.0
4.441738615999384,239,5675.61,-94.9,-2.2,-116.9,2.19,-0.58,1.16,-0.04,-1.18,0.23,-241.8,-211.2,1011.0,2.07,4.12,2.95,3.49,1.20287156421623,2.5452111896658005,0.1458795506299957,0.5,0,1,3.0
4.450442049999765,240,5675.62,-94.7,-2.3,-117.0,1.4,-1.43,1.14,-0.09,-1.03,0.22,-243.1,-90.9,1055.0,2.09,1.25,3.25,3.49,1.057071426158138,2.3031500168247834,7.78243204655471e-05,0.5,0,1,3.0
4.461626743000124,241,5675.63,-94.6,-2.5,-117.2,0.99,-2.35,1.2,-0.14,-0.98,0.26,-243.4,-9.7,773.0,2.09,-0.34,3.25,3.49,1.0235233265539188,2.8182618756957276,0.03280086977807861,0.5,0,1,3.0
4.470265899999504,242,5675.64,-94.5,-2.6,-117.5,1.03,-3.2,1.25,-0.19,-1.04,0.26,-243.3,11.9,247.0,2.08,-0.12,3.44,3.49,1.0887148386974435,3.586558238757598,0.03174282951813723,0.5,0,1,3.0
4.481858669999383,243,5675.65,-94.3,-2.8,-117.8,1.36,-3.84,1.26,-0.26,-1.07,0.28,-243.2,0.3,52.0,2.08,0.0,3.6,3.49,1.136177802986839,4.264129453944849,0.07762167793138208,0.5,0,1,3.0
4.4904114569999365,244,5675.66,-94.2,-2.9,-118.2,1.86,-4.63,1.34,-0.29,-1.04,0.31,-243.2,1.1,25.0,2.08,-0.04,3.6,3.49,1.1232987136109434,5.166439779964536,0.06344773678437665,0.5,0,1,3.0
4.501487999999881,245,5675.67,-93.9,-3.1,-118.7,2.5,-5.49,1.44,-0.23,-0.97,0.26,-243.2,1.9,16.0,2.08,-0.08,3.45,3.49,1.0302426898551622,6.201910995814113,0.02901612123197639,0.5,0,1,3.0
4.510403082999801,246,5675.68,-93.6,-3.3,-119.3,2.91,-5.87,1.44,-0.13,-0.89,0.15,-243.1,9.4,111.0,2.08,-0.55,3.25,3.49,0.9118662182579197,6.7080995818487965,0.1444447409726345,0.5,0,1,3.0
4.521355805999519,247,5675.69,-93.3,-3.5,-119.9,2.33,-5.73,1.28,-0.09,-0.88,0.07,-242.8,44.3,334.0,2.07,-1.81,3.32,3.49,0.8873556220591606,6.316660510111336,0.16557623042796565,0.5,0,1,3.0
4.530286199999864,248,5675.7,-93.1,-3.6,-120.4,1.07,-5.33,0.85,-0.05,-0.95,0.03,-242.1,90.1,371.0,2.04,-2.86,3.2,3.49,0.9517877914745492,5.502390389639761,0.09912117979232549,0.5,0,1,3.0
4.541554125999937,249,5675.71,-92.9,-3.7,-120.9,0.35,-4.92,0.29,0.01,-1.0,0.02,-240.9,131.6,423.0,2.0,-4.12,3.23,3.49,1.0002499687578101,4.940951325402832,0.04964582245888316,0.5,0,1,3.0
4.550244821999513,250,5675.72,-92.9,-3.7,-121.4,-0.02,-4.61,-0.17,0.06,-1.02,0.01,-239.2,181.5,485.0,1.95,-5.59,3.5,3.49,1.0218121158021176,4.613176779617274,0.027522001906284066,0.5,0,1,3.0
4.561622231000001,251,5675.73,-92.9,-3.7,-121.9,0.07,-4.14,-0.5,0.12,-0.98,-0.03,-237.0,233.0,477.0,1.89,-6.87,3.6,3.49,0.9877752780870758,4.170671408778207,0.06032766282889945,0.5,0,1,3.0
4.57037012299952,252,5675.74,-92.8,-3.6,-122.2,0.37,-3.46,-0.67,0.16,-0.92,-0.04,-234.4,277.6,424.0,1.81,-7.95,3.54,3.49,0.9346657156438338,3.5436421941273926,0.11116848076669861,0.5,0,1,3.0
4.58150698099962,253,5675.75,-92.7,-3.6,-122.6,0.35,-3.01,-0.76,0.17,-0.87,-0.02,-231.4,310.1,339.0,1.72,-8.77,3.08,3.49,0.8866791979064356,3.1241318794186648,0.15597189853401494,0.5,0,1,3.0
4.59037349800019,254,5675.76,-92.7,-3.5,-122.8,0.05,-2.67,-0.89,0.16,-0.85,-0.02,-228.1,335.4,271.0,1.63,-9.38,3.87,3.49,0.8651589449343975,2.8148712226316857,0.17394230847593195,0.5,0,1,0.0
4.601571664999938,255,5675.77,-92.7,-3.4,-123.1,-0.32,-2.44,-0.98,0.11,-0.81,-0.02,-224.6,357.3,225.0,1.53,-9.94,3.43,3.49,0.8176796438703853,2.648848806557294,0.21699317734914536,0.5,0,1,0.0
4.6103250469996055,256,5675.78,-92.7,-3.3,-123.3,-0.58,-2.28,-0.99,0.07,-0.79,-0.03,-221.0,346.3,-332.0,1.44,-8.04,0.47,0.0,0.7936623967405789,2.5524302145210553,0.23619021598937273,0.5,0,1,0.0
4.621573331000036,257,5675.79,-92.8,-3.2,-123.6,-1.19,-2.08,-1.01,0.0,-0.85,-0.05,-218.4,224.9,-909.0,1.38,-4.76,0.17,0.0,0.85146931829632,2.6004999519323206,0.17481562854495913,0.5,0,1,0.0
4.6302358909997565,258,5675.8,-92.9,-3.1,-123.8,-1.7,-2.19,-1.23,-0.08,-0.88,-0.02,-216.8,130.9,-830.0,1.35,-2.7,0.26,0.0,0.8838551917593741,3.0329853280225407,0.13958115998026688,0.5,0,1,0.0
4.641574481000134,259,5675.81,-93.1,-3.0,-124.0,-1.66,-2.46,-1.34,-0.05,-0.85,-0.04,-215.9,73.5,-579.0,1.33,-1.55,0.34,0.0,0.8524083528450433,3.2561940974088137,0.1676074389167056,0.5,0,1,0.0
4.650336792999951,260,5675.82,-93.2,-2.9,-124.3,-1.23,-2.8,-1.29,0.0,-0.83,-0.05,-215.4,46.6,-314.0,1.32,-1.12,0.0,0.0,0.8315046602394961,3.319186647358054,0.18474090889180783,0.5,0,1,0.0
4.661598454999876,261,5675.83,-93.3,-2.7,-124.6,-0.99,-3.02,-1.07,0.06,-0.81,-0.09,-215.0,40.2,-109.0,1.31,-1.13,0.08,0.0,0.8171903083125742,3.35341616862566,0.1950741556023552,0.5,0,1,0.0
4.670161912999902,262,5675.84,-93.4,-2.7,-124.9,-0.94,-2.98,-0.77,0.11,-0.82,-0.13,-214.5,48.8,47.0,1.3,-1.51,-0.17,0.0,0.8374962686484041,3.2182137902880226,0.17127283136119476,0.5,0,1,0.0
4.681487166999432,263,5675.85,-93.5,-2.6,-125.2,-0.78,-2.82,-0.48,0.14,-0.85,-0.15,-213.9,66.4,144.0,1.28,-2.05,-0.1,0.0,0.8744140895479668,2.9649957841454007,0.13166791025239943,0.5,0,1,0.0
4.690398359999563,264,5675.86,-93.5,-2.6,-125.5,-0.43,-2.54,-0.23,0.16,-0.86,-0.16,-213.1,87.3,193.0,1.25,-2.65,-0.1,0.0,0.8892693630166283,2.586387441973843,0.11447638404806326,0.5,0,1,0.0
4.701467924999633,265,5675.87,-93.5,-2.6,-125.7,0.03,-2.19,-0.02,0.18,-0.87,-0.17,-212.2,109.5,234.0,1.22,-3.37,-0.2,0.0,0.9045440840556087,2.190296783543271,0.09721762974890114,0.5,0,1,0.0
4.7104071129997465,266,5675.88,-93.5,-2.6,-125.9,0.31,-1.78,0.14,0.19,-0.88,-0.17,-210.8,138.0,244.0,1.18,-4.04,-0.19,0.0,0.9161877536837086,1.8122085972646746,0.08386248091838522,0.5,0,1,0.0
4.721317741999883,267,5675.89,-93.5,-2.6,-126.1,0.25,-1.39,0.21,0.19,-0.89,-0.18,-209.2,162.3,241.0,1.14,-4.69,-0.03,0.0,0.9276852914647294,1.4278305221559033,0.07091764427461711,0.5,0,1,0.0
4.730318557999453,268,5675.9,-93.5,-2.7,-126.2,0.06,-0.91,0.16,0.17,-0.89,-0.2,-207.4,185.8,234.0,1.09,-5.32,-0.12,0.0,0.9279008567729637,0.9259049627256569,0.06928803738705513,0.5,0,1,0.0
4.74155959699965,269,5675.91,-93.4,-2.7,-126.2,-0.01,-0.51,0.16,0.15,-0.88,-0.2,-205.4,207.0,215.0,1.03,-5.88,-0.17,0.0,0.9148223871331528,0.5346026561849464,0.08071917688632879,0.5,0,1,0.0
4.750284439000097,270,5675.92,-93.4,-2.7,-126.3,0.04,-0.17,0.24,0.13,-0.86,-0.2,-203.2,228.4,215.0,0.97,-6.46,-0.2,0.0,0.892468486838611,0.2968164415931166,0.10101161563725314,0.5,0,1,0.0
4.761582428999645,271,5675.93,-93.4,-2.7,-126.3,0.27,0.15,0.3,0.13,-0.85,-0.21,-200.7,252.7,247.0,0.9,-7.2,-0.15,0.0,0.8851553535961921,0.43058100283221973,0.10615825390207856,0.5,0,1,0.0
4.770322564999333,272,5675.94,-93.4,-2.8,-126.2,0.41,0.39,0.6,0.13,-0.8,-0.19,-198.0,278.9,245.0,0.82,-7.86,0.0,0.0,0.8324662155306966,0.8247423840206104,0.15567044412822262,0.5,0,1,0.0
4.781435297999451,273,5675.95,-93.4,-2.9,-126.2,0.29,0.64,0.8,0.14,-0.83,-0.21,-195.1,300.7,222.0,0.74,-8.43,0.08,0.0,0.8675252157718529,1.0647534925981694,0.11819921500932495,0.5,0,1,0.0
4.790306232000148,274,5675.96,-93.3,-2.9,-126.1,0.28,0.94,0.83,0.12,-0.87,-0.23,-191.9,322.2,227.0,0.65,-9.07,-0.08,0.0,0.9078546139112804,1.2848735346328837,0.07631242053249954,0.5,0,1,0.0
4.80156618699948,275,5675.97,-93.3,-3.0,-126.0,0.29,1.25,1.02,0.1,-0.84,-0.24,-188.5,346.0,230.0,0.55,-9.68,-0.11,0.0,0.8793179174792243,1.639207125411551,0.10275213462526456,0.5,0,1,0.0
4.810342916999616,276,5675.98,-93.3,-3.1,-125.8,0.17,1.48,1.27,0.09,-0.85,-0.22,-184.9,370.7,255.0,0.45,-10.42,0.08,0.0,0.8826097665446491,1.9576005721290541,0.097471079848643,0.5,0,1,0.0
4.8214185189999625,277,5675.99,-93.3,-3.3,-125.7,0.08,1.62,1.46,0.08,-0.88,-0.2,-181.0,400.8,280.0,0.34,-11.23,0.01,0.0,0.90598013223249,2.182292372712694,0.07261869987758607,0.5,0,1,0.0
4.8302571149997675,278,5676.0,-93.3,-3.4,-125.5,0.0,1.7,1.58,0.06,-0.89,-0.2,-178.2,416.7,286.0,0.23,-11.74,-0.26,0.0,0.9141662868428261,2.3208619088605853,0.06314389436190493,0.5,0,1,0.0
4.841559180999866,279,5676.01,-93.3,-3.6,-125.3,-0.05,1.76,1.68,0.06,-0.89,-0.21,-172.5,447.2,289.0,0.1,-12.5,0.0,0.0,0.9164060235506967,2.4336187047275915,0.059686074500953645,0.5,0,1,0.0
4.850290388999383,280,5676.02,-93.3,-3.7,-125.1,-0.15,1.78,1.74,0.05,-0.89,-0.2,-168.0,466.3,193.0,-0.01,-12.85,-0.29,0.0,0.9135644476444998,2.4936920419330053,0.06127709739900744,0.5,0,1,0.0
4.861529819999305,281,5676.03,-93.4,-3.9,-124.9,-0.28,1.76,1.75,0.05,-0.91,-0.19,-163.1,485.7,217.0,-0.15,-13.49,0.06,0.0,0.9309672389509741,2.497698941025519,0.0429968199706825,0.5,0,1,0.0
4.870349306999742,282,5676.04,-93.4,-4.0,-124.7,-0.35,1.7,1.65,0.06,-0.93,-0.2,-158.2,496.1,81.0,-0.28,-13.46,0.04,0.0,0.9531526635329727,2.3947860029656094,0.020395167480910303,0.5,0,1,0.0
4.881400814999324,283,5676.05,-93.5,-4.2,-124.6,-0.52,1.59,1.44,0.05,-0.97,-0.2,-153.2,492.3,-22.0,-0.41,-13.2,-0.03,0.0,0.9916652661054535,2.207283398206945,0.017755086389739105,0.5,0,1,0.0
4.890402080000058,284,5676.06,-93.5,-4.3,-124.4,-0.57,1.36,1.11,0.06,-0.99,-0.2,-148.5,457.6,-372.0,-0.53,-11.68,0.35,0.0,1.0117806086301517,1.845697700058165,0.037113020336148606,0.5,0,1,0.0
4.90144253499966,285,5676.07,-93.6,-4.4,-124.3,0.07,1.2,1.07,0.17,-0.93,-0.23,-144.6,352.9,-984.0,-0.63,-7.83,0.56,0.0,0.9729850975220535,1.6092855557669061,0.0016488409565106332,0.5,0,1,0.0
4.910252493999906,286,5676.08,-93.6,-4.5,-124.2,0.15,1.16,1.08,0.08,-1.02,-0.24,-142.1,204.1,-1329.0,-0.68,-3.6,0.41,0.0,1.050904372433572,1.5920113064925137,0.07474502527590776,0.5,0,1,0.0
4.921498058999532,287,5676.09,-93.6,-4.6,-124.0,-0.49,1.36,0.65,-0.1,-1.12,-0.31,-141.0,62.9,-1330.0,-0.69,-0.17,0.51,0.0,1.1664047325006874,1.5849921135450487,0.18644047763616267,0.5,0,1,0.0
4.93024651199994,288,5676.1,-93.7,-4.6,-123.9,-0.99,1.54,0.14,-0.18,-1.16,-0.29,-141.1,-33.9,-905.0,-0.67,1.6,0.17,0.0,1.2091732712891068,1.8361100184901775,0.2246248360960904,0.5,0,1,0.0
4.941563382999448,289,5676.11,-93.8,-4.6,-123.7,-0.46,1.3,-0.12,-0.08,-1.13,-0.23,-141.8,-87.9,-651.0,-0.65,2.92,0.33,0.0,1.1559411749738824,1.3841965178398623,0.16796488498524864,0.5,0,1,0.0
4.950194907999503,290,5676.12,-93.8,-4.6,-123.6,-0.08,1.37,-0.12,-0.06,-1.18,-0.25,-143.1,-138.0,-529.0,-0.61,4.31,0.08,0.0,1.2076837334335508,1.3775703248836337,0.21531329457601878,0.5,0,1,0.0
4.961519839000175,291,5676.13,-93.9,-4.5,-123.5,-0.5,1.35,-0.33,-0.08,-1.2,-0.23,-144.8,-181.8,-479.0,-0.56,5.52,0.28,0.0,1.2244590642402056,1.4769563297538626,0.22744685287501998,0.5,0,1,0.0
4.97033623399966,292,5676.14,-94.0,-4.5,-123.3,-1.2,1.42,-0.58,-0.01,-1.21,-0.22,-146.9,-228.3,-479.0,-0.49,6.81,0.17,0.0,1.2298780427343192,1.947511232316774,0.22820851474175097,0.5,0,1,0.0
4.981436739999481,293,5676.15,-94.2,-4.4,-123.2,-1.91,1.33,-0.99,0.0,-1.24,-0.2,-149.5,-273.9,-443.0,-0.42,7.97,0.09,0.0,1.2560254774486066,2.529248900365482,0.2492688304669175,0.5,0,1,0.0
4.9903717379993395,294,5676.16,-94.5,-4.2,-123.1,-2.61,1.27,-1.44,-0.04,-1.27,-0.18,-152.5,-310.0,-341.0,-0.34,8.68,0.11,0.0,1.2833160171991933,3.24015431731268,0.2710281828131542,0.5,0,1,0.0
5.001328739999735,295,5676.17,-94.8,-4.0,-123.0,-3.03,1.25,-1.94,-0.07,-1.32,-0.1,-155.7,-327.0,-181.0,-0.24,8.94,0.0,0.0,1.325631924781536,3.808805587057444,0.307077208587587,0.5,0,1,0.0
5.0102625979998265,296,5676.18,-95.1,-3.8,-122.9,-3.23,0.95,-2.51,-0.1,-1.36,-0.04,-159.1,-327.9,-45.0,-0.15,8.83,-0.23,0.0,1.364258040108249,4.199464251544475,0.33878925743601385,0.5,0,1,0.0
5.0215787010001804,297,5676.19,-95.4,-3.5,-122.8,-3.05,0.65,-3.03,-0.08,-1.4,0.0,-162.2,-317.2,92.0,-0.07,8.37,-0.11,0.0,1.4022838514366482,4.348091535375031,0.3692787673891249,0.5,0,1,0.0
5.0302572059999875,298,5676.2,-95.6,-3.2,-122.8,-2.69,0.43,-3.66,-0.04,-1.46,0.08,-165.3,-294.2,190.0,0.0,7.69,-0.05,0.0,1.4627371602581236,4.562521232827306,0.4211374346863883,0.5,0,1,0.0
5.041520249999849,299,5676.21,-95.9,-2.8,-122.8,-2.52,0.14,-4.23,-0.02,-1.42,0.14,-168.0,-271.9,199.0,0.07,7.14,0.05,0.0,1.4270248771482577,4.9257385233079525,0.3777166485449919,0.5,0,1,0.0
5.050211560999742,300,5676.22,-96.1,-2.3,-122.9,-2.21,-0.07,-4.36,0.0,-1.33,0.11,-170.7,-252.4,193.0,0.14,6.61,-0.14,0.0,1.334541119636259,4.8886194370190035,0.27952823321233344,0.5,0,1,0.0
5.061499188000198,301,5676.23,-96.3,-1.9,-122.9,-1.11,0.01,-3.91,0.08,-1.14,0.03,-173.0,-230.3,230.0,0.2,5.95,-0.15,0.0,1.1431972708154965,4.0645171915001175,0.08642069670373953,0.5,0,1,0.0
5.07018361199971,302,5676.24,-96.3,-1.6,-122.9,0.11,0.7,-2.95,0.2,-0.96,-0.04,-175.2,-205.6,231.0,0.26,5.31,-0.16,0.0,0.9814275317108238,3.0339083704027714,0.07384206155291462,0.5,0,1,0.0
5.081493237999894,303,5676.25,-96.3,-1.3,-122.8,0.83,1.77,-1.93,0.26,-0.86,-0.05,-177.1,-183.8,228.0,0.31,4.69,-0.31,0.0,0.8998333178983761,2.747125770691979,0.15232754985805508,0.5,0,1,0.0
5.090404544999728,304,5676.26,-96.2,-1.2,-122.6,0.95,2.93,-1.08,0.29,-0.82,-0.04,-178.7,-160.6,223.0,0.35,4.08,-0.08,0.0,0.8706893820416095,3.2640159313336694,0.17784205600052516,0.5,0,1,0.0
5.101299754000138,305,5676.27,-96.1,-1.1,-122.2,0.69,4.09,-0.52,0.33,-0.85,0.0,-180.2,-137.3,239.0,0.39,3.41,-0.06,0.0,0.9118113840043893,4.180263149611516,0.1339856529569905,0.5,0,1,0.0
5.110352003000116,306,5676.28,-96.1,-1.0,-121.8,0.46,5.03,-0.42,0.33,-0.94,0.03,-181.3,-115.1,240.0,0.41,2.81,0.0,0.0,0.9966945369570358,5.068421845111159,0.04812045000425724,0.5,0,1,0.0
5.12115561399969,307,5676.29,-96.0,-0.9,-121.2,0.34,5.75,-0.68,0.26,-1.0,0.05,-182.3,-86.9,273.0,0.44,2.02,-0.08,0.0,1.034456378974,5.800043103288113,0.010151435827547184,0.5,0,1,0.0
5.130204414999753,308,5676.3,-96.0,-0.7,-120.7,0.68,5.91,-1.07,0.16,-1.01,0.11,-183.0,-59.4,270.0,0.45,1.29,-0.22,0.0,1.0284940447080868,6.044452001629263,0.015791494691591135,0.5,0,1,0.0
5.141515432999768,309,5676.31,-95.9,-0.5,-120.1,1.16,5.69,-1.31,0.06,-0.99,0.12,-183.4,-33.0,267.0,0.46,0.57,-0.08,0.0,0.9990495483208027,5.952965647473534,0.044331271257297744,0.5,0,1,0.0
5.15036074299951,310,5676.32,-95.8,-0.3,-119.6,1.03,5.29,-1.38,-0.02,-0.98,0.12,-183.6,-6.7,254.0,0.46,-0.09,-0.08,0.0,0.9875221516502807,5.563218492922959,0.05474149456926336,0.5,0,1,0.0
5.161443508000048,311,5676.33,-95.7,-0.1,-119.1,0.58,4.83,-1.28,-0.1,-0.97,0.1,-183.5,6.6,115.0,0.46,-0.16,0.01,0.0,0.9802550688468793,5.0302783223197505,0.06076840582521148,0.5,0,1,0.0
5.170183663999524,312,5676.34,-95.7,0.0,-118.6,0.38,4.41,-0.99,-0.16,-0.96,0.08,-183.5,3.8,16.0,0.46,-0.06,0.11,0.0,0.9765244492586962,4.5357028121339695,0.0632090449051268,0.5,0,1,0.0
5.182438363000074,313,5676.35,-95.6,0.0,-118.2,0.54,3.92,-0.61,-0.17,-0.94,0.06,-183.5,-0.8,-35.0,0.46,0.11,0.05,0.0,0.9571311299921239,4.003760732111748,0.08095031688826504,0.5,0,1,0.0
5.190241059999607,314,5676.36,-95.6,0.1,-117.9,0.54,3.36,-0.17,-0.15,-0.92,0.03,-183.5,-8.3,-62.0,0.46,0.32,0.0,0.0,0.9326306878931231,3.407359681630338,0.10334174380752048,0.5,0,1,0.0
5.201482718999614,315,5676.37,-95.5,0.1,-117.6,0.2,2.89,0.19,-0.11,-0.91,0.0,-183.7,-16.5,-83.0,0.47,0.57,0.14,0.0,0.916624241442479,2.9031362351773984,0.11696122645300133,0.5,0,1,0.0
5.210394445999555,316,5676.38,-95.5,0.1,-117.3,-0.12,2.59,0.48,-0.07,-0.93,-0.05,-183.9,-34.1,-176.0,0.48,1.22,0.12,0.0,0.9339700209321496,2.636835224279287,0.09762313802406408,0.5,0,1,0.0
5.221335491999525,317,5676.39,-95.5,0.0,-117.0,-0.08,2.49,0.58,-0.05,-0.95,-0.06,-184.5,-60.1,-251.0,0.5,2.02,0.07,0.0,0.9532051195833979,2.55790930253596,0.07682027858535956,0.5,0,1,0.0
5.230337572999815,318,5676.4,-95.5,0.0,-116.8,0.13,2.4,0.58,-0.04,-0.96,-0.05,-185.3,-90.4,-275.0,0.52,2.79,0.0,0.0,0.9621330469326994,2.4725088473046966,0.066534504211337,0.5,0,1,0.0
5.241407522999907,319,5676.41,-95.4,0.0,-116.6,0.26,2.22,0.58,-0.04,-0.95,-0.05,-186.4,-118.3,-274.0,0.55,3.54,0.02,0.0,0.9521554494934112,2.3091989953228373,0.07498185961761261,0.5,0,1,0.0
5.250282277999759,320,5676.42,-95.4,-0.1,-116.3,0.29,1.96,0.57,-0.06,-0.94,-0.03,-187.7,-144.5,-252.0,0.59,4.19,0.09,0.0,0.9423905772024675,2.061698329048166,0.08305179727038514,0.5,0,1,0.0
5.2614063849996455,321,5676.43,-95.3,-0.1,-116.2,0.28,1.62,0.58,-0.07,-0.93,-0.01,-189.3,-164.0,-197.0,0.64,4.65,0.0,0.0,0.9326842981416595,1.7433301465872721,0.09090291480456936,0.5,0,1,0.0
5.270470497000133,322,5676.44,-95.3,-0.2,-116.0,0.52,1.34,0.46,-0.09,-0.95,-0.01,-191.1,-177.1,-136.0,0.69,4.92,0.0,0.0,0.9543060305792895,1.5091719583930787,0.06789555871960051,0.5,0,1,0.0
5.281550875999528,323,5676.45,-95.2,-0.2,-115.9,0.58,0.98,0.57,-0.09,-0.89,-0.01,-192.9,-183.9,-78.0,0.74,5.03,0.0,0.0,0.8945948803788226,1.2734598540982751,0.12505457474166604,0.5,0,1,0.0
5.290334884999538,324,5676.46,-95.2,-0.3,-115.8,0.46,0.65,0.73,-0.11,-0.86,-0.02,-194.8,-186.0,-33.0,0.79,5.05,-0.09,0.0,0.8672369918309527,1.0802777420645118,0.14936421402374533,0.5,0,1,0.0
5.301518773999305,325,5676.47,-95.1,-0.4,-115.8,0.19,0.28,0.89,-0.11,-0.84,-0.03,-196.6,-184.0,12.0,0.84,4.94,0.15,0.0,0.8477027781009095,0.9521554494934112,0.16552045919871283,0.5,0,1,0.0
5.310474475999399,326,5676.48,-95.1,-0.4,-115.7,-0.03,-0.09,1.05,-0.12,-0.83,-0.04,-198.4,-177.6,59.0,0.89,4.7,-0.26,0.0,0.8395832299420946,1.0542770034483346,0.17016720721037737,0.5,0,1,0.0
5.321743284000149,327,5676.49,-95.2,-0.6,-115.7,-0.09,-0.22,1.0,-0.1,-0.88,-0.08,-200.1,-165.6,111.0,0.93,4.31,-0.1,0.0,0.8892693630166284,1.027861858422619,0.11807145265312657,0.5,0,1,0.0
5.330354252999314,328,5676.5,-95.2,-0.8,-115.8,0.08,-0.4,0.84,-0.09,-0.91,-0.08,-201.6,-148.9,156.0,0.97,3.81,0.07,0.0,0.9179324593890337,0.9338094023943001,0.08762018915510694,0.5,0,1,0.0
5.341626858999916,329,5676.51,-95.1,-0.9,-115.8,0.29,-0.56,0.76,-0.08,-0.91,-0.1,-203.0,-129.5,178.0,1.01,3.29,-0.06,0.0,0.9189668111526118,0.9875727821279807,0.08485412064369824,0.5,0,1,0.0
5.350447029999486,330,5676.52,-95.1,-1.0,-115.9,0.49,-0.65,0.62,-0.07,-0.91,-0.13,-204.2,-109.6,190.0,1.03,2.74,-0.02,0.0,0.9219002115196634,1.0232301793829188,0.08028230587111362,0.5,0,1,0.0
5.36157335200005,331,5676.53,-95.1,-1.1,-115.9,0.94,-0.8,0.37,-0.07,-0.89,-0.14,-205.1,-91.4,183.0,1.06,2.26,0.0,0.0,0.9036592278065886,1.2886038956948718,0.09655282379250474,0.5,0,1,0.0
5.370209431999683,332,5676.54,-95.0,-1.1,-116.0,1.56,-0.96,0.07,-0.08,-0.86,-0.15,-205.9,-75.2,164.0,1.08,1.85,-0.16,0.0,0.8766413177577246,1.833057555015663,0.12109931916454142,0.5,0,1,0.0
5.381587068999579,333,5676.55,-94.8,-1.1,-116.1,2.02,-1.16,-0.26,-0.1,-0.82,-0.14,-206.6,-59.4,158.0,1.09,1.43,-0.01,0.0,0.8378544026261364,2.3438429981549533,0.15668850961020697,0.5,0,1,0.0
5.390368867999314,334,5676.56,-94.6,-1.1,-116.3,2.07,-1.38,-0.52,-0.13,-0.75,-0.13,-207.1,-45.7,137.0,1.11,1.09,0.07,0.0,0.7722046360907192,2.54159398803192,0.21789151062271173,0.5,0,1,0.0
5.4013785520000965,335,5676.57,-94.4,-1.1,-116.4,1.61,-1.66,-0.65,-0.16,-0.69,-0.12,-207.5,-36.9,91.0,1.12,0.91,-0.08,0.0,0.7184010022264723,2.402124060076831,0.2662612415972194,0.5,0,1,0.0
5.410394411000198,336,5676.58,-94.3,-1.0,-116.6,0.71,-1.91,-0.61,-0.15,-0.68,-0.12,-207.8,-30.3,61.0,1.12,0.8,-0.08,0.0,0.7066116330771807,2.1270401970813806,0.27248959853158083,0.5,0,1,0.0
5.421519108999746,337,5676.59,-94.2,-1.0,-116.8,-0.23,-2.1,-0.48,-0.1,-0.72,-0.14,-208.1,-29.3,21.0,1.13,0.81,-0.14,0.0,0.7402702209328699,2.16640254800441,0.23405439046237375,0.5,0,1,0.0
5.430293978000009,338,5676.6,-94.3,-0.9,-117.0,-0.98,-2.17,-0.37,-0.03,-0.8,-0.18,-208.4,-33.9,-35.0,1.14,0.99,0.0,0.0,0.8205485969764376,2.4096057768855053,0.15070049413042996,0.5,0,1,0.0
5.441561519000061,339,5676.61,-94.4,-0.9,-117.2,-1.46,-2.08,-0.35,0.01,-0.86,-0.23,-208.8,-39.9,-62.0,1.15,1.2,0.0,0.0,0.8902808545621994,2.565248525971704,0.0793488718137747,0.5,0,1,0.0
5.450310770999749,340,5676.62,-94.6,-0.9,-117.4,-1.72,-1.89,-0.34,0.05,-0.9,-0.27,-209.2,-50.4,-95.0,1.17,1.51,-0.09,0.0,0.9409569596958194,2.5780031031788924,0.028099311346551636,0.5,0,1,0.0
5.461350099999436,341,5676.63,-94.8,-0.9,-117.6,-1.86,-1.48,-0.28,0.07,-0.93,-0.3,-209.8,-63.7,-125.0,1.18,1.9,0.19,0.0,0.9796938297243686,2.393407612589214,0.010424807508357614,0.5,0,1,0.0
5.470244033000199,342,5676.64,-94.9,-0.9,-117.7,-1.88,-0.96,-0.13,0.07,-0.97,-0.29,-210.6,-80.8,-171.0,1.21,2.45,0.18,0.0,1.0148398888494676,2.114923166453098,0.04465944930078758,0.5,0,1,0.0
5.481579788999625,343,5676.65,-95.1,-0.9,-117.8,-1.85,-0.34,0.02,0.07,-1.04,-0.29,-211.5,-101.1,-184.0,1.24,2.96,0.07,0.0,1.081942697188719,1.8810901094843917,0.10952701248723806,0.5,0,1,0.0
5.4903813319997425,344,5676.66,-95.3,-0.9,-117.8,-1.39,0.24,0.13,0.06,-1.11,-0.25,-212.7,-119.4,-176.0,1.27,3.44,0.18,0.0,1.1393857994551275,1.4165450928226746,0.16363071245857375,0.5,0,1,0.0
5.501404646999617,345,5676.67,-95.4,-0.9,-117.8,-0.47,0.54,0.15,0.05,-1.16,-0.23,-214.0,-135.3,-156.0,1.31,3.82,0.16,0.0,1.183638458314024,0.7314369419163896,0.20372570389112088,0.5,0,1,0.0
5.51038334399982,346,5676.68,-95.4,-0.9,-117.7,0.31,0.51,0.07,0.03,-1.13,-0.24,-215.4,-148.6,-138.0,1.35,4.19,-0.05,0.0,1.1555950847939773,0.6009159675029446,0.17216868376365269,0.5,0,1,0.0
5.521694899000067,347,5676.69,-95.4,-0.9,-117.7,0.02,0.33,0.16,0.03,-1.08,-0.27,-217.0,-159.4,-110.0,1.39,4.44,0.0,0.0,1.113642671596235,0.3672873534441392,0.1276119451545923,0.5,0,1,0.0
5.530372960000022,348,5676.7,-95.4,-0.9,-117.6,-0.73,0.2,0.21,0.02,-1.12,-0.28,-218.6,-167.9,-93.0,1.44,4.66,0.07,0.0,1.1546428019088848,0.7854934754662193,0.1652398339578972,0.5,0,1,0.0
5.541382011999303,349,5676.71,-95.5,-0.9,-117.6,-1.0,0.1,0.29,0.0,-1.16,-0.24,-220.4,-175.0,-76.0,1.48,4.84,-0.15,0.0,1.1845674315968677,1.0459923517884824,0.19126117437296253,0.5,0,1,0.0
5.550426597999831,350,5676.72,-95.7,-1.0,-117.6,-1.02,0.0,0.61,-0.01,-1.2,-0.22,-222.2,-186.0,-114.0,1.54,5.24,0.06,0.0,1.2200409829181968,1.1884864324004714,0.22220003118040577,0.5,0,1,0.0
5.5615129729994806,351,5676.73,-95.8,-1.0,-117.6,-0.56,-0.22,0.8,-0.01,-1.24,-0.21,-224.2,-203.3,-171.0,1.59,5.79,-0.09,0.0,1.2576963067449949,1.000999500499376,0.2546582479070598,0.5,0,1,0.0
5.570280936999552,352,5676.74,-95.9,-1.1,-117.6,-0.1,-0.51,0.86,-0.05,-1.22,-0.21,-226.4,-226.1,-213.0,1.65,6.44,0.18,0.0,1.2389511693363866,1.0048382954485762,0.23119484828848247,0.5,0,1,0.0
5.581447472999571,353,5676.75,-95.9,-1.3,-117.7,-0.04,-0.89,0.91,-0.1,-1.17,-0.18,-228.5,-248.3,-242.0,1.72,7.17,0.0,0.0,1.187981481337146,1.2734991166074676,0.1766206570834572,0.5,0,1,0.0
5.590379696000127,354,5676.76,-96.0,-1.4,-117.8,-0.54,-1.03,1.07,-0.08,-1.2,-0.11,-231.5,-278.9,-273.0,1.8,7.94,0.85,0.0,1.2076837334335508,1.5803164240113434,0.1923964509962648,0.5,0,1,0.0
5.601427016999878,355,5676.77,-96.0,-1.6,-117.9,-0.98,-1.24,1.25,-0.06,-1.28,0.0,-234.5,-308.8,-288.0,1.89,8.75,0.16,0.0,1.2814054783713078,2.0150682370579913,0.2607958320153414,0.5,0,1,0.0
5.610367788999611,356,5676.78,-96.1,-1.7,-118.0,-0.97,-1.53,1.52,-0.1,-1.3,0.06,-237.8,-333.7,-230.0,1.98,9.27,0.14,0.0,1.3052202879207786,2.3647832881682835,0.278918428733516,0.5,0,1,0.0
5.621452501999556,357,5676.79,-96.2,-1.9,-118.2,-0.8,-1.71,2.1,-0.08,-1.29,0.08,-241.2,-350.6,-202.0,2.07,9.79,0.0,0.0,1.2949517365523706,2.8238448965904626,0.2632768798178058,0.5,0,1,0.0
5.630356992000088,358,5676.8,-96.2,-2.2,-118.3,-0.47,-1.83,2.65,-0.01,-1.34,0.14,-244.9,-371.9,-199.0,2.17,10.32,0.0,0.0,1.3473306943731373,3.2545813862922524,0.30934272088580106,0.5,0,1,0.0
5.641627590000098,359,5676.81,-96.2,-2.5,-118.5,0.21,-2.21,2.73,-0.02,-1.33,0.18,-248.7,-386.7,-156.0,2.28,10.69,-0.08,0.0,1.3422741895752894,3.518678729295984,0.298200491766194,0.5,0,1,0.0
5.650417527000172,360,5676.82,-96.2,-2.8,-118.7,0.44,-2.86,2.43,-0.11,-1.24,0.22,-252.7,-403.9,-184.0,2.39,11.23,0.16,0.0,1.2641598000252974,3.7786373205164847,0.21568438017187797,0.5,0,1,0.0
5.66143326800011,361,5676.83,-96.1,-3.0,-119.0,0.29,-3.63,2.08,-0.17,-1.14,0.24,-256.8,-417.1,-99.0,2.5,11.35,-0.06,0.0,1.1773274820541648,4.193733420235483,0.1262750209567305,0.5,0,1,0.0
5.670188420999693,362,5676.84,-96.1,-3.2,-119.4,0.21,-4.41,1.67,-0.19,-1.14,0.3,-261.0,-413.1,8.0,2.62,11.16,0.17,0.0,1.194026800369238,4.7202860082838205,0.14011485248636757,0.5,0,1,0.0
5.681390660999568,363,5676.85,-96.0,-3.4,-119.9,0.57,-5.27,1.2,-0.18,-1.1,0.28,-265.0,-402.1,99.0,2.73,10.72,-0.09,0.0,1.1492606318846914,5.434868903662719,0.09344171032178461,0.5,0,1,0.0
5.690379678999307,364,5676.86,-95.9,-3.6,-120.4,0.83,-5.98,0.92,-0.17,-1.01,0.26,-268.9,-380.2,202.0,2.83,10.0,-0.17,0.0,1.0566929544574433,6.107020550153733,0.0008565522366457134,0.5,0,1,0.0
5.702384899999743,365,5676.87,-95.8,-3.7,-121.0,0.77,-6.45,0.81,-0.13,-0.93,0.19,-272.5,-347.9,316.0,2.92,8.94,-0.05,0.0,0.9580709785814411,6.546105712559186,0.09581011516656945,0.5,0,1,0.0
5.710376701999849,366,5676.88,-95.7,-3.9,-121.7,0.66,-6.67,0.71,-0.08,-0.9,0.12,-275.7,-301.9,425.0,3.0,7.62,-0.24,0.0,0.9114823092084673,6.740074183568012,0.13955080884875237,0.5,0,1,0.0
5.721565757999997,367,5676.89,-95.6,-4.0,-122.3,0.7,-6.57,0.66,-0.04,-0.87,0.03,-278.4,-255.8,431.0,3.07,6.44,-0.15,0.0,0.8714355971613738,6.640067770738489,0.17600557047792897,0.5,0,1,0.0
5.730424760999995,368,5676.9,-95.5,-4.1,-123.0,0.61,-6.07,0.63,0.0,-0.9,0.0,-280.6,-213.3,434.0,3.13,5.24,-0.3,0.0,0.9,6.133017201997725,0.14449234428651658,0.5,0,1,0.0
5.741616792000059,369,5676.91,-95.3,-4.3,-123.5,0.73,-5.4,0.51,0.02,-0.94,-0.02,-282.5,-168.3,450.0,3.17,4.0,-0.27,0.0,0.9404254356406997,5.472933399923665,0.10198557047290058,0.5,0,1,0.0
5.750363436000043,370,5676.92,-95.2,-4.3,-124.0,0.91,-4.67,0.31,0.06,-0.97,-0.01,-283.8,-120.9,463.0,3.2,2.72,-0.32,0.0,0.9719053451854249,4.767924076576723,0.0690955477096118,0.5,0,1,0.0
5.761358175999703,371,5676.93,-95.1,-4.4,-124.5,0.71,-4.02,-0.01,0.11,-0.99,-0.04,-284.7,-73.9,471.0,3.22,1.42,-0.29,0.0,0.9968951800465282,4.082229782851523,0.04322359859153835,0.5,0,1,0.0
5.77036518299974,372,5676.94,-95.0,-4.4,-124.8,0.24,-3.34,-0.38,0.15,-0.97,-0.06,-285.1,-27.2,477.0,3.22,0.12,-0.08,0.0,0.9833615815151617,3.37010385596646,0.05562205318044677,0.5,0,1,0.0
5.781507572999544,373,5676.95,-95.0,-4.4,-125.1,-0.14,-2.76,-0.73,0.17,-0.94,-0.06,-285.0,19.4,425.0,3.22,-0.93,-0.09,0.0,0.9571311299921239,2.8583386783234763,0.08021545460941493,0.5,0,1,0.0
5.7903681090001555,374,5676.96,-95.0,-4.3,-125.4,-0.27,-2.26,-0.99,0.16,-0.9,-0.05,-284.6,50.3,336.0,3.2,-1.71,-0.08,0.0,0.9154780172128657,2.4820555996995712,0.11943119604089969,0.5,0,1,0.0
5.80151435300013,375,5676.97,-95.0,-4.2,-125.6,-0.29,-1.93,-1.1,0.13,-0.85,-0.03,-283.9,76.3,284.0,3.18,-2.4,-0.14,0.0,0.8604068804931769,2.2403124782047703,0.17101228610537678,0.5,0,1,0.0
5.810411919999751,376,5676.98,-95.0,-4.1,-125.8,-0.28,-1.72,-1.07,0.11,-0.82,-0.04,-283.0,102.4,264.0,3.15,-3.08,-0.08,0.0,0.8283115355951527,2.04492053635343,0.19904547838333309,0.5,0,1,0.0
5.821313620000183,377,5676.99,-95.1,-4.0,-126.0,-0.32,-1.59,-0.99,0.09,-0.84,-0.05,-281.8,128.6,263.0,3.12,-3.79,-0.07,0.0,0.8462860036654274,1.900157888176664,0.17744959010679717,0.5,0,1,0.0
5.830413063999913,378,5677.0,-95.1,-4.0,-126.1,-0.32,-1.44,-0.9,0.09,-0.86,-0.07,-280.7,148.2,295.0,3.07,-4.47,-0.06,0.0,0.8675252157718529,1.7280046296234277,0.1530861704403641,0.5,0,1,0.0
5.841524962999756,379,5677.01,-95.1,-3.9,-126.3,-0.22,-1.25,-0.74,0.09,-0.88,-0.09,-278.6,177.1,260.0,3.02,-5.08,-0.31,0.0,0.8891569040388766,1.4691834466805023,0.12882539252987357,0.5,0,1,0.0
5.850367498000196,380,5677.02,-95.1,-3.8,-126.4,0.05,-1.09,-0.56,0.1,-0.92,-0.09,-276.7,199.8,248.0,2.97,-5.74,-0.09,0.0,0.9297849213662265,1.2264583156389786,0.08643342769847318,0.5,0,1,0.0
5.86139820399967,381,5677.03,-95.1,-3.8,-126.5,0.42,-0.92,-0.47,0.1,-0.93,-0.1,-274.5,227.2,279.0,2.91,-6.54,0.0,0.0,0.9406912352095135,1.1152129841424911,0.07401657157808239,0.5,0,1,0.0
5.870341361000101,382,5677.04,-95.0,-3.8,-126.6,0.62,-0.79,-0.41,0.1,-0.92,-0.11,-272.0,255.3,271.0,2.84,-7.27,-0.12,0.0,0.931933474020544,1.0847119433287347,0.08111884611171072,0.5,0,1,0.0
5.881302336999397,383,5677.05,-94.9,-3.7,-126.7,0.71,-0.67,-0.43,0.09,-0.9,-0.12,-269.3,280.4,248.0,2.76,-7.9,-0.14,0.0,0.9124143795447329,1.0667239567948215,0.0986251817757714,0.5,0,1,0.0
5.890335178999521,384,5677.06,-94.9,-3.7,-126.7,0.66,-0.55,-0.49,0.09,-0.88,-0.12,-266.3,304.7,250.0,2.67,-8.59,0.01,0.0,0.8926925562588723,0.9890399385262458,0.11598006496039925,0.5,0,1,0.0
5.901491122000152,385,5677.07,-94.8,-3.6,-126.8,0.57,-0.4,-0.56,0.08,-0.86,-0.12,-263.1,329.2,243.0,2.58,-9.23,-0.24,0.0,0.8720091742636655,0.8935882720806042,0.13393017801649387,0.5,0,1,0.0
5.910189958999581,386,5677.08,-94.7,-3.6,-126.8,0.39,-0.23,-0.58,0.06,-0.84,-0.13,-259.7,351.7,228.0,2.49,-9.84,-0.07,0.0,0.8521150157109074,0.7357988855658861,0.15074784983786693,0.5,0,1,0.0
5.921521309000127,387,5677.09,-94.7,-3.5,-126.8,0.21,-0.09,-0.55,0.04,-0.82,-0.15,-256.0,376.8,250.0,2.38,-10.55,-0.04,0.0,0.8345657553482528,0.5955669567731239,0.16493116799651109,0.5,0,1,0.0
5.930417398999452,388,5677.1,-94.7,-3.5,-126.8,0.08,0.06,-0.52,0.04,-0.83,-0.17,-252.1,399.1,204.0,2.27,-11.03,0.06,0.0,0.848174510345601,0.5295280917949491,0.14829596473917972,0.5,0,1,0.0
5.941346990000056,389,5677.11,-94.7,-3.4,-126.8,-0.12,0.15,-0.48,0.04,-0.83,-0.18,-247.9,418.6,233.0,2.16,-11.74,-0.14,0.0,0.8502352615599991,0.5170106381884225,0.143310509254286,0.5,0,1,0.0
5.950384843999927,390,5677.12,-94.7,-3.4,-126.8,-0.38,0.22,-0.37,0.03,-0.85,-0.19,-243.6,445.7,229.0,2.04,-12.34,-0.05,0.0,0.8714929718592113,0.5741950887982237,0.11961174297597232,0.5,0,1,0.0
5.961505470999327,391,5677.13,-94.8,-3.3,-126.8,-0.42,0.33,-0.23,0.04,-0.86,-0.22,-239.0,465.7,250.0,1.91,-13.06,0.11,0.0,0.8885943956609225,0.5815496539419485,0.10046011279077594,0.5,0,1,0.0
5.970250397999735,392,5677.14,-94.8,-3.3,-126.8,-0.3,0.43,-0.07,0.05,-0.88,-0.2,-234.1,498.1,269.0,1.77,-13.81,-0.2,0.0,0.9038252043398657,0.5289612462175277,0.08352471802959605,0.5,0,1,0.0
5.981349032999788,393,5677.15,-94.8,-3.3,-126.7,-0.02,0.55,0.08,0.07,-0.89,-0.21,-229.0,518.5,231.0,1.63,-14.38,-0.12,0.0,0.9171150418568,0.5561474624593733,0.0688301829024085,0.5,0,1,0.0
5.990334178000012,394,5677.16,-94.8,-3.3,-126.6,0.3,0.61,0.16,0.08,-0.9,-0.21,-223.6,543.5,249.0,1.48,-15.1,-0.17,0.0,0.9276313923105449,0.6983552104767315,0.05714755579969033,0.5,0,1,0.0
6.001407065999956,395,5677.17,-94.8,-3.3,-126.6,0.52,0.68,0.3,0.09,-0.86,-0.21,-217.9,577.0,317.0,1.32,-16.08,-0.22,0.0,0.889831444712986,0.9070832376358854,0.09304855332930428,0.5,0,1,0.0
6.010203953999735,396,5677.18,-94.7,-3.4,-126.5,0.39,0.76,0.51,0.09,-0.85,-0.23,-212.0,600.0,250.0,1.16,-16.63,0.09,0.0,0.8851553535961921,0.9948869282486327,0.09577015155717628,0.5,0,1,0.0
6.0216276589999325,397,5677.19,-94.7,-3.4,-126.4,0.11,0.79,0.66,0.08,-0.86,-0.25,-205.8,623.1,192.0,0.99,-17.05,-0.12,0.0,0.899166280506559,1.0352777405121778,0.0801240401538732,0.5,0,1,0.0
6.030334551000124,398,5677.2,-94.7,-3.5,-126.3,-0.11,0.79,0.74,0.08,-0.87,-0.23,-199.4,647.0,289.0,0.81,-18.03,-0.13,0.0,0.9034378783292186,1.0880257349897566,0.07433539348458928,0.5,0,1,0.0
6.041440345999945,399,5677.21,-94.7,-3.6,-126.2,-0.35,0.74,0.78,0.07,-0.88,-0.22,-192.8,671.5,218.0,0.63,-18.49,-0.03,0.0,0.9097801932335084,1.1307077429645558,0.06663321700869351,0.5,0,1,0.0
6.0502765339997495,400,5677.22,-94.8,-3.6,-126.2,-0.57,0.7,0.8,0.08,-0.9,-0.23,-185.9,695.4,267.0,0.44,-19.32,-0.27,0.0,0.9323625904121207,1.2061923561356207,0.04316980343347965,0.5,0,1,0.0
6.0613698719998865,401,5677.23,-94.9,-3.7,-126.1,-0.7,0.72,0.76,0.08,-0.91,-0.22,-178.7,729.4,253.0,0.24,-19.98,-0.29,0.0,0.9396275858019495,1.2593649193144931,0.03518671188277778,0.5,0,1,0.0
6.070364684000197,402,5677.24,-94.9,-3.8,-126.0,-0.8,0.7,0.83,0.08,-0.9,-0.22,-171.3,746.6,190.0,0.04,-20.4,-0.06,0.0,0.9299462350050136,1.3486660075793415,0.04397070142611936,0.5,0,1,0.0
6.081503442999747,403,5677.25,-95.0,-3.9,-125.9,-0.92,0.67,0.78,0.08,-0.93,-0.22,-163.8,746.9,46.0,-0.16,-20.26,-0.07,0.0,0.9590099061010788,1.3797463535012513,0.014608889723453089,0.5,0,1,0.0
6.090380472999641,404,5677.26,-95.1,-3.9,-125.9,-0.7,0.58,0.77,0.12,-0.91,-0.23,-156.6,689.0,-735.0,-0.34,-16.86,0.88,0.0,0.946255779374689,1.1913437790998869,0.02681575612084608,0.5,0,1,0.0
6.102172643999438,405,5677.27,-95.2,-4.0,-125.8,0.43,0.54,1.02,0.31,-0.84,-0.26,-150.9,509.4,-1584.0,-0.47,-11.22,0.95,0.0,0.9323625904121207,1.2316249429107873,0.039894766181746144,0.5,0,1,0.0
6.110127285999624,406,5677.28,-95.1,-4.1,-125.7,0.36,0.83,1.16,0.12,-1.09,-0.25,-147.3,306.4,-1781.0,-0.55,-6.15,0.84,0.0,1.1247221879201994,1.4710880327159215,0.14941553469980595,0.5,0,1,0.0
6.120984788999522,407,5677.29,-95.2,-4.2,-125.6,-0.79,1.09,0.27,-0.2,-1.28,-0.3,-145.4,141.8,-1606.0,-0.58,-2.1,0.75,0.0,1.3298120167903433,1.3729894391436521,0.34741525629855086,0.5,0,1,0.0
6.130482779999511,408,5677.3,-95.2,-4.2,-125.5,-0.7,1.04,-0.35,-0.33,-1.15,-0.27,-144.9,10.4,-1297.0,-0.58,0.87,0.08,0.0,1.226499082755466,1.3015759678174763,0.2392202758184001,0.5,0,1,0.0
6.141447943999992,409,5677.31,-95.3,-4.1,-125.4,0.63,0.48,-0.16,-0.25,-1.03,-0.19,-145.4,-64.6,-861.0,-0.56,2.52,0.33,0.0,1.0768008172359453,0.8080222769206304,0.08773157009290178,0.5,0,1,0.0
6.1504040789996,410,5677.32,-95.1,-4.1,-125.4,1.84,0.24,0.44,0.01,-0.88,-0.25,-146.4,-127.2,-698.0,-0.52,4.16,0.37,0.0,0.9148770409186143,1.9070395905696347,0.0727083620999407,0.5,0,1,0.0
6.161551582999891,411,5677.33,-95.0,-4.2,-125.4,0.88,0.61,0.97,0.03,-0.93,-0.31,-148.1,-178.1,-532.0,-0.47,5.34,-0.09,0.0,0.9807650075323855,1.4447837208385206,0.006683987576446171,0.5,0,1,0.0
6.170387662999929,412,5677.34,-95.0,-4.3,-125.3,-1.52,0.85,0.67,0.03,-1.05,-0.33,-150.1,-219.0,-450.0,-0.41,6.46,0.17,0.0,1.101044958210154,1.8659581988887104,0.11132404383929595,0.5,0,1,0.0
6.181379584999377,413,5677.35,-95.3,-4.3,-125.2,-2.51,1.25,0.1,0.1,-1.17,-0.27,-152.6,-261.9,-441.0,-0.34,7.63,0.19,0.0,1.2049066353871571,2.8058153895080125,0.21088200659597311,0.5,0,1,0.0
6.190307267999742,414,5677.36,-95.5,-4.3,-125.0,-2.75,1.38,-0.56,0.11,-1.25,-0.26,-155.5,-300.4,-374.0,-0.25,8.53,0.07,0.0,1.2814835153056008,3.1273790943855846,0.2817097087841284,0.5,0,1,0.0
6.201472525000099,415,5677.37,-95.9,-4.2,-124.9,-3.32,1.7,-1.16,0.06,-1.35,-0.27,-158.7,-324.8,-253.0,-0.16,9.02,-0.02,0.0,1.3780420893427023,3.906148998694238,0.3707029171648053,0.5,0,1,0.0
6.2104332109993265,416,5677.38,-96.2,-4.0,-124.7,-3.59,1.87,-2.02,0.0,-1.44,-0.21,-162.0,-333.6,-99.0,-0.07,9.03,-0.1,0.0,1.4552319402761884,4.523870024658091,0.43893491273632557,0.5,0,1,0.0
6.2212208299997656,417,5677.39,-96.6,-3.7,-124.6,-3.64,1.73,-2.81,-0.06,-1.45,-0.11,-165.3,-322.4,86.0,0.0,8.49,-0.09,0.0,1.455403724057349,4.913104924586895,0.43032456258713636,0.5,0,1,0.0
6.230521114000112,418,5677.4,-96.9,-3.3,-124.5,-3.46,1.39,-3.61,-0.09,-1.56,0.01,-168.4,-304.4,125.0,0.09,8.11,-0.15,0.0,1.5626259949200898,5.189971098185422,0.5267958967808797,0.5,0,2,0.0
6.241460991999702,419,5677.41,-97.2,-2.9,-124.4,-2.92,0.93,-4.36,-0.11,-1.56,0.07,-171.3,-288.7,166.0,0.16,7.58,-0.33,0.0,1.565439235486322,5.329249478116032,0.5190169546001697,0.5,0,2,0.0
6.250380555999982,420,5677.42,-97.5,-2.5,-124.4,-2.38,0.69,-4.42,-0.13,-1.47,0.12,-174.1,-264.2,231.0,0.24,6.85,-0.18,0.0,1.4806079832285115,5.06723790639437,0.425501988295512,0.5,0,2,0.0
6.261456901999736,421,5677.43,-97.7,-2.1,-124.4,-0.98,0.44,-3.82,-0.02,-1.29,0.11,-176.5,-235.7,267.0,0.3,6.07,-0.19,0.0,1.2948358969382954,3.9681733833087485,0.23493530396519002,0.5,0,2,0.0
6.270122932999584,422,5677.44,-97.7,-1.7,-124.4,0.31,0.6,-2.65,0.15,-1.08,0.02,-178.7,-207.7,273.0,0.35,5.31,-0.15,0.0,1.0905503197927182,2.734702908909851,0.03003673228322068,0.5,0,2,0.0
6.28154375899976,423,5677.45,-97.6,-1.5,-124.3,1.0,1.33,-1.68,0.29,-0.94,-0.06,-180.6,-180.1,283.0,0.4,4.53,0.0,0.0,0.9855455342093535,2.3645929882328587,0.07346869223414121,0.5,0,2,0.0
6.290376993999416,424,5677.46,-97.5,-1.4,-124.1,0.7,2.33,-0.83,0.35,-0.83,-0.08,-182.2,-149.8,295.0,0.44,3.7,-0.16,0.0,0.9043229511629127,2.57056414041743,0.15159744977497036,0.5,0,2,0.0
6.301108957999531,425,5677.47,-97.5,-1.3,-123.8,0.14,3.51,-0.2,0.34,-0.82,-0.06,-183.4,-119.8,301.0,0.47,2.87,-0.15,0.0,0.889719056781409,3.518479785361854,0.16287731727334476,0.5,0,2,0.0
6.310534747999554,426,5677.48,-97.5,-1.2,-123.4,-0.13,4.69,0.23,0.34,-0.89,-0.01,-184.4,-91.3,277.0,0.5,2.17,0.01,0.0,0.9527853903162034,4.697435470551991,0.09781476406377942,0.5,0,2,0.0
6.3215011309994225,427,5677.49,-97.5,-1.2,-122.9,0.1,5.56,0.22,0.3,-1.03,0.04,-185.2,-65.7,262.0,0.51,1.48,-0.19,0.0,1.0735455276791945,5.56524932056058,0.022486465833227554,0.5,0,2,0.0
6.330512737999925,428,5677.5,-97.5,-1.1,-122.3,0.71,6.24,-0.19,0.2,-1.08,0.05,-185.7,-41.2,248.0,0.52,0.83,-0.24,0.0,1.099499886311954,6.283136159594188,0.047472007976667285,0.5,0,2,0.0
6.341487398000027,429,5677.51,-97.4,-1.0,-121.7,1.4,6.33,-0.71,0.08,-1.05,0.11,-185.9,-19.8,208.0,0.53,0.34,0.04,0.0,1.058772874605314,6.521732898547747,0.006610096344626726,0.5,0,2,0.0
6.350379996999436,430,5677.52,-97.2,-0.8,-121.1,2.15,5.99,-1.19,-0.01,-0.99,0.13,-186.0,-4.4,172.0,0.53,-0.07,-0.13,0.0,0.9985489472229191,6.474465228881843,0.052541554417012803,0.5,0,2,0.0
6.361365089999708,431,5677.53,-97.0,-0.6,-120.5,2.18,5.5,-1.45,-0.09,-0.94,0.12,-186.0,3.8,69.0,0.53,-0.07,-0.01,0.0,0.951892851112981,6.091379154181753,0.09721369751641185,0.5,0,2,0.0
6.370378651999999,432,5677.54,-96.8,-0.4,-120.0,1.6,4.88,-1.48,-0.17,-0.91,0.1,-186.0,-0.1,-1.0,0.53,0.03,-0.01,0.0,0.9311283477587825,5.344604756200406,0.11561863685319829,0.5,0,2,0.0
6.38133585200012,433,5677.55,-96.7,-0.2,-119.6,1.05,4.23,-1.26,-0.23,-0.88,0.09,-186.0,0.0,8.0,0.53,0.0,-0.06,0.0,0.9140021881811881,4.536849126872085,0.13008990050217684,0.5,0,2,0.0
6.390127982999729,434,5677.56,-96.6,-0.1,-119.2,0.95,3.59,-0.74,-0.23,-0.87,0.08,-186.0,-0.7,-15.0,0.53,0.06,-0.09,0.0,0.9034378783292186,3.786581571813817,0.13784112614706345,0.5,0,2,0.0
6.401489079999919,435,5677.57,-96.5,0.0,-118.9,0.91,2.96,-0.18,-0.2,-0.89,0.05,-186.0,-3.0,-11.0,0.53,0.09,-0.06,0.0,0.9135644476444998,3.1019509989682303,0.1251602656951466,0.5,0,2,0.0
6.410212928999499,436,5677.58,-96.4,0.0,-118.7,0.65,2.43,0.27,-0.14,-0.89,0.0,-186.0,-5.0,-30.0,0.53,0.2,0.0,0.0,0.9009439494219382,2.529881420146012,0.1350251486393541,0.5,0,2,0.0
6.421300519999932,437,5677.59,-96.4,0.0,-118.4,0.3,2.15,0.62,-0.08,-0.9,-0.06,-186.1,-13.5,-89.0,0.53,0.54,0.03,0.0,0.9055385138137417,2.257631502260721,0.12782197256259953,0.5,0,2,0.0
6.430217551999704,438,5677.6,-96.3,-0.1,-118.2,0.21,2.15,0.89,-0.05,-0.93,-0.09,-186.4,-30.3,-156.0,0.54,1.07,0.08,0.0,0.9356815697661252,2.336386098229486,0.09572533827801188,0.5,0,2,0.0
6.441228216000127,439,5677.61,-96.3,-0.2,-118.0,0.42,2.21,0.99,-0.02,-0.96,-0.09,-186.8,-52.3,-212.0,0.56,1.73,0.17,0.0,0.9644169222903546,2.457763210726371,0.06565018603870676,0.5,0,2,0.0
6.450110796999979,440,5677.62,-96.2,-0.2,-117.7,0.78,2.23,0.96,-0.02,-0.97,-0.08,-187.5,-77.4,-234.0,0.58,2.39,0.14,0.0,0.973498844375277,2.5500784301664137,0.05543689867470869,0.5,0,2,0.0
6.4612282509997385,441,5677.63,-96.1,-0.3,-117.5,1.08,2.15,0.84,-0.02,-0.95,-0.07,-188.5,-98.8,-208.0,0.61,2.9,0.15,0.0,0.9527853903162034,2.5484308897829657,0.07462734567910667,0.5,0,2,0.0
6.470109517999845,442,5677.64,-96.0,-0.4,-117.3,1.17,2.07,0.72,-0.03,-0.92,-0.07,-189.6,-117.0,-182.0,0.64,3.37,0.01,0.0,0.9231467922275417,2.4843912735316067,0.10218062489241297,0.5,0,2,0.0
6.481240041000092,443,5677.65,-95.9,-0.5,-117.1,1.16,1.95,0.57,-0.03,-0.9,-0.07,-190.9,-131.0,-141.0,0.68,3.69,-0.05,0.0,0.903216474606171,2.339444378479642,0.11966872366350789,0.5,0,2,0.0
6.489712412999324,444,5677.66,-95.8,-0.5,-116.9,0.84,1.79,0.61,-0.04,-0.86,-0.08,-192.2,-140.6,-103.0,0.72,3.9,0.06,0.0,0.8646386528486915,2.069251072248121,0.15508161451256763,0.5,0,2,0.0
6.501356207999379,445,5677.67,-95.7,-0.6,-116.7,0.44,1.6,0.72,-0.05,-0.85,-0.08,-193.7,-146.0,-55.0,0.76,3.99,0.09,0.0,0.8552192701290119,1.808867048735202,0.16121097728760236,0.5,0,2,0.0
6.510194677999607,446,5677.68,-95.7,-0.7,-116.6,0.18,1.36,0.83,-0.05,-0.86,-0.09,-195.2,-147.7,-31.0,0.8,4.03,0.07,0.0,0.8661408661412991,1.6034026319050372,0.1472835936498088,0.5,0,2,0.0
6.5211753529993075,447,5677.69,-95.7,-0.8,-116.4,0.0,1.1,0.95,-0.04,-0.88,-0.1,-196.6,-148.0,-2.0,0.84,3.99,0.07,0.0,0.8865664103720601,1.4534441853748634,0.12432088843066702,0.5,0,2,0.0
6.530100639999546,448,5677.7,-95.7,-0.9,-116.3,0.07,0.98,0.88,-0.04,-0.92,-0.12,-198.1,-145.0,25.0,0.87,3.88,-0.01,0.0,0.928654941299512,1.3189768762188365,0.08058771035315071,0.5,0,2,0.0
6.541234194999561,449,5677.71,-95.7,-1.0,-116.2,0.34,0.81,0.84,-0.04,-0.91,-0.12,-199.5,-139.1,54.0,0.91,3.69,0.17,0.0,0.9187491496594705,1.2154423063230932,0.08868363195332829,0.5,0,2,0.0
6.550095154999326,450,5677.72,-95.7,-1.1,-116.1,0.47,0.67,0.92,-0.04,-0.91,-0.13,-200.9,-131.8,75.0,0.95,3.46,-0.2,0.0,0.9201086892318755,1.2313407326974934,0.08557761053330482,0.5,0,2,0.0
6.561334983999586,451,5677.73,-95.6,-1.2,-116.1,0.63,0.58,0.87,-0.05,-0.94,-0.15,-202.1,-120.0,113.0,0.98,3.09,0.01,0.0,0.9532051195833979,1.2207374820165064,0.05143155657814669,0.5,0,2,0.0
6.570084180999402,452,5677.74,-95.6,-1.3,-116.0,0.86,0.46,0.71,-0.07,-0.94,-0.15,-203.2,-107.7,115.0,1.01,2.78,-0.17,0.0,0.9544631999192006,1.2063581557729859,0.04917000671749716,0.5,0,2,0.0
6.581342384999516,453,5677.75,-95.5,-1.4,-116.0,1.05,0.32,0.5,-0.09,-0.93,-0.16,-204.2,-94.4,125.0,1.03,2.41,0.02,0.0,0.9479451460923254,1.2061923561356207,0.05457429933348501,0.5,0,2,0.0
6.590108165999482,454,5677.76,-95.4,-1.4,-115.9,1.43,0.17,0.22,-0.11,-0.93,-0.16,-205.1,-82.2,115.0,1.06,2.12,-0.07,0.0,0.9500526301210896,1.456777265061478,0.051417478998626365,0.5,0,2,0.0
6.601531047999742,455,5677.77,-95.2,-1.4,-115.9,2.02,-0.03,-0.18,-0.13,-0.89,-0.15,-205.8,-72.2,103.0,1.08,1.84,0.0,0.0,0.9118662182579197,2.028225825691015,0.08781181304456043,0.5,0,2,0.0
6.610180560000117,456,5677.78,-95.0,-1.4,-116.0,2.44,-0.32,-0.6,-0.16,-0.84,-0.15,-206.5,-62.2,100.0,1.09,1.57,-0.01,0.0,0.8681589716175258,2.5329824318380103,0.1288886784912553,0.5,0,2,0.0
6.621169433999967,457,5677.79,-94.8,-1.3,-116.0,2.35,-0.67,-0.89,-0.18,-0.76,-0.14,-207.0,-52.4,98.0,1.11,1.3,-0.06,0.0,0.7934733769950949,2.6006729898239804,0.19950278765141238,0.5,0,2,0.0
6.63007763799942,458,5677.8,-94.6,-1.2,-116.1,1.47,-1.02,-0.93,-0.18,-0.7,-0.15,-207.5,-47.2,57.0,1.12,1.22,-0.1,0.0,0.738173421358423,2.0164820852167273,0.24970668842232258,0.5,0,2,0.0
6.641319614999702,459,5677.81,-94.5,-1.1,-116.2,0.13,-1.24,-0.81,-0.13,-0.7,-0.17,-208.0,-44.7,23.0,1.13,1.22,0.08,0.0,0.7319836063738039,1.4868086628749513,0.2507785733388028,0.5,0,2,0.0
6.654244915000163,460,5677.82,-94.5,-1.1,-116.4,-1.05,-1.32,-0.57,-0.07,-0.77,-0.21,-208.4,-46.7,-7.0,1.14,1.28,0.15,0.0,0.8011866199581719,1.7803932149949349,0.1779440485593462,0.5,0,2,0.0
6.662258845999531,461,5677.83,-94.7,-1.0,-116.5,-1.66,-1.25,-0.35,0.0,-0.84,-0.23,-208.9,-50.0,-33.0,1.16,1.42,0.11,0.0,0.8709190547921202,2.107273119460313,0.10604738145088999,0.5,0,2,0.0
6.670089598999766,462,5677.84,-94.8,-1.0,-116.6,-1.65,-1.11,-0.25,0.07,-0.93,-0.25,-209.4,-57.6,-78.0,1.17,1.72,0.08,0.0,0.9655568341635826,2.0042704408337713,0.011181410037839012,0.5,0,2,0.0
6.681312349000109,463,5677.85,-95.0,-1.0,-116.7,-1.16,-0.9,-0.31,0.12,-0.96,-0.26,-210.1,-71.3,-124.0,1.19,2.13,0.1,0.0,1.0017983829094554,1.5005665596700466,0.02455893593387315,0.5,0,2,0.0
6.690077993999694,464,5677.86,-95.1,-1.0,-116.8,-0.92,-0.63,-0.34,0.13,-0.96,-0.25,-211.0,-90.2,-177.0,1.22,2.7,0.19,0.0,1.000499875062461,1.1657186624567697,0.022795219525141075,0.5,0,2,0.0
6.701378380999813,465,5677.87,-95.2,-0.9,-116.8,-1.13,-0.21,-0.23,0.13,-0.98,-0.25,-212.0,-111.6,-212.0,1.25,3.33,0.0,0.0,1.0197058399362045,1.1721348045340176,0.04116116071090692,0.5,0,2,0.0
6.710200946999976,466,5677.88,-95.3,-0.9,-116.8,-1.09,0.39,-0.09,0.1,-1.05,-0.25,-213.3,-134.4,-221.0,1.29,3.93,0.12,0.0,1.08397416943394,1.1611632098891183,0.10332090040446962,0.5,0,2,0.0
6.721194975999424,467,5677.89,-95.4,-0.9,-116.8,-0.44,0.77,0.0,0.05,-1.09,-0.23,-214.8,-155.2,-205.0,1.33,4.46,0.01,0.0,1.1151233115669317,0.8868483523128404,0.1317806416867121,0.5,0,2,0.0
6.7299819929994555,468,5677.9,-95.4,-0.9,-116.7,0.35,0.8,0.09,0.01,-1.08,-0.21,-216.5,-173.7,-178.0,1.38,4.9,0.06,0.0,1.1002726934719411,0.8778382538941898,0.11459142311988713,0.5,0,2,0.0
6.7411888449996695,469,5677.91,-95.4,-0.9,-116.6,0.37,0.51,0.31,-0.02,-1.03,-0.21,-218.3,-188.4,-153.0,1.43,5.28,-0.05,0.0,1.0513800454640558,0.7022107945624305,0.06438479960976184,0.5,0,2,0.0
6.750082911999925,470,5677.92,-95.5,-1.0,-116.6,-0.43,0.23,0.6,-0.03,-1.03,-0.23,-220.3,-200.8,-127.0,1.48,5.59,-0.07,0.0,1.0557935404235053,0.7731752712031082,0.06742232867782705,0.5,0,2,0.0
6.76123639799971,471,5677.93,-95.6,-1.0,-116.6,-1.19,0.01,0.92,-0.06,-1.04,-0.24,-222.4,-211.9,-118.0,1.54,5.91,0.21,0.0,1.0690182411914215,1.504194136406601,0.0790340888568285,0.5,0,2,0.0
6.770088386999305,472,5677.94,-95.7,-1.2,-116.6,-1.4,-0.13,1.38,-0.06,-1.08,-0.23,-224.6,-225.1,-131.0,1.6,6.28,0.06,0.0,1.1058480908334563,1.970101520226813,0.113546659728886,0.5,0,2,0.0
6.781237612000041,473,5677.95,-95.9,-1.3,-116.6,-0.99,-0.42,1.71,-0.06,-1.14,-0.21,-226.9,-239.3,-140.0,1.67,6.69,0.12,0.0,1.1607325273291862,2.020049504343891,0.16506247430012366,0.5,0,2,0.0
6.79006763399957,474,5677.96,-96.0,-1.5,-116.6,-0.4,-0.88,1.77,-0.07,-1.18,-0.22,-229.4,-254.9,-161.0,1.74,7.15,0.04,0.0,1.2023726543796645,2.0167548190099858,0.20256854932358992,0.5,0,2,0.0
6.8012995190001675,475,5677.97,-96.1,-1.7,-116.7,-0.26,-1.29,1.75,-0.09,-1.16,-0.21,-232.1,-274.1,-190.0,1.82,7.71,0.01,0.0,1.182285921425101,2.1895661670751125,0.17883218004164592,0.5,0,2,0.0
6.810230950999539,476,5677.98,-96.2,-2.0,-116.8,-0.85,-1.33,1.98,-0.04,-1.22,-0.17,-235.0,-297.0,-213.0,1.9,8.34,0.24,0.0,1.2324366109459748,2.532153233909828,0.22440321217126935,0.5,0,2,0.0
6.821181765999427,477,5677.99,-96.3,-2.2,-116.9,-1.11,-1.04,2.21,0.01,-1.37,-0.05,-238.2,-315.4,-164.0,1.98,8.7,-0.16,0.0,1.3709485767161365,2.6828715958837837,0.3556568743826023,0.5,0,2,0.0
6.830184796999674,478,5678.0,-96.3,-2.4,-117.0,-0.79,-0.92,2.67,0.04,-1.44,0.01,-240.3,-324.0,-192.0,2.07,9.14,0.11,0.0,1.4405901568454507,2.9324733587877656,0.41679248542167824,0.5,0,2,0.0
6.841246967999723,479,5678.01,-96.4,-2.7,-117.0,0.24,-0.66,3.24,0.08,-1.49,0.04,-244.7,-346.3,-192.0,2.17,9.62,0.17,0.0,1.4926821496889415,3.315237548049913,0.4595067886998656,0.5,0,2,0.0
6.850184842999624,480,5678.02,-96.3,-3.1,-117.0,1.86,-0.45,3.55,0.07,-1.45,0.11,-248.3,-359.9,-148.0,2.27,9.95,0.13,0.0,1.4558502670261115,4.0329393746993025,0.4142214079162949,0.5,0,2,0.0
6.861139406999428,481,5678.03,-96.0,-3.4,-117.1,2.22,-0.89,3.3,-0.02,-1.28,0.19,-252.0,-376.8,-185.0,2.37,10.52,0.23,0.0,1.2941792766073794,4.075598115614444,0.24749940914761148,0.5,0,2,0.0
6.870188470999892,482,5678.04,-95.8,-3.7,-117.2,1.29,-1.66,2.79,-0.16,-1.11,0.19,-255.9,-395.5,-144.0,2.48,10.82,0.02,0.0,1.1374532957444892,3.4933937653805933,0.08895795971902687,0.5,0,2,0.0
6.881049941999663,483,5678.05,-95.8,-4.0,-117.4,0.06,-2.4,2.14,-0.3,-1.07,0.2,-259.9,-397.9,-48.0,2.59,10.81,0.12,0.0,1.1291146974510606,3.2160845760023165,0.07900697419708647,0.5,0,2,0.0
6.890059435999319,484,5678.06,-95.8,-4.2,-117.6,-0.81,-3.2,1.53,-0.33,-1.1,0.26,-263.9,-396.3,6.0,2.69,10.7,0.19,0.0,1.1774973460691962,3.6382688190951478,0.1248418303589176,0.5,0,2,0.0
6.901390925999294,485,5678.07,-95.9,-4.4,-118.0,-0.66,-4.05,1.04,-0.31,-1.15,0.3,-267.8,-389.4,57.0,2.8,10.46,-0.18,0.0,1.2282507887235408,4.233166663385698,0.1720833675529969,0.5,0,2,0.0
6.910229633000199,486,5678.08,-95.9,-4.5,-118.4,0.09,-4.84,0.73,-0.26,-1.11,0.27,-271.6,-375.1,147.0,2.9,9.91,-0.21,0.0,1.1715801295686097,4.8955694255111935,0.11310445423010451,0.5,0,2,0.0
6.921161649000169,487,5678.09,-95.8,-4.6,-118.9,0.67,-5.47,0.65,-0.17,-1.01,0.22,-275.1,-343.5,303.0,2.99,8.82,-0.13,0.0,1.0475686135046238,5.549081004995331,0.01068892059720361,0.5,0,2,0.0
6.930197187999511,488,5678.1,-95.6,-4.7,-119.5,0.9,-5.99,0.69,-0.09,-0.93,0.16,-278.3,-302.7,360.0,3.07,7.77,-0.12,0.0,0.9479451460923254,6.096408778945192,0.10810614024931198,0.5,0,2,0.0
6.941151002999504,489,5678.11,-95.5,-4.9,-120.1,1.05,-6.15,0.75,-0.03,-0.85,0.08,-281.1,-264.5,384.0,3.14,6.67,-0.02,0.0,0.8542833253669416,6.283908019696024,0.1977326017552018,0.5,0,2,0.0
6.949928010999429,490,5678.12,-95.3,-5.0,-120.7,0.86,-5.92,0.74,0.0,-0.87,0.03,-283.4,-220.7,429.0,3.2,5.43,-0.37,0.0,0.8705170877128146,6.027735893351665,0.1778688626211422,0.5,0,2,0.0
6.9612516239994875,491,5678.13,-95.2,-5.1,-121.3,0.81,-5.5,0.77,0.02,-0.87,0.0,-285.3,-172.9,467.0,3.25,4.1,-0.32,0.0,0.8702298546935746,5.612396992373223,0.17459297372757454,0.5,0,2,0.0
6.97017342900017,492,5678.14,-95.1,-5.3,-121.8,1.08,-4.94,0.64,0.03,-0.93,0.0,-286.7,-123.9,482.0,3.28,2.76,-0.3,0.0,0.9304837451562494,5.097018736477237,0.11205230159960167,0.5,0,2,0.0
6.981193421000171,493,5678.15,-94.9,-5.3,-122.2,1.21,-4.41,0.39,0.04,-0.96,-0.01,-287.6,-74.5,496.0,3.3,1.4,-0.5,0.0,0.9608850087289321,4.589586037977718,0.08001801726638058,0.5,0,2,0.0
6.990172034999887,494,5678.16,-94.8,-5.4,-122.6,0.82,-3.89,0.07,0.05,-0.97,-0.01,-288.0,-25.3,492.0,3.3,0.06,-0.25,0.0,0.9713392816107047,3.9761036203801328,0.06817246949691591,0.5,0,2,0.0
7.001232061999872,495,5678.17,-94.7,-5.4,-123.0,0.27,-3.44,-0.3,0.07,-0.98,-0.02,-287.9,17.7,395.0,3.3,-0.81,0.0,0.0,0.982700361249552,3.463596396810691,0.05567516206090728,0.5,0,2,0.0
7.0102835190000405,496,5678.18,-94.6,-5.4,-123.3,-0.13,-3.03,-0.7,0.08,-0.97,-0.03,-287.5,45.2,312.0,3.28,-1.55,-0.07,0.0,0.973755616158387,3.1125230922838147,0.06332750900903072,0.5,0,2,0.0
7.021141584999896,497,5678.19,-94.6,-5.3,-123.6,-0.2,-2.64,-0.98,0.07,-0.92,-0.04,-286.9,71.4,277.0,3.26,-2.26,0.05,0.0,0.9235258523723091,2.823118842698621,0.11128612733920651,0.5,0,2,0.0
7.030385704999389,498,5678.2,-94.6,-5.2,-123.9,-0.11,-2.26,-1.04,0.06,-0.88,-0.04,-286.0,96.8,261.0,3.23,-2.94,-0.26,0.0,0.8829496021857647,2.490240952197196,0.148825129975236,0.5,0,2,0.0
7.041155955999784,499,5678.21,-94.6,-5.2,-124.1,0.0,-1.96,-1.0,0.06,-0.85,-0.03,-284.9,123.3,271.0,3.2,-3.7,-0.14,0.0,0.8526429498916882,2.2003636063160106,0.17554914662392618,0.5,0,2,0.0
7.050272386999495,500,5678.22,-94.6,-5.1,-124.3,0.01,-1.72,-0.85,0.07,-0.84,-0.03,-283.4,150.3,266.0,3.16,-4.4,-0.15,0.0,0.8434453153583816,1.9185932346383379,0.18105184553408815,0.5,0,2,0.0
7.0613916379998045,501,5678.23,-94.6,-5.0,-124.5,0.04,-1.44,-0.7,0.08,-0.85,-0.06,-281.8,176.0,264.0,3.11,-5.12,-0.14,0.0,0.8558621384311844,1.6016241756417138,0.1652623220120597,0.5,0,2,0.0
7.070155084999897,502,5678.24,-94.5,-5.0,-124.6,0.08,-1.15,-0.56,0.1,-0.87,-0.08,-279.8,201.1,245.0,3.05,-5.74,-0.07,0.0,0.8793747778962051,1.2816005617976296,0.13891468889609815,0.5,0,2,0.0
7.081223000000136,503,5678.25,-94.5,-4.9,-124.7,0.14,-0.82,-0.46,0.11,-0.9,-0.09,-277.7,223.6,231.0,2.99,-6.36,-0.02,0.0,0.9111531155629113,0.9505787710652915,0.10499362420480418,0.5,0,2,0.0
7.090207348000149,504,5678.26,-94.5,-4.9,-124.8,0.16,-0.54,-0.44,0.12,-0.93,-0.09,-275.3,248.8,260.0,2.92,-7.11,-0.14,0.0,0.942019108086455,0.7147027354082255,0.07264507904763529,0.5,0,2,0.0
7.101210490000085,505,5678.27,-94.5,-4.8,-124.8,0.23,-0.31,-0.51,0.11,-0.94,-0.1,-272.6,278.5,282.0,2.85,-7.91,-0.1,0.0,0.9516827202382104,0.6396092557178953,0.06172183755796212,0.5,0,2,0.0
7.110133364999456,506,5678.28,-94.5,-4.8,-124.8,0.24,-0.12,-0.6,0.1,-0.93,-0.1,-269.6,304.8,253.0,2.76,-8.56,-0.14,0.0,0.9406912352095135,0.6572670690061994,0.07125905613492589,0.5,0,2,0.0
7.121098912999514,507,5678.29,-94.4,-4.7,-124.8,0.18,0.04,-0.71,0.08,-0.92,-0.1,-266.4,328.0,243.0,2.67,-9.21,-0.1,0.0,0.9288702815786497,0.7335529974037323,0.08141840957047386,0.5,0,2,0.0
7.130280944999868,508,5678.3,-94.4,-4.6,-124.8,0.13,0.17,-0.84,0.06,-0.89,-0.1,-262.9,352.0,239.0,2.58,-9.85,-0.09,0.0,0.8976079322287654,0.8668333173107733,0.11042714374195095,0.5,0,2,0.0
7.141128823999679,509,5678.31,-94.4,-4.6,-124.8,0.02,0.24,-0.93,0.03,-0.86,-0.11,-259.2,374.8,236.0,2.47,-10.49,0.16,0.0,0.8675252157718529,0.9606768447297979,0.13769966299488612,0.5,0,2,0.0
7.149726962999921,510,5678.32,-94.4,-4.5,-124.8,-0.16,0.26,-1.01,0.0,-0.85,-0.11,-255.3,401.1,255.0,2.36,-11.22,0.0,0.0,0.8570880934886448,1.0551303237041385,0.14517404957253233,0.5,0,2,0.0
7.160848488999363,511,5678.33,-94.5,-4.3,-124.8,-0.34,0.2,-1.1,-0.01,-0.85,-0.11,-251.2,421.5,198.0,2.25,-11.65,-0.08,0.0,0.857146428563988,1.1685888926393233,0.14221340020724527,0.5,0,2,0.0
7.1706900669996685,512,5678.34,-94.6,-4.2,-124.8,-0.56,0.04,-1.07,-0.01,-0.84,-0.12,-246.8,443.0,245.0,2.13,-12.41,-0.05,0.0,0.8485870609430713,1.208345976945345,0.14775731247159873,0.5,0,2,0.0
7.18115916699935,513,5678.35,-94.7,-4.0,-124.8,-0.65,-0.2,-0.97,-0.01,-0.85,-0.14,-242.2,467.2,206.0,2.0,-12.89,-0.11,0.0,0.8615103017375938,1.184651847590675,0.13213739024353477,0.5,0,2,0.0
7.190305498999805,514,5678.36,-94.7,-3.9,-124.8,-0.6,-0.32,-0.94,0.0,-0.9,-0.19,-237.4,492.2,291.0,1.86,-13.85,-0.02,0.0,0.9198369420718001,1.160172400981854,0.07233453491114183,0.5,0,2,0.0
7.202287391999562,515,5678.37,-94.8,-3.9,-124.9,-0.3,-0.44,-0.82,0.02,-0.89,-0.23,-232.2,521.5,246.0,1.72,-14.41,-0.15,0.0,0.9194563611178075,0.9777525249264253,0.07126081354783176,0.5,0,2,0.0
7.210426476999601,516,5678.38,-94.8,-3.8,-124.9,-0.05,-0.5,-0.54,0.04,-0.87,-0.24,-226.9,541.8,234.0,1.57,-15.03,-0.06,0.0,0.9033825324855468,0.7376313442364011,0.08558794933649061,0.5,0,2,0.0
7.221408927999619,517,5678.39,-94.8,-3.8,-125.0,0.17,-0.54,-0.19,0.05,-0.88,-0.24,-221.3,567.9,279.0,1.42,-15.86,-0.04,0.0,0.9135097153287424,0.5971599450733447,0.07395155116342911,0.5,0,2,0.0
7.230321041999559,518,5678.4,-94.7,-3.8,-125.0,0.31,-0.57,0.13,0.05,-0.87,-0.23,-215.4,598.9,245.0,1.25,-16.47,-0.17,0.0,0.9012768719988326,0.6617401302626281,0.08446070660347216,0.5,0,2,0.0
7.2412169559993345,519,5678.41,-94.7,-3.8,-125.1,0.43,-0.54,0.48,0.06,-0.86,-0.25,-209.2,620.5,259.0,1.08,-17.21,-0.4,0.0,0.8976079322287654,0.8407734534343958,0.08636705344606843,0.5,0,2,0.0
7.2504931799994665,520,5678.42,-94.6,-3.9,-125.1,0.39,-0.39,0.77,0.07,-0.86,-0.27,-202.9,639.0,214.0,0.91,-17.71,-0.21,0.0,0.9041017641836564,0.9471536306217698,0.07827575706135392,0.5,0,2,0.0
7.261132052999528,521,5678.43,-94.6,-4.0,-125.2,0.24,-0.15,1.02,0.08,-0.87,-0.27,-196.3,670.3,242.0,0.73,-18.41,-0.31,0.0,0.9144397191723465,1.058536725862641,0.06657904603121056,0.5,0,2,0.0
7.270459244999984,522,5678.44,-94.6,-4.1,-125.1,-0.03,0.12,1.16,0.08,-0.89,-0.25,-189.5,689.3,232.0,0.54,-19.05,0.02,0.0,0.9279008567729636,1.1665761869676579,0.0520555502619815,0.5,0,2,0.0
7.281420147000063,523,5678.45,-94.6,-4.2,-125.1,-0.2,0.38,1.25,0.11,-0.91,-0.25,-182.4,721.6,337.0,0.34,-20.13,-0.39,0.0,0.950105257326787,1.3217034463146413,0.029254126713994966,0.5,0,2,0.0
7.290442873999382,524,5678.46,-94.6,-4.3,-125.0,-0.22,0.68,1.16,0.16,-0.94,-0.24,-174.9,745.9,229.0,0.14,-20.53,0.15,0.0,0.9832598842625483,1.3624977064200878,0.0038224902173310538,0.5,0,2,0.0
7.301222782999503,525,5678.47,-94.7,-4.4,-125.0,-0.26,0.98,1.12,0.18,-0.93,-0.24,-167.4,755.0,61.0,-0.06,-20.43,-0.08,0.0,0.9771898484941399,1.5107613974417007,0.0022025946400557883,0.5,0,2,0.0
7.310426401999393,526,5678.48,-94.7,-4.5,-124.8,-0.19,1.26,1.05,0.22,-0.91,-0.24,-159.9,740.2,-189.0,-0.26,-19.48,0.01,0.0,0.9664884893261793,1.6511208314354224,0.012645874731856077,0.5,0,2,0.0
7.321250713999689,527,5678.49,-94.7,-4.6,-124.7,-0.04,1.58,1.02,0.26,-0.9,-0.25,-153.0,656.3,-832.0,-0.43,-16.12,0.89,0.0,0.9695875411740809,1.8810635289643995,0.009355886426275384,0.5,0,2,0.0
7.330233470000167,528,5678.5,-94.7,-4.7,-124.5,0.52,1.75,0.98,0.36,-0.86,-0.26,-147.6,491.2,-1485.0,-0.56,-11.04,0.67,0.0,0.9678842906050289,2.07202799208891,0.010837954255420779,0.5,0,2,0.0
7.341024979999929,529,5678.51,-94.7,-4.8,-124.3,-0.11,2.11,0.71,0.15,-1.09,-0.25,-144.0,305.0,-1706.0,-0.64,-6.1,0.7,0.0,1.1283173312503891,2.2289683712426247,0.14660318466214062,0.5,0,2,0.0
7.3504206379993775,530,5678.52,-94.8,-4.8,-124.1,-1.3,2.14,-0.25,-0.15,-1.22,-0.19,-142.0,145.4,-1518.0,-0.67,-2.34,0.46,0.0,1.243784547258889,2.5163664280068594,0.2568289926572278,0.5,0,2,0.0
7.361181676999877,531,5678.53,-95.0,-4.7,-123.9,-1.16,1.5,-0.93,-0.32,-1.16,-0.11,-141.5,25.1,-1241.0,-0.67,0.55,0.31,0.0,1.2083459769453448,2.111989583307645,0.21696261389680993,0.5,0,2,0.0
7.370450010999775,532,5678.54,-95.0,-4.6,-123.8,0.22,0.58,-0.83,-0.24,-1.04,-0.14,-141.8,-60.9,-930.0,-0.65,2.57,0.24,0.0,1.0764757312638313,1.0361949623502325,0.08339052085099052,0.5,0,2,0.0
7.381306190999567,533,5678.55,-94.9,-4.5,-123.8,1.52,0.43,-0.17,-0.05,-0.93,-0.31,-142.9,-134.8,-785.0,-0.61,4.48,0.15,0.0,0.981580358401695,1.5887731115549508,0.011274754970922896,0.5,0,2,0.0
7.390430278999702,534,5678.56,-94.8,-4.5,-123.7,0.67,0.66,0.13,-0.12,-1.07,-0.3,-144.7,-194.4,-614.0,-0.56,5.87,0.09,0.0,1.1177208953938367,0.9494208761134337,0.12236846638079446,0.5,0,2,0.0
7.401266554999893,535,5678.57,-94.9,-4.5,-123.6,-0.93,0.77,-0.18,-0.13,-1.14,-0.25,-147.0,-239.0,-489.0,-0.49,7.01,0.17,0.0,1.174308307047174,1.2207374820165064,0.1753767604734492,0.5,0,2,0.0
7.410521103000065,536,5678.58,-95.0,-4.5,-123.6,-1.58,0.8,-0.6,-0.02,-1.17,-0.19,-149.7,-280.9,-444.0,-0.41,8.15,0.21,0.0,1.1854956769216831,1.8698663053812163,0.18283284774099906,0.5,0,2,0.0
7.421153055000104,537,5678.59,-95.2,-4.4,-123.5,-2.09,0.64,-0.99,0.02,-1.22,-0.2,-152.8,-318.7,-368.0,-0.33,9.01,0.23,0.0,1.2364465212858986,2.3995416228938393,0.22910801826311022,0.5,0,2,0.0
7.430488703999799,538,5678.6,-95.5,-4.3,-123.4,-3.02,0.76,-1.51,0.01,-1.3,-0.23,-156.1,-338.9,-214.0,-0.23,9.33,-0.04,0.0,1.320227253165151,3.460939178893498,0.30663097513951554,0.5,0,2,0.0
7.441317050999714,539,5678.61,-95.9,-4.0,-123.4,-3.8,0.88,-2.21,0.0,-1.38,-0.13,-159.5,-344.1,-80.0,-0.14,9.33,0.12,0.0,1.3861096637712327,4.4831350637695495,0.36506311803068514,0.5,0,2,0.0
7.450304850999601,540,5678.62,-96.2,-3.7,-123.3,-3.92,0.67,-3.16,-0.02,-1.51,0.0,-162.9,-335.7,68.0,-0.05,8.89,0.03,0.0,1.510132444522665,5.0794586325709945,0.4793041808064751,0.5,0,2,0.0
7.461188303999734,541,5678.63,-96.6,-3.4,-123.3,-3.85,0.42,-4.1,-0.08,-1.56,0.03,-166.1,-312.6,195.0,0.03,8.17,-0.18,0.0,1.5623379916010494,5.639937942921003,0.5208795333271623,0.5,0,3,0.0
7.470388193999497,542,5678.64,-97.0,-2.9,-123.3,-3.78,0.23,-4.61,-0.14,-1.53,0.09,-169.1,-288.1,218.0,0.1,7.55,-0.05,0.0,1.5390256658028807,5.966020449177157,0.4876158633784138,0.5,0,3,0.0
7.4812495070000296,543,5678.65,-97.3,-2.5,-123.4,-2.49,0.02,-4.35,-0.06,-1.38,0.12,-171.8,-263.8,247.0,0.17,6.83,-0.09,0.0,1.386506400994961,5.012284908103289,0.32839466659908423,0.5,0,3,0.0
7.49037187399972,544,5678.66,-97.5,-2.1,-123.4,-0.69,0.16,-3.2,0.09,-1.15,0.06,-174.3,-237.2,256.0,0.24,6.12,-0.39,0.0,1.155075755091414,3.277453279605981,0.09502474028162644,0.5,0,3,0.0
7.501250626000001,545,5678.67,-97.5,-1.8,-123.4,0.34,0.74,-1.81,0.28,-1.0,-0.04,-176.5,-212.3,247.0,0.29,5.47,0.0,0.0,1.0392304845413265,1.984766988842771,0.020404119663091747,0.5,0,3,0.0
7.510358982999605,546,5678.68,-97.4,-1.7,-123.3,0.86,1.86,-0.8,0.39,-0.89,-0.13,-178.4,-188.8,237.0,0.34,4.84,-0.07,0.0,0.980357077803797,2.1998181743044127,0.07769197587260879,0.5,0,3,0.0
7.521428782999465,547,5678.69,-97.3,-1.6,-123.0,0.71,3.21,-0.11,0.4,-0.82,-0.11,-180.1,-165.0,241.0,0.39,4.18,-0.17,0.0,0.9189668111526117,3.2894224417061424,0.13630059767331826,0.5,0,3,0.0
7.530408337999688,548,5678.7,-97.3,-1.6,-122.6,0.44,4.66,0.32,0.38,-0.83,-0.08,-181.6,-139.4,250.0,0.43,3.49,-0.14,0.0,0.9163514609580757,4.691652161019612,0.13613762891049708,0.5,0,3,0.0
7.541170624999722,549,5678.71,-97.3,-1.6,-122.1,0.16,5.89,0.45,0.34,-0.94,-0.01,-182.8,-113.5,260.0,0.45,2.76,0.03,0.0,0.9996499387285531,5.909331603489518,0.05178236811721937,0.5,0,3,0.0
7.5504094589996384,550,5678.72,-97.3,-1.5,-121.5,0.19,6.83,0.17,0.25,-1.05,0.02,-183.8,-87.1,256.0,0.48,2.06,-0.15,0.0,1.0795369377654476,6.834756762314223,0.027542538301281505,0.5,0,3,0.0
7.561256489999323,551,5678.73,-97.3,-1.4,-120.8,0.74,7.21,-0.3,0.13,-1.09,0.11,-184.5,-63.0,234.0,0.49,1.45,-0.11,0.0,1.1032225523438144,7.25408160968706,0.05020358982205542,0.5,0,3,0.0
7.570423698999548,552,5678.74,-97.1,-1.3,-120.1,1.62,7.0,-0.86,0.02,-1.07,0.15,-185.0,-40.5,236.0,0.5,0.8,-0.18,0.0,1.0806479537758815,7.236297395768087,0.027076411429040048,0.5,0,3,0.0
7.581313855999724,553,5678.75,-97.0,-1.1,-119.4,1.91,6.64,-1.34,-0.08,-1.03,0.13,-185.2,-17.0,233.0,0.51,0.18,-0.08,0.0,1.0412492496996095,7.037989769813537,0.012075846794287415,0.5,0,3,0.0
7.590472471999419,554,5678.76,-96.8,-0.8,-118.8,1.45,6.1,-1.6,-0.17,-0.97,0.12,-185.2,2.4,172.0,0.51,-0.17,-0.15,0.0,0.9920685460188726,6.470896383036897,0.06003141946552393,0.5,0,3,0.0
7.601225243000044,555,5678.77,-96.7,-0.6,-118.2,0.81,5.47,-1.55,-0.23,-0.94,0.11,-185.2,5.8,52.0,0.5,-0.12,-0.07,0.0,0.9739609848448756,5.742778073371806,0.07657620102673057,0.5,0,3,0.0
7.610294357999919,556,5678.78,-96.7,-0.4,-117.7,0.66,4.69,-1.27,-0.23,-0.93,0.12,-185.1,1.3,-18.0,0.5,0.03,0.09,0.0,0.9655050491841045,4.903529341199051,0.08333149395375161,0.5,0,3,0.0
7.621141314999477,557,5678.79,-96.6,-0.2,-117.3,0.86,3.89,-0.95,-0.2,-0.91,0.1,-185.2,-4.4,-40.0,0.51,0.17,-0.1,0.0,0.9370699013414101,4.095631819390019,0.109531308960517,0.5,0,3,0.0
7.630387948999669,558,5678.8,-96.5,-0.1,-117.0,0.7,3.17,-0.55,-0.15,-0.87,0.03,-185.2,-9.6,-62.0,0.51,0.38,-0.08,0.0,0.8833459118601275,3.29262812962533,0.15999019247296364,0.5,0,3,0.0
7.641234711999459,559,5678.81,-96.5,-0.1,-116.7,0.03,2.7,-0.1,-0.11,-0.88,-0.02,-185.4,-23.5,-133.0,0.52,0.86,0.0,0.0,0.8870738413458036,2.7020177645604035,0.15313701772754185,0.5,0,3,0.0
7.650375488999998,560,5678.82,-96.5,-0.1,-116.5,-0.23,2.52,0.26,-0.09,-0.92,-0.05,-185.8,-45.6,-208.0,0.53,1.57,0.2,0.0,0.9257429448826494,2.5437963754986366,0.11217855590688208,0.5,0,3,0.0
7.661183520000122,561,5678.83,-96.5,-0.1,-116.2,0.0,2.47,0.52,-0.08,-0.96,-0.04,-186.4,-72.0,-239.0,0.55,2.26,0.15,0.0,0.964157663455516,2.524143419063188,0.07228856058733513,0.5,0,3,0.0
7.670412927000143,562,5678.84,-96.5,-0.1,-116.0,0.48,2.32,0.66,-0.08,-0.96,-0.03,-187.3,-97.9,-253.0,0.58,2.97,0.15,0.0,0.9637945839233586,2.4593495074917677,0.0711986073171027,0.5,0,3,0.0
7.681293586999345,563,5678.85,-96.4,-0.1,-115.7,0.83,2.16,0.75,-0.06,-0.92,-0.02,-188.5,-120.8,-229.0,0.61,3.55,-0.01,0.0,0.9221713506718803,2.432488437793693,0.11056540375720947,0.5,0,3,0.0
7.70616692800013,565,5678.87,-96.2,-0.3,-115.3,0.92,1.8,0.85,-0.04,-0.87,-0.02,-191.4,-156.1,-153.0,0.69,4.37,0.05,0.0,0.8711486669908874,2.192920427192925,0.15835632568943825,0.5,0,3,0.0
7.71434730799956,566,5678.88,-96.0,-0.4,-115.1,0.77,1.64,0.85,-0.04,-0.86,-0.04,-193.0,-166.0,-102.0,0.74,4.57,-0.04,0.0,0.8618584570566098,2.00124960961895,0.16429360491124168,0.5,0,3,0.0
7.722446249999848,567,5678.89,-95.9,-0.5,-115.0,0.65,1.48,0.77,-0.04,-0.85,-0.05,-194.7,-171.1,-64.0,0.79,4.7,0.22,0.0,0.8524083528450433,1.7904747973652129,0.17026883494035194,0.5,0,3,0.0
7.730365518999861,568,5678.9,-95.9,-0.6,-114.8,0.27,1.32,0.85,-0.05,-0.86,-0.05,-196.4,-172.9,-21.0,0.83,4.68,-0.09,0.0,0.8629020801921848,1.5930473941474559,0.1565796054413463,0.5,0,3,0.0
7.741241029999401,569,5678.91,-95.8,-0.7,-114.7,0.12,1.14,1.01,-0.06,-0.86,-0.06,-198.2,-169.3,27.0,0.88,4.52,-0.16,0.0,0.864175908018732,1.5277761616153067,0.15219966206250313,0.5,0,3,0.0
7.750477924999359,570,5678.92,-95.8,-0.8,-114.6,0.21,0.92,1.13,-0.06,-0.88,-0.07,-199.8,-160.7,73.0,0.92,4.24,0.07,0.0,0.8848163651289459,1.47220922426128,0.1289280208532434,0.5,0,3,0.0
7.7611676030001036,571,5678.93,-95.8,-1.0,-114.5,0.33,0.75,1.17,-0.08,-0.91,-0.09,-201.3,-147.6,122.0,0.96,3.83,-0.08,0.0,0.9179324593890337,1.4283907028540894,0.09389568806129245,0.5,0,3,0.0
7.770391338000081,572,5678.94,-95.7,-1.1,-114.4,0.49,0.67,1.05,-0.08,-0.92,-0.11,-202.7,-131.3,142.0,1.0,3.4,0.02,0.0,0.93,1.3384692749555367,0.08019158450131958,0.5,0,3,0.0
7.781257236999409,573,5678.95,-95.7,-1.2,-114.3,0.77,0.52,0.98,-0.06,-0.91,-0.12,-203.9,-113.4,173.0,1.03,2.87,0.0,0.0,0.9198369420718001,1.3504443713089407,0.08854754958092903,0.5,0,3,0.0
7.790390225999545,574,5678.96,-95.6,-1.4,-114.3,1.03,0.44,0.96,-0.05,-0.9,-0.14,-204.9,-95.7,171.0,1.05,2.41,-0.1,0.0,0.9121951545584969,1.4751610081614819,0.09426555035234763,0.5,0,3,0.0
7.801180986999498,575,5678.97,-95.6,-1.5,-114.2,1.33,0.35,0.83,-0.04,-0.89,-0.17,-205.7,-80.0,156.0,1.07,2.0,-0.01,0.0,0.9069729874698585,1.6063312236273066,0.0974979630921663,0.5,0,3,0.0
7.810391018999326,576,5678.98,-95.5,-1.5,-114.2,1.79,0.31,0.57,-0.05,-0.87,-0.17,-206.4,-64.2,152.0,1.09,1.58,0.0,0.0,0.887862601982987,1.9039695375714392,0.114276181607457,0.5,0,3,0.0
7.82122273099958,577,5678.99,-95.3,-1.6,-114.2,2.29,0.19,0.19,-0.07,-0.83,-0.16,-207.0,-50.6,136.0,1.1,1.24,-0.07,0.0,0.848174510345601,2.305710302705004,0.1508849877799462,0.5,0,3,0.0
7.830389820999699,578,5679.0,-95.3,-1.6,-114.2,2.29,0.19,0.19,-0.07,-0.83,-0.16,-207.2,-44.4,132.0,1.11,1.02,0.07,0.0,0.848174510345601,2.305710302705004,0.14786728802434723,0.5,0,3,0.0
7.841242026000145,579,5679.01,-94.8,-1.5,-114.2,1.92,-0.24,-0.63,-0.14,-0.73,-0.16,-207.8,-32.7,102.0,1.12,0.81,-0.07,0.0,0.7603288762108144,2.0349201458533943,0.23099866371595124,0.5,0,3,0.0
7.850446096999804,580,5679.02,-94.7,-1.5,-114.2,0.65,-0.56,-0.83,-0.15,-0.71,-0.19,-208.0,-27.7,63.0,1.13,0.7,-0.05,0.0,0.750133321483588,1.1937336386313322,0.23637033407431407,0.5,0,3,0.0
7.861140610999428,581,5679.03,-94.7,-1.4,-114.3,-0.63,-0.8,-0.88,-0.13,-0.75,-0.2,-208.3,-29.0,-11.0,1.14,0.86,-0.06,0.0,0.78701969479804,1.3458454591816997,0.19549428154466486,0.5,0,3,0.0
7.8703368679998675,582,5679.04,-94.8,-1.3,-114.4,-1.4,-0.9,-0.87,-0.09,-0.84,-0.2,-208.7,-35.0,-47.0,1.15,1.06,-0.19,0.0,0.8681589716175258,1.8780042598460738,0.11206790463067551,0.5,0,3,0.0
7.881174118999297,583,5679.05,-95.0,-1.2,-114.5,-1.65,-0.88,-0.81,-0.03,-0.9,-0.22,-209.1,-45.3,-96.0,1.16,1.39,-0.24,0.0,0.9269843580125827,2.037891066764855,0.052177667870906164,0.5,0,3,0.0
7.8904347229999985,584,5679.06,-95.1,-1.1,-114.6,-1.49,-0.75,-0.81,0.0,-0.93,-0.22,-209.6,-59.9,-136.0,1.18,1.83,0.04,0.0,0.9556673061269806,1.8543732094699814,0.023024825361378176,0.5,0,3,0.0
7.90119391799999,585,5679.07,-95.3,-1.1,-114.6,-1.31,-0.66,-0.82,0.03,-0.91,-0.22,-210.3,-76.5,-166.0,1.2,2.32,-0.06,0.0,0.9366963221877195,1.6805058762170397,0.04115589311462653,0.5,0,3,0.0
7.910407050999311,586,5679.08,-95.4,-1.0,-114.7,-1.56,-0.49,-0.8,0.03,-0.91,-0.21,-211.2,-96.8,-186.0,1.23,2.86,0.16,0.0,0.9343982020530648,1.8203571078225285,0.042584932984295554,0.5,0,3,0.0
7.921199941999475,587,5679.09,-95.6,-0.9,-114.8,-2.36,-0.22,-0.58,0.05,-0.97,-0.21,-212.3,-116.9,-196.0,1.26,3.42,0.01,0.0,0.9937303457175894,2.4401639289195307,0.016412266466624525,0.5,0,3,0.0
7.930417654999474,588,5679.1,-95.9,-0.9,-114.8,-2.4,0.22,-0.5,0.05,-1.1,-0.18,-213.7,-137.3,-201.0,1.3,3.98,0.16,0.0,1.1157508682497181,2.461381725779242,0.13566413321877813,0.5,0,3,0.0
7.941178680000121,589,5679.11,-96.1,-0.8,-114.7,-1.27,0.49,-0.42,0.04,-1.13,-0.16,-215.2,-156.1,-181.0,1.34,4.43,0.07,0.0,1.1419719786404567,1.4245701105947717,0.1586475387373264,0.5,0,3,0.0
7.950419271999635,590,5679.12,-96.2,-0.7,-114.7,0.23,0.45,-0.35,0.03,-1.1,-0.19,-216.8,-170.9,-150.0,1.39,4.79,0.03,0.0,1.1166915420114905,0.6147357155721473,0.13069976006619288,0.5,0,3,0.0
7.961206078999567,591,5679.13,-96.1,-0.7,-114.6,1.31,0.23,-0.44,0.0,-1.03,-0.18,-218.6,-181.4,-109.0,1.44,5.02,0.06,0.0,1.0456098698845568,1.400928263688045,0.058425726180474036,0.5,0,3,0.0
7.970333792999554,592,5679.14,-96.0,-0.6,-114.7,0.72,-0.3,-0.35,-0.04,-0.9,-0.21,-220.5,-187.0,-65.0,1.49,5.14,-0.11,0.0,0.925040539652182,0.8549268974596599,0.060900731970862765,0.5,0,3,0.0
7.981092796999292,593,5679.15,-96.0,-0.6,-114.7,-0.91,-0.78,0.04,-0.06,-0.89,-0.22,-222.4,-193.4,-73.0,1.54,5.35,-0.02,0.0,0.9187491496594705,1.199208072020865,0.06584827952430283,0.5,0,3,0.0
7.990518128000076,594,5679.16,-96.2,-0.7,-114.8,-2.35,-1.11,0.7,-0.07,-0.93,-0.27,-224.4,-204.0,-106.0,1.6,5.71,0.03,0.0,0.9709273917240157,2.6915794619516626,0.01339663671056257,0.5,0,3,0.0
8.001127540999732,595,5679.17,-96.5,-0.8,-114.9,-2.58,-1.05,1.46,-0.05,-1.06,-0.28,-226.5,-218.3,-135.0,1.66,6.13,0.12,0.0,1.0974971526158963,3.144916533073652,0.11090966169769167,0.5,0,3,0.0
8.010395502999927,596,5679.18,-96.7,-1.0,-115.0,-1.7,-0.85,1.84,-0.05,-1.18,-0.28,-228.8,-235.4,-169.0,1.72,6.65,0.06,0.0,1.2137956994486345,2.645392220446715,0.22266404435982134,0.5,0,3,0.0
8.021362442999816,597,5679.19,-96.9,-1.2,-115.0,-0.85,-0.9,1.97,-0.08,-1.2,-0.21,-231.3,-255.1,-193.0,1.79,7.2,0.12,0.0,1.2208603523745047,2.326671442210954,0.22513412333997773,0.5,0,3,0.0
8.030415854999774,598,5679.2,-97.0,-1.4,-115.1,-1.09,-1.11,2.08,-0.06,-1.2,-0.16,-234.0,-277.6,-212.0,1.87,7.8,0.18,0.0,1.2121056059601407,2.5974217986303265,0.21205178938710145,0.5,0,3,0.0
8.041152246999445,599,5679.21,-97.1,-1.7,-115.2,-1.92,-0.99,2.32,0.02,-1.26,-0.13,-237.0,-298.7,-199.0,1.95,8.33,-1.15,0.0,1.2668464784653268,3.17,0.26145680865444176,0.5,0,3,0.0
8.050408670999786,600,5679.22,-97.3,-1.9,-115.2,-2.43,-0.6,2.66,0.13,-1.36,-0.05,-240.0,-314.1,-167.0,2.04,8.74,0.12,0.0,1.3671137480107498,3.65246492111834,0.35448959663586743,0.5,0,3,0.0
8.061200140999972,601,5679.23,-97.6,-2.2,-115.3,-2.2,-0.4,3.24,0.16,-1.41,0.0,-243.3,-335.1,-217.0,2.13,9.41,-0.06,0.0,1.4190489773083943,3.9366991249014704,0.3982963294148416,0.5,0,3,0.0
8.0703656149999,602,5679.24,-97.7,-2.6,-115.2,-1.2,-0.08,4.0,0.17,-1.41,0.01,-246.8,-356.8,-195.0,2.23,9.9,0.16,0.0,1.4202464574854605,4.176888794306116,0.3915039334000696,0.5,0,3,0.0
8.081121651000103,603,5679.25,-97.8,-3.0,-115.2,0.01,0.12,4.39,0.13,-1.41,0.08,-250.5,-376.0,-223.0,2.33,10.57,0.09,0.0,1.4182383438618489,4.391651170118137,0.3817059033809289,0.5,0,3,0.0
8.090511499000058,604,5679.26,-97.8,-3.4,-115.1,0.42,-0.21,3.95,-0.03,-1.29,0.15,-254.5,-405.6,-267.0,2.44,11.35,0.1,0.0,1.299038105676658,3.9778134697343464,0.25725555189182336,0.5,0,3,0.0
8.101117397000053,605,5679.27,-97.7,-3.8,-115.1,-0.18,-1.04,3.21,-0.23,-1.18,0.19,-258.7,-425.8,-190.0,2.56,11.73,-0.22,0.0,1.2171277665060476,3.379067918820218,0.17183830846678871,0.5,0,3,0.0
8.110339006999311,606,5679.28,-97.8,-4.1,-115.2,-1.04,-2.08,2.5,-0.37,-1.13,0.24,-263.1,-441.5,-166.0,2.68,12.16,0.0,0.0,1.213012778168474,3.4143813495273196,0.1643688537266308,0.5,0,3,0.0
8.121096582999598,607,5679.29,-97.9,-4.3,-115.5,-1.22,-3.26,1.88,-0.44,-1.16,0.31,-267.6,-450.2,-88.0,2.8,12.27,-0.01,0.0,1.2787884891568269,3.9560586446613755,0.22554167342068387,0.5,0,3,0.0
8.129650447000131,608,5679.3,-98.0,-4.5,-115.9,-0.62,-4.44,1.43,-0.44,-1.14,0.32,-272.1,-449.6,14.0,2.92,12.05,-0.06,0.0,1.2631706139710501,4.705624294394953,0.2057253222702089,0.5,0,3,0.0
8.140785820999554,609,5679.31,-98.0,-4.7,-116.3,0.25,-5.36,1.29,-0.35,-1.08,0.27,-276.4,-425.4,215.0,3.04,11.15,-0.11,0.0,1.1669618674146984,5.5187136182266245,0.10732624419958015,0.5,0,3,0.0
8.151482608999686,610,5679.32,-97.8,-4.9,-116.9,0.92,-5.98,1.27,-0.23,-1.03,0.24,-280.5,-395.9,258.0,3.14,10.39,-0.13,0.0,1.0823123393919152,6.1822083433025785,0.022223181853260998,0.5,0,3,0.0
8.160924486000113,611,5679.33,-97.7,-5.1,-117.5,1.19,-6.41,1.28,-0.12,-0.95,0.17,-284.2,-358.9,372.0,3.24,9.19,-0.37,0.0,0.9725224933131367,6.643989765193803,0.08581533094100724,0.5,0,3,0.0
8.174340912999469,612,5679.34,-97.5,-5.4,-118.1,1.23,-6.54,1.27,-0.04,-0.94,0.09,-287.4,-313.1,424.0,3.32,7.96,0.0,0.0,0.9451454914456292,6.774761988439152,0.11092848615234452,0.5,0,3,0.0
8.182407620000049,613,5679.35,-97.3,-5.6,-118.7,1.45,-6.23,1.26,0.02,-0.91,0.0,-290.3,-269.0,435.0,3.39,6.77,-0.17,0.0,0.9102197536858888,6.519432490639044,0.14293713943384312,0.5,0,3,0.0
8.190355334999367,614,5679.36,-97.1,-5.8,-119.3,1.51,-5.6,1.2,0.07,-0.93,-0.02,-292.6,-221.7,470.0,3.45,5.43,-0.32,0.0,0.9328451104015072,5.922845599878491,0.11790554706386014,0.5,0,3,0.0
8.201181407999684,615,5679.37,-96.9,-5.9,-119.8,1.62,-4.84,0.98,0.11,-0.95,-0.04,-294.5,-172.1,490.0,3.5,4.05,-0.24,0.0,0.957183368012629,5.197153066824182,0.09169594366368361,0.5,0,3,0.0
8.21010962299988,616,5679.38,-96.7,-6.1,-120.3,1.45,-4.1,0.68,0.15,-0.96,-0.06,-295.9,-123.2,487.0,3.53,2.76,-0.06,0.0,0.9734988443752771,4.40169285616341,0.07387285795501486,0.5,0,3,0.0
8.22092485199937,617,5679.39,-96.5,-6.2,-120.6,0.86,-3.37,0.26,0.18,-0.97,-0.08,-296.8,-75.1,484.0,3.55,1.44,0.01,0.0,0.9897979591815695,3.487706983105089,0.056422268285748034,0.5,0,3,0.0
8.230348324999795,618,5679.4,-96.5,-6.2,-120.9,0.07,-2.68,-0.17,0.2,-0.97,-0.1,-297.2,-27.7,469.0,3.55,0.19,0.01,0.0,0.9954396013822235,2.6862985686628362,0.049765013563392246,0.5,0,3,0.0
8.241079724999508,619,5679.41,-96.4,-6.2,-121.2,-0.37,-2.1,-0.63,0.18,-0.98,-0.08,-297.2,14.5,401.0,3.55,-0.77,-0.31,0.0,0.9995999199679839,2.2234657631724395,0.044692601078079264,0.5,0,3,0.0
8.250294722000035,620,5679.42,-96.5,-6.1,-121.4,-0.58,-1.65,-0.94,0.14,-0.93,-0.07,-296.8,43.6,312.0,3.54,-1.48,-0.04,0.0,0.9430800602281866,1.985572965166478,0.09918821160151903,0.5,0,3,0.0
8.26108012199984,621,5679.43,-96.5,-6.0,-121.5,-0.57,-1.42,-1.03,0.09,-0.88,-0.05,-296.2,69.4,277.0,3.52,-2.21,-0.29,0.0,0.8860022573334675,1.8445053537466352,0.15314069420631327,0.5,0,3,0.0
8.27024708799945,622,5679.44,-96.6,-6.0,-121.7,-0.51,-1.29,-0.96,0.04,-0.86,-0.05,-295.3,95.8,271.0,3.49,-2.92,-0.14,0.0,0.8623804264940154,1.6869499103411458,0.17322727454484999,0.5,0,3,0.0
8.281162315000074,623,5679.45,-96.6,-5.9,-121.8,-0.35,-1.22,-0.86,0.01,-0.87,-0.06,-294.2,121.9,263.0,3.45,-3.64,-0.16,0.0,0.8721238444166058,1.5331340450201998,0.1602141794898143,0.5,0,3,0.0
8.29037056299967,624,5679.46,-96.6,-5.8,-121.9,-0.14,-1.16,-0.73,0.0,-0.87,-0.07,-292.8,147.8,260.0,3.41,-4.33,-0.14,0.0,0.8728115489611719,1.377715500384604,0.15633594544634333,0.5,0,3,0.0
8.301172179999412,625,5679.47,-96.6,-5.7,-122.0,0.05,-1.14,-0.58,0.0,-0.89,-0.08,-291.1,174.6,262.0,3.36,-5.06,0.0,0.0,0.8935882720806042,1.2800390619039717,0.1328480378803728,0.5,0,3,0.0
8.310219281999707,626,5679.48,-96.5,-5.6,-122.2,0.22,-1.12,-0.54,0.02,-0.91,-0.09,-289.2,198.4,246.0,3.31,-5.69,-0.24,0.0,0.91465840618233,1.2626955294131679,0.1095423457030742,0.5,0,3,0.0
8.320995446999405,627,5679.49,-96.5,-5.6,-122.3,0.42,-1.05,-0.51,0.04,-0.92,-0.09,-287.1,223.2,249.0,3.25,-6.37,0.0,0.0,0.9252567211320327,1.2405643876881198,0.09696515013830409,0.5,0,3,0.0
8.330207385999529,628,5679.5,-96.4,-5.5,-122.4,0.52,-0.94,-0.52,0.06,-0.93,-0.11,-284.7,249.3,260.0,3.18,-7.1,-0.12,0.0,0.9384028985462481,1.1934822998268553,0.08214259326960682,0.5,0,3,0.0
8.341083491000063,629,5679.51,-96.4,-5.5,-122.5,0.67,-0.77,-0.54,0.08,-0.92,-0.12,-282.0,275.7,261.0,3.1,-7.82,0.11,0.0,0.9312357381458253,1.1547294055318762,0.08752355859662908,0.5,0,3,0.0
8.350363023999307,630,5679.52,-96.3,-5.4,-122.6,0.79,-0.58,-0.55,0.1,-0.9,-0.12,-279.1,298.6,228.0,3.02,-8.37,-0.26,0.0,0.913454979733539,1.123832727766904,0.10319823066873712,0.5,0,3,0.0
8.361016642999857,631,5679.53,-96.2,-5.4,-122.6,0.77,-0.36,-0.51,0.11,-0.89,-0.14,-275.9,321.4,250.0,2.93,-9.1,-0.05,0.0,0.9076342875850383,0.9912618221237011,0.10683854436089302,0.5,0,3,0.0
8.370292251000137,632,5679.54,-96.1,-5.3,-122.6,0.65,-0.15,-0.48,0.11,-0.87,-0.15,-272.5,353.1,293.0,2.84,-9.96,-0.25,0.0,0.8896628574915332,0.8218272324521743,0.12231377496531015,0.5,0,3,0.0
