host_time_s,seq,device_time_s,roll,pitch,yaw,gyro_x,gyro_y,gyro_z,accel_x,accel_y,accel_z,belt_length,belt_velocity,belt_acceleration,motor_pos,motor_vel,motor_iq_meas,motor_iq_set,acc_mag,gyro_mag,gyro_corrected,gyro_side_score,gyro_side_separation,step_period_s,gait_cycle_s,cadence_spm,gait_speed_ratio,assist_pulse_s,acc_residual,threshold,gyro_threshold,belt_threshold,belt_ok,calibrated,imu_side,imu_heel_strike,heel_strike,hs_count,left_hs_count,right_hs_count,torque_cmd_nm
0.008430759000020771,3,1083.31,91.0,1.3,-103.6,-0.72,-0.34,0.02,-0.01,0.97,-0.05,-117.3,135.8,-313.0,-1.34,-3.61,0.01,0.0,0.9713392816107047,0.7964923100695951,0.0,0.0,2.0,0.6,1.2,100.0,1.0,0.18,0.0,0.2,1.0,-160.0,0,0,calibrating,0,0,0,0,0,0.0
0.020202517000143416,4,1083.32,91.0,1.3,-103.6,-0.61,-0.5,0.03,0.0,0.98,-0.06,-116.0,132.2,-121.0,-1.38,-3.58,-0.01,0.0,0.9818350166906862,0.7893034904268447,0.0,0.0,2.0,0.6,1.2,100.0,1.0,0.18,0.010285820378381882,0.2,1.0,-160.0,0,0,calibrating,0,0,0,0,0,0.0
0.0285126510000282,5,1083.33,90.9,1.3,-103.5,-0.66,-0.66,0.06,0.0,0.97,-0.05,-114.7,131.5,-45.0,-1.42,-3.57,0.01,0.0,0.9712878049270462,0.9353074360871938,0.0,0.0,2.0,0.6,1.2,100.0,1.0,0.18,0.0002561635575528687,0.2,1.0,-160.0,0,0,calibrating,0,0,0,0,0,0.0
0.04018551700005446,6,1083.34,90.9,1.2,-103.4,-0.71,-0.84,0.09,-0.01,0.97,-0.06,-113.3,133.7,7.0,-1.45,-3.68,-0.1,0.0,0.9719053451854249,1.1035397591387452,0.0,0.0,2.0,0.6,1.2,100.0,1.0,0.18,0.0003541491668093144,0.2,1.0,-160.0,0,0,calibrating,0,0,0,0,0,0.0
0.04854509599999801,7,1083.35,90.8,1.2,-103.3,-0.76,-1.01,0.09,-0.01,0.97,-0.06,-112.0,140.1,59.0,-1.49,-3.93,0.0,0.0,0.9719053451854249,1.2672016414130785,0.0,0.0,2.0,0.6,1.2,100.0,1.0,0.18,0.00034706618347313256,0.2,1.0,-160.0,0,0,calibrating,0,0,0,0,0,0.0
0.06025158600004943,8,1083.36,90.8,1.2,-103.2,-0.75,-1.21,0.05,-0.01,0.95,-0.07,-110.5,151.1,102.0,-1.53,-4.28,0.08,0.0,0.9526279441628825,1.4244648117802,0.0,0.0,2.0,0.6,1.2,100.0,1.0,0.18,0.018551728142287893,0.2,1.0,-160.0,0,0,calibrating,0,0,0,0,0,0.0
0.0685800220001056,9,1083.37,90.8,1.2,-103.1,-0.65,-1.34,0.0,0.0,0.95,-0.08,-108.9,164.9,131.0,-1.58,-4.67,0.19,0.0,0.953362470417207,1.4893287078412207,0.0,0.0,2.0,0.6,1.2,100.0,1.0,0.18,0.017460857850204126,0.2,1.0,-160.0,0,0,calibrating,0,0,0,0,0,0.0
0.08032620200015117,10,1083.38,90.8,1.2,-103.0,-0.58,-1.43,-0.01,0.0,0.96,-0.09,-107.1,179.2,128.0,-1.63,-5.02,0.02,0.0,0.9642095207992918,1.5431785379534022,0.0,0.0,2.0,0.6,1.2,100.0,1.0,0.18,0.00648153131875695,0.2,1.0,-160.0,0,0,calibrating,0,0,0,0,0,0.0
0.08833815799994227,11,1083.39,90.8,1.2,-102.8,-0.55,-1.46,0.0,0.0,0.96,-0.1,-105.3,190.3,114.0,-1.68,-5.3,-0.02,0.0,0.9651942809610923,1.5601602481796542,0.0,0.0,2.0,0.6,1.2,100.0,1.0,0.18,0.0053868357338173745,0.2,1.0,-160.0,0,0,calibrating,0,0,0,0,0,0.0
0.10039641499997742,12,1083.4,90.8,1.2,-102.7,-0.52,-1.44,0.05,0.0,0.97,-0.12,-103.3,199.3,95.0,-1.73,-5.53,-0.05,0.0,0.9773944955850733,1.5318289721767244,0.0,0.0,2.0,0.6,1.2,100.0,1.0,0.18,0.006677111312360373,0.2,1.0,-160.0,0,0,calibrating,0,0,0,0,0,0.0
0.10827793900011784,13,1083.41,90.8,1.2,-102.5,-0.49,-1.41,0.16,0.0,0.97,-0.12,-101.2,205.6,62.0,-1.79,-5.63,0.02,0.0,0.9773944955850733,1.501266132302997,0.0,0.0,2.0,0.6,1.2,100.0,1.0,0.18,0.006543569086113199,0.2,1.0,-160.0,0,0,calibrating,0,0,0,0,0,0.0
0.1202225490001183,14,1083.42,90.8,1.2,-102.4,-0.42,-1.4,0.31,0.0,0.99,-0.13,-99.2,208.5,28.0,-1.85,-5.66,0.07,0.0,0.9984988733093293,1.4941552797483932,0.0,0.0,2.0,0.6,1.2,100.0,1.0,0.18,0.027094987874161758,0.2,1.0,-160.0,0,0,calibrating,0,0,0,0,0,0.0
0.12840453300009358,15,1083.43,90.8,1.2,-102.2,-0.43,-1.42,0.5,0.0,1.0,-0.14,-97.1,204.3,-43.0,-1.9,-5.41,0.14,0.0,1.009752444909147,1.5656627989449068,0.0,0.0,2.0,0.6,1.2,100.0,1.0,0.18,0.03758158828449998,0.2,1.0,-160.0,0,0,calibrating,0,0,0,0,0,0.0
0.14023739000003843,16,1083.44,90.8,1.3,-102.1,-0.52,-1.43,0.66,0.0,1.01,-0.14,-95.3,192.1,-111.0,-1.95,-4.98,0.01,0.0,1.0196568050084303,1.6585837331892532,0.0,0.0,2.0,0.6,1.2,100.0,1.0,0.18,0.046536229416107466,0.2,1.0,-160.0,0,0,calibrating,0,0,0,0,0,0.0
0.14838557200005198,17,1083.45,90.7,1.3,-101.9,-0.68,-1.46,0.79,0.0,1.01,-0.14,-93.4,172.7,-164.0,-2.0,-4.45,-0.03,0.0,1.0196568050084303,1.7939063520708096,0.0,0.0,2.0,0.6,1.2,100.0,1.0,0.18,0.04560550482778536,0.2,1.0,-160.0,0,0,calibrating,0,0,0,0,0,0.0
0.16015736500003186,18,1083.46,90.7,1.4,-101.8,-0.78,-1.53,0.9,-0.01,1.0,-0.14,-91.8,154.7,-168.0,-2.04,-4.0,0.12,0.0,1.00980196078241,1.938891435846783,0.0,0.0,2.0,0.6,1.2,100.0,1.0,0.18,0.03503564738972986,0.2,1.0,-160.0,0,0,calibrating,0,0,0,0,0,0.0
0.1680423889999929,19,1083.47,90.6,1.5,-101.6,-0.81,-1.62,1.0,-0.01,1.0,-0.13,-90.3,141.3,-133.0,-2.08,-3.7,0.28,0.0,1.0084641788382966,2.0689369250897913,0.0,0.0,2.0,0.6,1.2,100.0,1.0,0.18,0.033023908136704194,0.2,1.0,-160.0,0,0,calibrating,0,0,0,0,0,0.0
0.18034997200015823,20,1083.48,90.5,1.6,-101.5,-0.83,-1.74,1.08,-0.01,0.99,-0.12,-89.0,130.8,-109.0,-2.11,-3.44,-0.19,0.0,0.9972963451251589,2.2097284901091356,0.0,0.0,2.0,0.6,1.2,100.0,1.0,0.18,0.021418952935095104,0.2,1.0,-160.0,0,0,calibrating,0,0,0,0,0,0.0
0.18834527500007425,21,1083.49,90.4,1.7,-101.3,-0.85,-1.88,1.16,-0.02,0.99,-0.11,-87.7,120.4,-112.0,-2.15,-3.12,0.1,0.0,0.9962931295557548,2.366960075708925,0.0,0.0,2.0,0.6,1.2,100.0,1.0,0.18,0.02000742261837718,0.2,1.0,-160.0,0,0,calibrating,0,0,0,0,0,0.0
0.20023766799999976,22,1083.5,90.4,1.8,-101.1,-0.89,-2.03,1.25,-0.03,0.97,-0.1,-86.6,106.7,-139.0,-2.17,-2.7,0.19,0.0,0.975602378020882,2.54470037528979,0.0,0.0,2.0,0.6,1.2,100.0,1.0,0.18,0.0006696623381656774,0.2,1.0,-160.0,0,0,calibrating,0,0,0,0,0,0.0
0.20838588100014022,23,1083.51,90.3,2.0,-100.9,-0.88,-2.23,1.32,-0.04,0.95,-0.1,-85.7,88.1,-183.0,-2.2,-2.12,0.05,0.0,0.9560857702110204,2.736731627324828,0.0,0.0,2.0,0.6,1.2,100.0,1.0,0.18,0.0197825447450668,0.2,1.0,-160.0,0,0,calibrating,0,0,0,0,0,0.0
0.2202119670000684,24,1083.52,90.2,2.1,-100.6,-0.78,-2.5,1.35,-0.04,0.94,-0.1,-84.9,66.9,-201.0,-2.21,-1.55,0.17,0.0,0.9461500938011896,2.9463367085246723,0.0,0.0,2.0,0.6,1.2,100.0,1.0,0.18,0.029123856731799624,0.2,1.0,-160.0,0,0,calibrating,0,0,0,0,0,0.0
0.22842232800007878,25,1083.53,90.1,2.2,-100.4,-0.64,-2.74,1.38,-0.02,0.94,-0.11,-84.4,42.8,-237.0,-2.23,-0.85,0.0,0.0,0.9466255859631092,3.1339432030590473,0.0,0.0,2.0,0.6,1.2,100.0,1.0,0.18,0.028075397278482517,0.2,1.0,-160.0,0,0,calibrating,0,0,0,0,0,0.0
0.24016458799997054,26,1083.54,90.1,2.4,-100.1,-0.58,-2.95,1.4,0.0,0.94,-0.12,-84.2,19.0,-238.0,-2.23,-0.21,0.12,0.0,0.9476286192385707,3.3164589549698937,0.0,0.0,2.0,0.6,1.2,100.0,1.0,0.18,0.026530916722960596,0.2,1.0,-160.0,0,0,calibrating,0,0,0,0,0,0.0
0.24827101599998969,27,1083.55,90.0,2.5,-99.8,-0.6,-3.09,1.43,0.0,0.93,-0.14,-84.1,-1.2,-181.0,-2.23,0.16,-0.04,0.0,0.9404786015641186,3.457311093899419,0.0,0.0,2.0,0.6,1.2,100.0,1.0,0.18,0.03300731570946447,0.2,1.0,-160.0,0,0,calibrating,0,0,0,0,0,0.0
0.2601672170001166,28,1083.56,90.0,2.7,-99.4,-0.56,-3.18,1.43,0.0,0.93,-0.15,-84.2,-6.7,-69.0,-2.23,0.17,0.25,0.0,0.942019108086455,3.531416146533852,0.0,0.0,2.0,0.6,1.2,100.0,1.0,0.18,0.030837473003385463,0.2,1.0,-160.0,0,0,calibrating,0,0,0,0,0,0.0
0.2681374390001565,29,1083.57,90.0,2.8,-99.1,-0.51,-3.26,1.44,-0.01,0.91,-0.15,-84.3,-4.0,-1.0,-2.23,0.06,-0.04,0.0,0.92233399590387,3.600180551027962,0.0,0.0,2.0,0.6,1.2,100.0,1.0,0.18,0.04951213348225103,0.2,1.0,-160.0,0,0,calibrating,0,0,0,0,0,0.0
0.2798644280001099,30,1083.58,89.9,3.0,-98.8,-0.39,-3.35,1.45,-0.02,0.9,-0.16,-84.3,-2.6,-1.0,-2.23,0.07,0.75,0.0,0.9143303560529968,3.6711169962288044,0.0,0.0,2.0,0.6,1.2,100.0,1.0,0.18,0.05636545786646174,0.2,1.0,-160.0,0,0,calibrating,0,0,0,0,0,0.0
0.29162849800013646,31,1083.59,89.9,3.1,-98.5,-0.23,-3.47,1.45,-0.03,0.89,-0.16,-84.3,-4.8,-20.0,-2.22,0.18,-0.04,0.0,0.9047651629014017,3.7677977652735026,0.0,0.0,2.0,0.6,1.2,100.0,1.0,0.18,0.06461203799769566,0.2,1.0,-160.0,0,0,calibrating,0,0,0,0,0,0.0
0.30368440300003385,32,1083.6,89.9,3.2,-98.1,0.07,-3.61,1.41,-0.04,0.89,-0.16,-84.4,-13.1,-91.0,-2.22,0.54,0.04,0.0,0.90515192095029,3.8762223878410276,0.0,0.0,2.0,0.6,1.2,100.0,1.0,0.18,0.06294077434983125,0.2,1.0,-160.0,0,0,calibrating,0,0,0,0,0,0.0
0.31250932800003284,33,1083.61,90.0,3.4,-97.7,0.52,-3.7,1.3,-0.03,0.94,-0.17,-84.7,-31.9,-167.0,-2.21,1.12,-0.04,0.0,0.9557196241576292,3.956058644661376,0.0,0.0,2.0,0.6,1.2,100.0,1.0,0.18,0.01212560971964216,0.2,1.0,-160.0,0,0,calibrating,0,0,0,0,0,0.0
0.32434904100000495,34,1083.62,90.1,3.5,-97.4,0.8,-3.65,1.11,0.0,0.97,-0.18,-85.1,-50.2,-167.0,-2.2,1.56,0.11,0.0,0.9865596788841514,3.8980251410169227,0.0,0.0,2.0,0.6,1.2,100.0,1.0,0.18,0.018340156106742445,0.2,1.0,-160.0,0,0,calibrating,0,0,0,0,0,0.0
0.33233786300002066,35,1083.63,90.2,3.6,-97.0,1.05,-3.59,0.86,0.02,1.01,-0.18,-85.8,-69.4,-198.0,-2.18,2.16,0.07,0.0,1.0261091559868276,3.837994267843557,0.0,0.0,2.0,0.6,1.2,100.0,1.0,0.18,0.05673184054523028,0.2,1.0,-160.0,0,0,calibrating,0,0,0,0,0,0.0
0.3403223269999671,36,1083.64,90.3,3.7,-96.6,0.9,-3.42,0.66,0.06,1.03,-0.17,-86.6,-92.0,-213.0,-2.15,2.76,0.22,0.0,1.0456576877735848,3.597499131341104,0.0,0.0,2.0,0.6,1.2,100.0,1.0,0.18,0.07475476488534771,0.2,1.0,-160.0,0,0,calibrating,0,0,0,0,0,0.0
0.34860511800002314,37,1083.65,90.4,3.7,-96.3,0.74,-3.23,0.47,0.1,1.03,-0.17,-87.7,-112.8,-195.0,-2.12,3.27,0.22,0.0,1.0487134975769121,3.346849264606938,0.0,0.0,2.0,0.6,1.2,100.0,1.0,0.18,0.07625436319490153,0.2,1.0,-160.0,0,0,calibrating,0,0,0,0,0,0.0
0.3602609350000421,38,1083.66,90.5,3.8,-96.0,0.96,-2.96,0.28,0.17,1.02,-0.13,-88.9,-124.0,-104.0,-2.08,3.4,0.04,0.0,1.0422091920531116,3.1243559336285616,0.0,0.0,2.0,0.6,1.2,100.0,1.0,0.18,0.06835505651767915,0.2,1.0,-160.0,0,0,calibrating,0,0,0,0,0,0.0
0.36843841500012786,39,1083.67,90.7,3.8,-95.7,1.64,-2.63,-0.01,0.24,1.02,-0.06,-90.1,-123.2,-6.0,-2.05,3.26,0.04,0.0,1.049571341072154,3.0994515643900615,0.0,0.0,2.0,0.6,1.2,100.0,1.0,0.18,0.07420286142598698,0.2,1.0,-160.0,0,0,calibrating,0,0,0,0,0,0.0
0.38031965000004675,40,1083.68,90.9,3.7,-95.5,2.5,-2.11,-0.61,0.28,1.04,-0.04,-91.3,-114.2,70.0,-2.02,2.94,-0.13,0.0,1.0777754868245986,3.3277920608114924,0.0,0.0,2.0,0.6,1.2,100.0,1.0,0.18,0.10035886703486285,0.2,1.0,-160.0,0,0,calibrating,0,0,0,0,0,0.0
0.38824824000016633,41,1083.69,91.2,3.6,-95.3,3.25,-1.38,-1.44,0.32,1.11,-0.03,-92.4,-101.8,101.0,-1.99,2.62,-0.01,0.0,1.1555950847939775,3.8132007552710885,0.0,0.0,2.0,0.6,1.2,100.0,1.0,0.18,0.174614895704157,0.2,1.0,-160.0,0,0,calibrating,0,0,0,0,0,0.0
0.4002790829999867,42,1083.7,91.6,3.4,-95.2,3.83,-0.49,-2.28,0.35,1.23,-0.03,-93.3,-89.8,108.0,-1.97,2.32,-0.04,0.0,1.2791794244749248,4.484127562859915,0.0,0.0,2.0,0.6,1.2,100.0,1.0,0.18,0.2922352506774022,0.2,1.0,-160.0,0,0,calibrating,0,0,0,0,0,0.0
0.4083327570001529,43,1083.71,92.0,3.2,-95.2,3.62,0.22,-2.77,0.29,1.34,-0.04,-94.1,-84.3,44.0,-1.95,2.31,0.05,0.0,1.3716048993788263,4.563518379496241,0.0,0.0,2.0,0.6,1.2,100.0,1.0,0.18,0.37696751106967763,0.2,1.0,-160.0,0,0,calibrating,0,0,0,0,0,0.0
0.4202565160001086,44,1083.72,92.3,2.9,-95.3,2.51,0.52,-2.77,0.13,1.36,-0.06,-95.0,-88.2,-29.0,-1.92,2.51,0.0,0.0,1.3675159962501353,3.774042925034107,0.0,0.0,2.0,0.6,1.2,100.0,1.0,0.18,0.3654210357821668,0.2,1.0,-160.0,0,0,calibrating,0,0,0,0,0,0.0
0.42843112200012,45,1083.73,92.4,2.7,-95.4,1.26,0.57,-2.22,-0.05,1.34,-0.01,-96.0,-98.8,-91.0,-1.9,2.86,0.09,0.0,1.3409697983176208,2.615511422265252,0.0,0.0,2.0,0.6,1.2,100.0,1.0,0.18,0.3320973410926591,0.2,1.0,-160.0,0,0,calibrating,0,0,0,0,0,0.0
0.4403160020001451,46,1083.74,92.5,2.5,-95.4,0.52,0.2,-1.4,-0.22,1.25,0.07,-97.1,-116.4,-157.0,-1.86,3.39,0.21,0.0,1.2711412195346352,1.5067846561469889,0.0,0.0,2.0,0.6,1.2,100.0,1.0,0.18,0.25702338706348016,0.2,1.0,-160.0,0,0,calibrating,0,0,0,0,0,0.0
0.4482779950001259,47,1083.75,92.6,2.4,-95.4,0.58,-0.61,-0.55,-0.35,1.17,0.16,-98.4,-136.6,-186.0,-1.82,3.95,0.11,0.0,1.231665539016173,1.0054849576199536,0.0,0.0,2.0,0.6,1.2,100.0,1.0,0.18,0.2131967524141174,0.2,1.0,-160.0,0,0,calibrating,0,0,0,0,0,0.0
0.4602640020000308,48,1083.76,92.7,2.4,-95.3,1.11,-1.68,0.15,-0.38,1.12,0.23,-99.9,-153.9,-159.0,-1.78,4.34,0.2,0.0,1.2048651376813921,2.0191582404556607,0.0,0.0,2.0,0.6,1.2,100.0,1.0,0.18,0.18266842405775008,0.2,1.0,-160.0,0,0,calibrating,0,0,0,0,0,0.0
0.46813317200007987,49,1083.77,92.8,2.4,-95.0,1.34,-2.83,0.73,-0.36,1.09,0.27,-101.5,-162.0,-86.0,-1.74,4.44,-0.03,0.0,1.1792370414806346,3.2151827319765203,0.0,0.0,2.0,0.6,1.2,100.0,1.0,0.18,0.15389952129985263,0.2,1.0,-160.0,0,0,calibrating,0,0,0,0,0,0.0
0.48027939899998273,50,1083.78,92.9,2.5,-94.7,1.27,-3.98,1.05,-0.29,1.06,0.27,-103.1,-163.5,-31.0,-1.69,4.44,0.04,0.0,1.1316359838746735,4.30764436786511,0.0,0.0,2.0,0.6,1.2,100.0,1.0,0.18,0.10417249442001375,0.2,1.0,-160.0,0,0,calibrating,0,0,0,0,0,0.0
0.4881836080000994,51,1083.79,93.1,2.6,-94.2,0.77,-4.96,1.24,-0.2,1.03,0.24,-104.7,-161.0,16.0,-1.65,4.31,-0.03,0.0,1.0763363786474933,5.170309468494125,0.0,0.0,2.0,0.6,1.2,100.0,1.0,0.18,0.047895431408976785,0.2,1.0,-160.0,0,0,calibrating,0,0,0,0,0,0.0
0.5003296180000234,52,1083.8,93.1,2.7,-93.7,0.24,-5.7,1.24,-0.09,0.97,0.23,-106.3,-152.0,82.0,-1.61,3.97,-0.26,0.0,1.000949549178179,5.838253163404273,0.0,0.0,2.0,0.6,1.2,100.0,1.0,0.18,0.026941570099130452,0.2,1.0,-160.0,0,0,calibrating,0,0,0,0,0,0.0
0.5081900950001454,53,1083.81,93.2,2.8,-93.1,-0.21,-6.18,1.14,0.02,0.91,0.19,-107.7,-136.6,143.0,-1.57,3.48,-0.03,0.0,0.9298386956886662,6.287773850895085,0.0,0.0,2.0,0.6,1.2,100.0,1.0,0.18,0.09609137511687038,0.2,1.0,-160.0,0,0,calibrating,0,0,0,0,0,0.0
0.520255514000155,54,1083.82,93.2,2.8,-92.4,-0.58,-6.35,0.97,0.13,0.85,0.15,-108.9,-117.6,184.0,-1.54,2.92,-0.13,0.0,0.8728688332160794,6.449790694278381,0.0,0.0,2.0,0.6,1.2,100.0,1.0,0.18,0.15000001283766795,0.2,1.0,-160.0,0,0,calibrating,0,0,0,0,0,0.0
0.5284297570001399,55,1083.83,93.1,2.9,-91.8,-0.77,-6.14,0.71,0.23,0.79,0.1,-110.0,-94.0,229.0,-1.52,2.23,0.03,0.0,0.8288546314040841,6.228691676427723,0.0,0.0,2.0,0.6,1.2,100.0,1.0,0.18,0.19013393035667003,0.2,1.0,-160.0,0,0,calibrating,0,0,0,0,0,0.0
0.5400951250001071,56,1083.84,93.1,2.9,-91.2,-0.62,-5.73,0.4,0.29,0.76,0.05,-110.7,-68.0,248.0,-1.5,1.53,-0.17,0.0,0.8149846624323674,5.777309062184574,0.0,0.0,2.0,0.6,1.2,100.0,1.0,0.18,0.19992382134181885,0.2,1.0,-160.0,0,0,calibrating,0,0,0,0,0,0.0
0.5483828750000157,57,1083.85,93.1,2.9,-90.7,-0.38,-5.08,0.02,0.33,0.75,0.02,-111.2,-41.7,258.0,-1.49,0.8,-0.22,0.0,0.8196340646898468,5.094232032406848,0.0,0.0,2.0,0.6,1.2,100.0,1.0,0.18,0.19136893070265293,0.2,1.0,-160.0,0,0,calibrating,0,0,0,0,0,0.0
0.5602502080000704,58,1083.86,93.0,2.9,-90.2,-0.24,-4.32,-0.34,0.34,0.77,-0.02,-111.4,-13.6,272.0,-1.49,0.04,-0.02,0.0,0.8419619943916709,4.340000000000001,0.0,0.0,2.0,0.6,1.2,100.0,1.0,0.18,0.16566018098081237,0.2,1.0,-160.0,0,0,calibrating,0,0,0,0,0,0.0
0.5683869990000403,59,1083.87,93.0,2.8,-89.8,-0.25,-3.45,-0.63,0.32,0.79,-0.05,-111.4,6.9,184.0,-1.49,-0.3,0.0,0.0,0.8538149682454624,3.5159493739244883,0.0,0.0,2.0,0.6,1.2,100.0,1.0,0.18,0.15073106298448036,0.2,1.0,-160.0,0,0,calibrating,0,0,0,0,0,0.0
0.5803510000000642,60,1083.88,93.0,2.7,-89.5,-0.16,-2.59,-0.8,0.28,0.83,-0.05,-111.3,14.6,101.0,-1.49,-0.45,-0.01,0.0,0.8773824707617539,2.71545576285087,0.0,0.0,2.0,0.6,1.2,100.0,1.0,0.18,0.12462028925882507,0.2,1.0,-160.0,0,0,calibrating,0,0,0,0,0,0.0
0.5883179500001461,61,1083.89,93.0,2.6,-89.3,0.09,-1.88,-0.8,0.24,0.88,-0.03,-111.1,13.9,8.0,-1.5,-0.32,0.06,0.0,0.912633551870629,2.045116133621756,0.0,0.0,2.0,0.6,1.2,100.0,1.0,0.18,0.08758182398695102,0.2,1.0,-160.0,0,0,calibrating,0,0,0,0,0,0.0
0.6003257219999796,62,1083.9,93.1,2.5,-89.2,0.41,-1.32,-0.64,0.2,0.93,-0.03,-111.0,6.7,-63.0,-1.5,-0.02,0.06,0.0,0.9517352573063583,1.5231874474272693,0.0,0.0,2.0,0.6,1.2,100.0,1.0,0.18,0.047510516180197304,0.2,1.0,-160.0,0,0,calibrating,0,0,0,0,0,0.0
0.6081310639999629,63,1083.91,93.1,2.5,-89.1,0.72,-0.85,-0.41,0.17,0.99,-0.04,-111.0,-2.3,-50.0,-1.5,0.06,0.08,0.0,1.0052860289489753,1.1870130580579137,0.0,0.0,2.0,0.6,1.2,100.0,1.0,0.18,0.005919450353171318,0.2,1.0,-160.0,0,0,calibrating,0,0,0,0,0,0.0
0.620319623000114,64,1083.92,93.2,2.5,-89.0,0.84,-0.44,-0.13,0.14,1.05,-0.04,-111.1,-1.0,-7.0,-1.5,0.01,0.02,0.0,1.0600471687618434,0.9571311299921239,0.0,0.0,2.0,0.6,1.2,100.0,1.0,0.18,0.05946697836271864,0.2,1.0,-160.0,0,0,calibrating,0,0,0,0,0,0.0
0.6283932769999865,65,1083.93,93.3,2.5,-89.0,0.86,-0.18,0.16,0.11,1.11,-0.02,-111.1,0.2,-1.0,-1.5,0.01,0.19,0.0,1.1156164215356459,0.8930845424706442,0.0,0.0,2.0,0.6,1.2,100.0,1.0,0.18,0.11273550651379072,0.2,1.0,-160.0,0,0,calibrating,0,0,0,0,0,0.0
0.6402945550000823,66,1083.94,93.3,2.6,-89.0,0.8,-0.08,0.46,0.09,1.13,0.0,-111.1,-1.6,-19.0,-1.5,0.09,-0.06,0.0,1.1335784048754634,0.9262828941527529,0.0,0.0,2.0,0.6,1.2,100.0,1.0,0.18,0.1280835400565361,0.2,1.0,-160.0,0,0,calibrating,0,0,0,0,0,0.0
0.6483933910001269,67,1083.95,93.4,2.7,-88.9,0.6,-0.13,0.67,0.08,1.12,0.01,-111.1,-4.0,-18.0,-1.5,0.13,-0.02,0.0,1.122898036332774,0.9087353850269065,0.0,0.0,2.0,0.6,1.2,100.0,1.0,0.18,0.11505510808356978,0.2,1.0,-160.0,0,0,calibrating,0,0,0,0,0,0.0
0.6603110460000607,68,1083.96,93.4,2.8,-88.9,0.4,-0.26,0.76,0.07,1.1,0.01,-111.2,-7.3,-32.0,-1.49,0.24,0.09,0.0,1.1022703842524302,0.8973293709669823,0.0,0.0,2.0,0.6,1.2,100.0,1.0,0.18,0.09253890688316146,0.2,1.0,-160.0,0,0,calibrating,0,0,0,0,0,0.0
0.6683225550000316,69,1083.97,93.4,2.9,-88.9,0.29,-0.41,0.77,0.08,1.08,0.01,-111.3,-11.8,-35.0,-1.49,0.35,0.0,0.0,1.0830050784737808,0.9192932067626737,0.0,0.0,2.0,0.6,1.2,100.0,1.0,0.18,0.07180812908242196,0.2,1.0,-160.0,0,0,calibrating,0,0,0,0,0,0.0
0.6802523820001625,70,1083.98,93.4,2.9,-88.8,0.25,-0.56,0.75,0.09,1.06,0.0,-111.4,-14.0,-37.0,-1.49,0.45,0.05,0.0,1.0638138934982944,0.9688137075826292,0.0,0.0,2.0,0.6,1.2,100.0,1.0,0.18,0.05156460522479689,0.2,1.0,-160.0,0,0,calibrating,0,0,0,0,0,0.0
0.6884399360001225,71,1083.99,93.4,3.0,-88.8,0.25,-0.7,0.72,0.1,1.06,0.0,-111.6,-19.8,-51.0,-1.48,0.62,0.19,0.0,1.0647065323364933,1.034842983258813,0.0,0.0,2.0,0.6,1.2,100.0,1.0,0.18,0.051408099181735833,0.2,1.0,-160.0,0,0,calibrating,0,0,0,0,0,0.0
0.7003480700000182,72,1084.0,93.4,3.1,-88.7,0.17,-0.76,0.73,0.12,1.07,-0.02,-111.7,-24.0,-75.0,-1.47,0.83,-0.13,0.0,1.0768936809174803,1.0674268124794317,0.0,0.0,2.0,0.6,1.2,100.0,1.0,0.18,0.06232334280746832,0.2,1.0,-160.0,0,0,calibrating,0,0,0,0,0,0.0
0.7120272730001034,73,1084.01,93.4,3.2,-88.6,0.0,-0.76,0.76,0.13,1.06,-0.04,-112.2,-35.3,-95.0,-1.46,1.09,-0.06,0.0,1.0686907878334126,1.0748023074035522,0.0,0.0,2.0,0.6,1.2,100.0,1.0,0.18,0.05303804072893259,0.2,1.0,-160.0,0,0,calibrating,0,0,0,0,0,0.0
0.7203405230000044,74,1084.02,93.4,3.4,-88.5,-0.19,-0.7,0.82,0.13,1.05,-0.05,-112.6,-46.1,-96.0,-1.45,1.35,0.18,0.0,1.0591978096654089,1.0947602477255007,0.0,0.0,2.0,0.6,1.2,100.0,1.0,0.18,0.04267416130971036,0.2,1.0,-160.0,0,0,calibrating,0,0,0,0,0,0.0
0.7281869480000296,75,1084.03,93.3,3.5,-88.5,-0.3,-0.65,0.9,0.14,1.04,-0.06,-113.1,-53.9,-80.0,-1.43,1.54,-0.13,0.0,1.051094667477673,1.1500000000000001,0.0,0.0,2.0,0.6,1.2,100.0,1.0,0.18,0.03387959873953483,0.2,1.0,-160.0,0,0,calibrating,0,0,0,0,0,0.0
0.7402614750001248,76,1084.04,93.3,3.6,-88.4,-0.39,-0.56,0.97,0.14,1.02,-0.06,-113.7,-61.0,-79.0,-1.42,1.76,0.08,0.0,1.031309846748299,1.186001686339442,0.0,0.0,2.0,0.6,1.2,100.0,1.0,0.18,0.013812882449957486,0.2,1.0,-160.0,0,0,calibrating,0,0,0,0,0,0.0
0.7483073890000469,77,1084.05,93.3,3.8,-88.3,-0.42,-0.45,1.03,0.15,1.01,-0.07,-114.3,-67.0,-53.0,-1.4,1.84,0.04,0.0,1.023474474522936,1.1999166637729473,0.0,0.0,2.0,0.6,1.2,100.0,1.0,0.18,0.005857960020102526,0.2,1.0,-160.0,0,0,calibrating,0,0,0,0,0,0.0
0.7603278280000723,78,1084.06,93.2,3.9,-88.3,-0.52,-0.32,1.07,0.15,0.99,-0.08,-115.0,-71.5,-53.0,-1.38,2.01,0.02,0.0,1.0044899203078146,1.2319496742968035,0.0,0.0,2.0,0.6,1.2,100.0,1.0,0.18,0.012864062311118474,0.2,1.0,-160.0,0,0,calibrating,0,0,0,0,0,0.0
0.7682946510001329,79,1084.07,93.2,4.1,-88.2,-0.58,-0.22,1.07,0.14,0.96,-0.08,-115.8,-75.7,-37.0,-1.36,2.09,0.18,0.0,0.9734474818910366,1.2368104139276965,0.0,0.0,2.0,0.6,1.2,100.0,1.0,0.18,0.04302837071333854,0.2,1.0,-160.0,0,0,calibrating,0,0,0,0,0,0.0
0.7802682349999941,80,1084.08,93.2,4.2,-88.2,-0.58,-0.14,1.04,0.14,0.94,-0.08,-116.6,-78.4,-30.0,-1.34,2.16,0.11,0.0,0.9537295214053091,1.1989995829857492,0.0,0.0,2.0,0.6,1.2,100.0,1.0,0.18,0.06149140457508462,0.2,1.0,-160.0,0,0,calibrating,0,0,0,0,0,0.0
0.7882923360000405,81,1084.09,93.1,4.4,-88.2,-0.65,-0.11,1.01,0.13,0.92,-0.07,-117.4,-79.5,-7.0,-1.32,2.14,-0.01,0.0,0.9317725044236925,1.2061094477699774,0.0,0.0,2.0,0.6,1.2,100.0,1.0,0.18,0.08177945312556723,0.2,1.0,-160.0,0,0,calibrating,0,0,0,0,0,0.0
0.8002403600000889,82,1084.1,93.1,4.5,-88.2,-0.63,-0.11,0.96,0.12,0.9,-0.07,-118.2,-78.9,-3.0,-1.29,2.15,-0.17,0.0,0.910659101969557,1.1535163631262453,0.0,0.0,2.0,0.6,1.2,100.0,1.0,0.18,0.10083499846810862,0.2,1.0,-160.0,0,0,calibrating,0,0,0,0,0,0.0
0.8082777730000998,83,1084.11,93.0,4.6,-88.2,-0.62,-0.14,0.89,0.12,0.89,-0.07,-119.0,-79.9,0.0,-1.27,2.14,0.04,0.0,0.9007774419910837,1.093663568013491,0.0,0.0,2.0,0.6,1.2,100.0,1.0,0.18,0.10850232527765025,0.2,1.0,-160.0,0,0,calibrating,0,0,0,0,0,0.0
0.8202626060001421,84,1084.12,93.0,4.7,-88.1,-0.66,-0.16,0.79,0.12,0.89,-0.06,-119.7,-76.2,30.0,-1.25,2.02,-0.18,0.0,0.9000555538409838,1.0417773274553446,0.0,0.0,2.0,0.6,1.2,100.0,1.0,0.18,0.10703972915919513,0.2,1.0,-160.0,0,0,calibrating,0,0,0,0,0,0.0
0.8284715869999673,85,1084.13,92.9,4.8,-88.1,-0.69,-0.19,0.65,0.12,0.88,-0.07,-120.5,-71.6,46.0,-1.23,1.86,0.01,0.0,0.8908984229416954,0.9667988415384039,0.0,0.0,2.0,0.6,1.2,100.0,1.0,0.18,0.11387292285731387,0.2,1.0,-160.0,0,0,calibrating,0,0,0,0,0,0.0
0.8402371839999887,86,1084.14,92.9,4.9,-88.1,-0.67,-0.19,0.49,0.12,0.87,-0.07,-121.1,-65.5,55.0,-1.22,1.7,-0.11,0.0,0.8810221336606703,0.8515280382935139,0.0,0.0,2.0,0.6,1.2,100.0,1.0,0.18,0.1212742278955723,0.2,1.0,-160.0,0,0,calibrating,0,0,0,0,0,0.0
0.8485572229999434,87,1084.15,92.8,5.0,-88.1,-0.62,-0.19,0.31,0.13,0.87,-0.08,-121.8,-60.4,57.0,-1.2,1.55,0.01,0.0,0.8832893070789434,0.7187489130426564,0.0,0.0,2.0,0.6,1.2,100.0,1.0,0.18,0.11662691338775322,0.2,1.0,-160.0,0,0,calibrating,0,0,0,0,0,0.0
0.8601303950001693,88,1084.16,92.8,5.1,-88.1,-0.56,-0.15,0.17,0.13,0.88,-0.09,-122.3,-52.7,70.0,-1.19,1.35,0.05,0.0,0.8940917178902844,0.6041522986797286,0.0,0.0,2.0,0.6,1.2,100.0,1.0,0.18,0.10370801252488393,0.2,1.0,-160.0,0,0,calibrating,0,0,0,0,0,0.0
0.868149196000104,89,1084.17,92.8,5.1,-88.0,-0.5,-0.07,0.07,0.13,0.9,-0.1,-122.8,-45.8,62.0,-1.17,1.19,-0.2,0.0,0.9148223871331528,0.5097057974949863,0.0,0.0,2.0,0.6,1.2,100.0,1.0,0.18,0.08131779641637527,0.2,1.0,-160.0,0,0,calibrating,0,0,0,0,0,0.0
0.8803349360000539,90,1084.18,92.8,5.1,-88.0,-0.47,0.0,-0.01,0.14,0.91,-0.11,-123.2,-41.1,51.0,-1.16,1.06,-0.08,0.0,0.9272540105062905,0.4701063709417263,0.0,0.0,2.0,0.6,1.2,100.0,1.0,0.18,0.06750844958237268,0.2,1.0,-160.0,0,0,calibrating,0,0,0,0,0,0.0
0.8883578750001107,91,1084.19,92.8,5.2,-88.0,-0.47,0.11,-0.12,0.14,0.91,-0.11,-123.6,-37.1,40.0,-1.15,0.96,0.28,0.0,0.9272540105062905,0.4973932046178355,0.0,0.0,2.0,0.6,1.2,100.0,1.0,0.18,0.06615828059072526,0.2,1.0,-160.0,0,0,calibrating,0,0,0,0,0,0.0
0.9001085080001303,92,1084.2,92.7,5.1,-88.1,-0.5,0.22,-0.26,0.15,0.9,-0.13,-123.9,-35.6,16.0,-1.14,0.97,0.16,0.0,0.9216289925995167,0.6049793384901669,0.0,0.0,2.0,0.6,1.2,100.0,1.0,0.18,0.07034763252754916,0.2,1.0,-160.0,0,0,calibrating,0,0,0,0,0,0.0
0.90819331900002,93,1084.21,92.7,5.1,-88.1,-0.56,0.35,-0.41,0.14,0.89,-0.14,-124.3,-35.5,10.0,-1.13,0.95,-0.06,0.0,0.9117565464530539,0.777303029712351,0.0,0.0,2.0,0.6,1.2,100.0,1.0,0.18,0.07861567710053163,0.2,1.0,-160.0,0,0,calibrating,0,0,0,0,0,0.0
0.9201359180001418,94,1084.22,92.6,5.1,-88.1,-0.52,0.49,-0.57,0.15,0.88,-0.15,-124.7,-35.6,0.0,-1.12,0.96,-0.05,0.0,0.9052071586106685,0.9140021881811881,0.0,0.0,2.0,0.6,1.2,100.0,1.0,0.18,0.08346176364405877,0.2,1.0,-160.0,0,0,calibrating,0,0,0,0,0,0.0
0.928316888000154,95,1084.23,92.6,5.0,-88.2,-0.39,0.65,-0.7,0.15,0.87,-0.16,-125.0,-37.2,-14.0,-1.11,1.04,0.06,0.0,0.897217922246318,1.0317945531936095,0.0,0.0,2.0,0.6,1.2,100.0,1.0,0.18,0.08962198000824118,0.2,1.0,-160.0,0,0,calibrating,0,0,0,0,0,0.0
0.9401887369999713,96,1084.24,92.5,4.9,-88.3,-0.24,0.81,-0.8,0.16,0.88,-0.17,-125.4,-41.0,-43.0,-1.1,1.21,0.02,0.0,0.910439454329611,1.163486140871476,0.0,0.0,2.0,0.6,1.2,100.0,1.0,0.18,0.07487243896644924,0.2,1.0,-160.0,0,0,calibrating,0,0,0,0,0,0.0
0.9482448579999527,97,1084.25,92.5,4.8,-88.4,-0.09,0.99,-0.86,0.16,0.89,-0.17,-125.9,-47.7,-56.0,-1.09,1.37,0.12,0.0,0.9201086892318755,1.3144580632336658,0.0,0.0,2.0,0.6,1.2,100.0,1.0,0.18,0.06389913998290109,0.2,1.0,-160.0,0,0,calibrating,0,0,0,0,0,0.0
0.960234722999985,98,1084.26,92.5,4.8,-88.5,0.09,1.16,-0.86,0.15,0.9,-0.17,-126.4,-56.0,-84.0,-1.07,1.65,0.08,0.0,0.9281163720137686,1.4468241081762494,0.0,0.0,2.0,0.6,1.2,100.0,1.0,0.18,0.05477362805698782,0.2,1.0,-160.0,0,0,calibrating,0,0,0,0,0,0.0
0.9682523020001099,99,1084.27,92.5,4.7,-88.6,0.32,1.27,-0.8,0.15,0.93,-0.16,-127.0,-65.7,-89.0,-1.05,1.89,-0.04,0.0,0.9555103348473003,1.5346986674914396,0.0,0.0,2.0,0.6,1.2,100.0,1.0,0.18,0.026832071918986955,0.2,1.0,-160.0,0,0,calibrating,0,0,0,0,0,0.0
0.9803364450001482,100,1084.28,92.5,4.6,-88.7,0.5,1.34,-0.69,0.14,0.94,-0.17,-127.8,-75.1,-95.0,-1.03,2.16,0.21,0.0,0.9654532614269838,1.5879861460352858,0.0,0.0,2.0,0.6,1.2,100.0,1.0,0.18,0.016551362432517425,0.2,1.0,-160.0,0,0,calibrating,0,0,0,0,0,0.0
0.9882062060000862,101,1084.29,92.6,4.6,-88.9,0.58,1.38,-0.64,0.12,0.94,-0.17,-128.6,-84.6,-91.0,-1.01,2.4,-0.04,0.0,0.9627564593395361,1.6280049139974977,0.0,0.0,2.0,0.6,1.2,100.0,1.0,0.18,0.018863201229565862,0.2,1.0,-160.0,0,0,calibrating,0,0,0,0,0,0.0
1.000312595999958,102,1084.3,92.6,4.5,-89.0,0.57,1.42,-0.64,0.12,0.95,-0.16,-129.5,-94.6,-100.0,-0.98,2.69,0.08,0.0,0.9708243919473799,1.6585837331892532,0.0,0.0,2.0,0.6,1.2,100.0,1.0,0.18,0.010579363249287654,0.2,1.0,-160.0,0,0,calibrating,0,0,0,0,0,0.0
1.0081990640001095,103,1084.31,92.7,4.4,-89.2,0.54,1.45,-0.61,0.12,0.95,-0.15,-130.5,-103.7,-95.0,-0.96,2.95,-0.04,0.0,0.9692264957170743,1.6631897065578538,0.0,0.0,2.0,0.6,1.2,100.0,1.0,0.18,0.01193371429000123,0.2,1.0,-160.0,0,0,calibrating,0,0,0,0,0,0.0
1.0202304870001626,104,1084.32,92.7,4.4,-89.3,0.54,1.47,-0.6,0.12,0.95,-0.14,-131.6,-112.7,-89.0,-0.92,3.16,0.03,0.0,0.9677293009927931,1.6770509831248421,0.0,0.0,2.0,0.6,1.2,100.0,1.0,0.18,0.013162290833996892,0.2,1.0,-160.0,0,0,calibrating,0,0,0,0,0,0.0
1.0284808320000138,105,1084.33,92.8,4.3,-89.5,0.56,1.47,-0.61,0.12,0.94,-0.15,-132.8,-119.7,-70.0,-0.89,3.32,0.17,0.0,0.9594269122762816,1.687187008010671,0.0,0.0,2.0,0.6,1.2,100.0,1.0,0.18,0.021035385959498054,0.2,1.0,-160.0,0,0,calibrating,0,0,0,0,0,0.0
1.040021637000109,106,1084.34,92.8,4.3,-89.6,0.52,1.53,-0.62,0.12,0.93,-0.16,-134.0,-125.5,-62.0,-0.86,3.48,0.08,0.0,0.951262319236918,1.7308090593707903,0.0,0.0,2.0,0.6,1.2,100.0,1.0,0.18,0.028615979418884496,0.2,1.0,-160.0,0,0,calibrating,0,0,0,0,0,0.0
1.0484272710000369,107,1084.35,92.8,4.2,-89.8,0.52,1.6,-0.65,0.12,0.91,-0.18,-135.3,-131.4,-54.0,-0.82,3.63,0.06,0.0,0.9353608929178086,1.8035797736723487,0.0,0.0,2.0,0.6,1.2,100.0,1.0,0.18,0.043627057623234156,0.2,1.0,-160.0,0,0,calibrating,0,0,0,0,0,0.0
1.0602198990000034,108,1084.36,92.9,4.2,-90.0,0.58,1.7,-0.7,0.14,0.91,-0.2,-136.7,-135.5,-49.0,-0.78,3.75,-0.03,0.0,0.9421783270697751,1.9277966697761462,0.0,0.0,2.0,0.6,1.2,100.0,1.0,0.18,0.03607343100184224,0.2,1.0,-160.0,0,0,calibrating,0,0,0,0,0,0.0
1.0683161380000001,109,1084.37,92.9,4.1,-90.1,0.74,1.86,-0.69,0.16,0.94,-0.22,-138.0,-140.7,-49.0,-0.75,3.89,0.0,0.0,0.9785703858180054,2.1173804570742596,0.0,0.0,2.0,0.6,1.2,100.0,1.0,0.18,0.0003122551914602756,0.2,1.0,-160.0,0,0,calibrating,0,0,0,0,0,0.0
1.0802196390000063,110,1084.38,93.0,4.1,-90.3,0.9,2.14,-0.56,0.18,0.98,-0.22,-139.5,-145.0,-42.0,-0.71,3.98,-0.09,0.0,1.0203920815059278,2.3881373494839027,0.0,0.0,2.0,0.6,1.2,100.0,1.0,0.18,0.04129127186179504,0.2,1.0,-160.0,0,0,calibrating,0,0,0,0,0,0.0
1.0884080280000035,111,1084.39,93.1,4.0,-90.6,1.13,2.41,-0.42,0.18,1.0,-0.24,-141.0,-150.1,-52.0,-0.67,4.15,0.03,0.0,1.044030650891055,2.6946984989048404,0.0,0.0,2.0,0.6,1.2,100.0,1.0,0.18,0.06363124442198387,0.2,1.0,-160.0,0,0,calibrating,0,0,0,0,0,0.0
1.1003146909999941,112,1084.4,93.2,4.0,-90.8,1.26,2.67,-0.21,0.18,1.08,-0.21,-142.5,-155.3,-48.0,-0.62,4.26,0.2,0.0,1.114854250563723,2.959831076260941,0.0,0.0,2.0,0.6,1.2,100.0,1.0,0.18,0.1317657472127587,0.2,1.0,-160.0,0,0,calibrating,0,0,0,0,0,0.0
1.1082577560000573,113,1084.41,93.3,4.0,-91.1,1.19,2.86,0.08,0.16,1.08,-0.2,-144.1,-159.8,-47.0,-0.58,4.4,-0.02,0.0,1.1099549540409288,3.0987255444779227,0.0,0.0,2.0,0.6,1.2,100.0,1.0,0.18,0.12432912167616528,0.2,1.0,-160.0,0,0,calibrating,0,0,0,0,0,0.0
1.1201783120000073,114,1084.42,93.4,4.0,-91.4,1.25,2.89,0.3,0.13,1.07,-0.2,-145.7,-164.1,-38.0,-0.53,4.5,0.07,0.0,1.0962663909835053,3.163004900407206,0.0,0.0,2.0,0.6,1.2,100.0,1.0,0.18,0.10842774744636696,0.2,1.0,-160.0,0,0,calibrating,0,0,0,0,0,0.0
1.1282229270000244,115,1084.43,93.5,4.1,-91.7,1.23,2.91,0.46,0.09,1.06,-0.19,-147.4,-167.4,-37.0,-0.49,4.6,0.0,0.0,1.0806479537758817,3.192585159396692,0.0,0.0,2.0,0.6,1.2,100.0,1.0,0.18,0.09095312403396849,0.2,1.0,-160.0,0,0,calibrating,0,0,0,0,0,0.0
1.1402736869999899,116,1084.44,93.7,4.2,-92.0,1.1,2.95,0.52,0.07,1.06,-0.17,-149.1,-172.4,-57.0,-0.44,4.79,0.0,0.0,1.0758252646224664,3.1910656527248076,0.0,0.0,2.0,0.6,1.2,100.0,1.0,0.18,0.08440782618294229,0.2,1.0,-160.0,0,0,calibrating,0,0,0,0,0,0.0
1.1484502600001179,117,1084.45,93.8,4.2,-92.3,1.0,3.05,0.55,0.05,1.1,-0.14,-150.9,-179.7,-64.0,-0.39,4.96,0.18,0.0,1.11,3.2565318975867563,0.0,0.0,2.0,0.6,1.2,100.0,1.0,0.18,0.11621091032926623,0.2,1.0,-160.0,0,0,calibrating,0,0,0,0,0,0.0
1.1601989650000633,118,1084.46,93.9,4.3,-92.6,0.97,3.11,0.75,0.02,1.2,-0.08,-152.7,-187.0,-70.0,-0.34,5.17,0.11,0.0,1.2028299963003914,3.342977714553299,0.0,0.0,2.0,0.6,1.2,100.0,1.0,0.18,0.20486008849706439,0.2,1.0,-160.0,0,0,calibrating,0,0,0,0,0,0.0
1.1682736340001156,119,1084.47,94.0,4.4,-92.9,0.96,3.08,1.08,0.0,1.28,-0.03,-154.6,-193.7,-70.0,-0.29,5.36,-0.05,0.0,1.2803515142334936,3.4021169879943867,0.0,0.0,2.0,0.6,1.2,100.0,1.0,0.18,0.2767339743015631,0.2,1.0,-160.0,0,0,calibrating,0,0,0,0,0,0.0
1.1802384400000392,120,1084.48,94.0,4.5,-93.2,0.89,2.97,1.5,-0.01,1.36,0.0,-156.6,-200.9,-69.0,-0.23,5.54,0.01,0.0,1.3600367642089681,3.4442706049321967,0.0,0.0,2.0,0.6,1.2,100.0,1.0,0.18,0.3492908397914969,0.2,1.0,-160.0,0,0,calibrating,0,0,0,0,0,0.0
1.1884108629999446,121,1084.49,94.1,4.7,-93.4,0.6,2.8,2.02,-0.03,1.41,0.04,-158.7,-209.3,-81.0,-0.18,5.79,0.07,0.0,1.41088624630053,3.5043401661368434,0.0,0.0,2.0,0.6,1.2,100.0,1.0,0.18,0.39213751544539766,0.2,1.0,-160.0,0,0,calibrating,0,0,0,0,0,0.0
1.200301748000129,122,1084.5,94.1,4.9,-93.7,0.16,2.48,2.34,-0.08,1.34,0.06,-160.8,-219.3,-94.0,-0.12,6.07,-0.05,0.0,1.343726162579266,3.4134440086223763,0.0,0.0,2.0,0.6,1.2,100.0,1.0,0.18,0.31847788308965086,0.2,1.0,-160.0,0,0,calibrating,0,0,0,0,0,0.0
1.2082156169999507,123,1084.51,94.1,5.2,-93.9,-0.15,2.14,2.35,-0.06,1.25,0.06,-163.1,-229.2,-85.0,-0.05,6.3,0.1,0.0,1.2528766898621748,3.1819176607825668,0.0,0.0,2.0,0.6,1.2,100.0,1.0,0.18,0.22307584216510845,0.2,1.0,-160.0,0,0,calibrating,0,0,0,0,0,0.0
1.220260916000143,124,1084.52,94.0,5.4,-94.1,-0.61,1.91,2.15,0.02,1.16,0.05,-165.4,-233.5,-50.0,0.0,6.39,-0.04,0.0,1.1612493272333895,2.9398469347909932,0.0,0.0,2.0,0.6,1.2,100.0,1.0,0.18,0.12881950994559666,0.2,1.0,-160.0,0,0,calibrating,0,0,0,0,0,0.0
1.2284232849999626,125,1084.53,93.9,5.7,-94.3,-0.79,1.87,1.9,0.14,1.04,0.06,-167.8,-237.6,-54.0,0.06,6.54,0.0,0.0,1.051094667477673,2.780467586576042,0.0,0.0,2.0,0.6,1.2,100.0,1.0,0.18,0.018291553186082776,0.2,1.0,-160.0,0,0,calibrating,0,0,0,0,0,0.0
1.2401417620001212,126,1084.54,93.8,5.8,-94.5,-0.57,2.04,1.6,0.26,0.94,0.06,-170.2,-244.6,-62.0,0.13,6.72,-0.01,0.0,0.9771386800244887,2.6545244395183105,0.0,0.0,2.0,0.6,1.2,100.0,1.0,0.18,0.054551145581759664,0.2,1.0,-160.0,0,0,calibrating,0,0,0,0,0,0.0
1.248386556000014,127,1084.55,93.7,6.0,-94.7,-0.21,2.43,1.3,0.35,0.88,0.04,-172.7,-248.0,-28.0,0.2,6.72,-0.05,0.0,0.9478923989567593,2.7638740926460454,0.0,0.0,2.0,0.6,1.2,100.0,1.0,0.18,0.08212147811649928,0.2,1.0,-160.0,0,0,calibrating,0,0,0,0,0,0.0
1.2602463600001101,128,1084.56,93.7,6.1,-94.9,0.07,2.94,1.03,0.39,0.85,0.02,-175.2,-246.8,1.0,0.27,6.69,-0.05,0.0,0.9354143466934853,3.1159910141077107,0.0,0.0,2.0,0.6,1.2,100.0,1.0,0.18,0.09270753977217783,0.2,1.0,-160.0,0,0,calibrating,0,0,0,0,0,0.0
1.2681818620001195,129,1084.57,93.7,6.2,-95.3,0.34,3.53,0.72,0.37,0.83,0.01,-177.6,-246.8,-12.0,0.33,6.75,-0.15,0.0,0.9087904048789247,3.618687607406862,0.0,0.0,2.0,0.6,1.2,100.0,1.0,0.18,0.1169448519550037,0.2,1.0,-160.0,0,0,calibrating,0,0,0,0,0,0.0
1.2803020139999717,130,1084.58,93.7,6.3,-95.6,0.45,4.1,0.34,0.28,0.85,0.0,-180.1,-250.3,-28.0,0.4,6.85,-0.1,0.0,0.8949301648732151,4.138610878060415,0.0,0.0,2.0,0.6,1.2,100.0,1.0,0.18,0.12818899012149898,0.2,1.0,-160.0,0,0,calibrating,0,0,0,0,0,0.0
1.2884689469999557,131,1084.59,93.7,6.4,-96.1,0.29,4.55,-0.04,0.18,0.89,0.01,-182.6,-250.0,15.0,0.47,6.72,0.12,0.0,0.9080748867797193,4.559407856290112,0.0,0.0,2.0,0.6,1.2,100.0,1.0,0.18,0.11274338285069496,0.2,1.0,-160.0,0,0,calibrating,0,0,0,0,0,0.0
1.3002469299999575,132,1084.6,93.6,6.4,-96.6,0.04,4.87,-0.33,0.09,0.92,0.02,-185.1,-241.6,72.0,0.53,6.43,-0.11,0.0,0.9246080250571049,4.881331785486416,0.0,0.0,2.0,0.6,1.2,100.0,1.0,0.18,0.09428603968184301,0.2,1.0,-160.0,0,0,calibrating,0,0,0,0,0,0.0
1.3085095250000904,133,1084.61,93.5,6.4,-97.1,-0.14,5.03,-0.49,0.03,0.94,0.02,-187.4,-230.1,113.0,0.6,6.06,-0.1,0.0,0.9406912352095134,5.055749202640495,0.0,0.0,2.0,0.6,1.2,100.0,1.0,0.18,0.0766387729388458,0.2,1.0,-160.0,0,0,calibrating,0,0,0,0,0,0.0
1.320074527000088,134,1084.62,93.4,6.3,-97.6,-0.37,5.07,-0.52,0.0,0.95,0.03,-189.6,-212.8,168.0,0.65,5.52,-0.11,0.0,0.9504735661763561,5.1100097847264445,0.0,0.0,2.0,0.6,1.2,100.0,1.0,0.18,0.06551931313256287,0.2,1.0,-160.0,0,0,calibrating,0,0,0,0,0,0.0
1.328341808999994,135,1084.63,93.3,6.3,-98.1,-0.58,5.1,-0.5,0.0,0.95,0.05,-191.6,-189.9,216.0,0.7,4.85,-0.07,0.0,0.9513148795220223,5.1571697664513625,0.0,0.0,2.0,0.6,1.2,100.0,1.0,0.18,0.06338443979115871,0.2,1.0,-160.0,0,0,calibrating,0,0,0,0,0,0.0
1.3402555570000914,136,1084.64,93.2,6.3,-98.6,-0.71,5.08,-0.47,-0.02,0.96,0.06,-193.3,-164.7,249.0,0.75,4.12,-0.15,0.0,0.9620810776644555,5.150864005193692,0.0,0.0,2.0,0.6,1.2,100.0,1.0,0.18,0.05156587681575098,0.2,1.0,-160.0,0,0,calibrating,0,0,0,0,0,0.0
1.348483073000125,137,1084.65,93.1,6.3,-99.1,-0.81,5.05,-0.47,-0.02,0.98,0.07,-194.8,-135.7,280.0,0.78,3.31,-0.08,0.0,0.982700361249552,5.136097740502998,0.0,0.0,2.0,0.6,1.2,100.0,1.0,0.18,0.03032766136604148,0.2,1.0,-160.0,0,0,calibrating,0,0,0,0,0,0.0
1.3601973330000874,138,1084.66,92.9,6.3,-99.6,-0.99,4.98,-0.51,-0.01,1.0,0.1,-195.9,-101.9,340.0,0.81,2.28,-0.42,0.0,1.0050373127401788,5.102999118165709,0.0,0.0,2.0,0.6,1.2,100.0,1.0,0.18,0.007830895677906291,0.2,1.0,-160.0,0,0,calibrating,0,0,0,0,0,0.0
1.3681382720001238,139,1084.67,92.8,6.2,-100.1,-1.16,4.92,-0.61,0.0,1.01,0.13,-196.6,-60.0,404.0,0.82,1.08,-0.15,0.0,1.0183319694480772,5.091571466649564,0.0,0.0,2.0,0.6,1.2,100.0,1.0,0.18,0.005354485809392351,0.2,1.0,-160.0,0,0,calibrating,0,0,0,0,0,0.0
1.3803468319999865,140,1084.68,92.6,6.2,-100.6,-1.23,4.78,-0.76,0.0,1.0,0.14,-196.9,-13.4,446.0,0.83,-0.19,-0.17,0.0,1.009752444909147,4.993886262221037,0.0,0.0,2.0,0.6,1.2,100.0,1.0,0.18,0.0031605379549470847,0.2,1.0,-160.0,0,0,calibrating,0,0,0,0,0,0.0
1.388448832999984,141,1084.69,92.4,6.1,-101.1,-1.03,4.53,-0.94,-0.01,1.01,0.13,-196.8,22.5,339.0,0.82,-0.92,-0.15,0.0,1.0183810681665286,4.739767926808232,0.0,0.0,2.0,0.6,1.2,100.0,1.0,0.18,0.005358723596385895,0.2,1.0,-160.0,0,0,calibrating,0,0,0,0,0,0.0
1.4004621320000297,142,1084.7,92.3,6.0,-101.5,-0.82,4.25,-1.11,-0.02,1.01,0.12,-196.4,47.4,273.0,0.81,-1.57,0.04,0.0,1.0173003489628811,4.468444919656054,0.0,0.0,2.0,0.6,1.2,100.0,1.0,0.18,0.004192444304883525,0.2,1.0,-160.0,0,0,calibrating,0,0,0,0,0,0.0
1.4125037410001369,143,1084.71,92.2,5.9,-101.9,-0.76,3.91,-1.23,-0.03,1.01,0.1,-195.7,71.7,259.0,0.78,-2.25,-0.09,0.0,1.0153817016275208,4.168764805071162,0.0,0.0,2.0,0.6,1.2,100.0,1.0,0.18,0.0022283210301328182,0.2,1.0,-160.0,0,0,calibrating,0,0,0,0,0,0.0
1.4242538339999555,144,1084.72,92.0,5.8,-102.3,-0.78,3.6,-1.27,-0.02,1.0,0.09,-194.8,96.4,242.0,0.76,-2.89,-0.11,0.0,1.0042410069301093,3.896318775459729,0.0,0.0,2.0,0.6,1.2,100.0,1.0,0.18,0.0087341261939331,0.2,1.0,-160.0,0,0,calibrating,0,0,0,0,0,0.0
1.4321267320001425,145,1084.73,91.9,5.7,-102.7,-0.72,3.25,-1.24,0.0,0.97,0.08,-193.7,120.0,234.0,0.72,-3.52,-0.05,0.0,0.9732933781753578,3.5522528063188292,0.0,0.0,2.0,0.6,1.2,100.0,1.0,0.18,0.03888811984971097,0.2,1.0,-160.0,0,0,calibrating,0,0,0,0,0,0.0
1.4443835580000268,146,1084.74,91.8,5.6,-103.0,-0.54,2.91,-1.23,0.02,0.95,0.07,-192.4,141.9,227.0,0.68,-4.13,-0.2,0.0,0.9527853903162034,3.205089702332838,0.0,0.0,2.0,0.6,1.2,100.0,1.0,0.18,0.0582081855546881,0.2,1.0,-160.0,0,0,calibrating,0,0,0,0,0,0.0
1.4523486110001613,147,1084.75,91.8,5.5,-103.3,-0.4,2.67,-1.24,0.04,0.93,0.05,-190.8,164.7,232.0,0.64,-4.78,0.01,0.0,0.9322016949137134,2.9709426113609125,0.0,0.0,2.0,0.6,1.2,100.0,1.0,0.18,0.07721604333803456,0.2,1.0,-160.0,0,0,calibrating,0,0,0,0,0,0.0
1.4643857759999719,148,1084.76,91.7,5.3,-103.5,-0.32,2.52,-1.27,0.05,0.93,0.04,-189.0,188.4,228.0,0.59,-5.38,-0.23,0.0,0.9322016949137134,2.8400176055792334,0.0,0.0,2.0,0.6,1.2,100.0,1.0,0.18,0.07567172247127385,0.2,1.0,-160.0,0,0,calibrating,0,0,0,0,0,0.0
1.4724210609999773,149,1084.77,91.6,5.2,-103.8,-0.24,2.42,-1.32,0.06,0.93,0.03,-186.9,209.3,214.0,0.53,-5.94,-0.12,0.0,0.9324162160752033,2.76702005775166,0.0,0.0,2.0,0.6,1.2,100.0,1.0,0.18,0.07394805728358844,0.2,1.0,-160.0,0,0,calibrating,0,0,0,0,0,0.0
1.4803627300000244,150,1084.78,91.5,5.0,-104.0,-0.2,2.33,-1.34,0.05,0.94,0.02,-184.7,230.7,217.0,0.47,-6.54,-0.12,0.0,0.9415412895885129,2.695273641024228,0.0,0.0,2.0,0.6,1.2,100.0,1.0,0.18,0.06352652409487325,0.2,1.0,-160.0,0,0,calibrating,0,0,0,0,0,0.0
1.4883706699999948,151,1084.79,91.4,4.9,-104.3,-0.17,2.25,-1.34,0.02,0.95,0.01,-182.2,255.2,241.0,0.4,-7.24,-0.13,0.0,0.9502631214563679,2.6243094329747017,0.0,0.0,2.0,0.6,1.2,100.0,1.0,0.18,0.05370859838247788,0.2,1.0,-160.0,0,0,calibrating,0,0,0,0,0,0.0
1.5001306320000367,152,1084.8,91.4,4.7,-104.5,-0.18,2.14,-1.3,0.0,0.96,0.01,-179.5,278.8,221.0,0.32,-7.82,0.01,0.0,0.9600520819205591,2.510378457523885,0.0,0.0,2.0,0.6,1.2,100.0,1.0,0.18,0.043041245159920916,0.2,1.0,-160.0,0,0,calibrating,0,0,0,0,0,0.0
1.508314116000065,153,1084.81,91.3,4.5,-104.7,-0.18,1.98,-1.24,-0.02,0.96,0.0,-176.6,296.9,202.0,0.24,-8.33,-0.03,0.0,0.9602083107326242,2.3431602591372194,0.0,0.0,2.0,0.6,1.2,100.0,1.0,0.18,0.0420273160208986,0.2,1.0,-160.0,0,0,calibrating,0,0,0,0,0,0.0
1.5202044879999903,154,1084.82,91.3,4.4,-104.9,-0.15,1.77,-1.19,-0.04,0.97,0.0,-173.5,319.5,224.0,0.15,-8.97,-0.14,0.0,0.9708243919473799,2.138106639061766,0.0,0.0,2.0,0.6,1.2,100.0,1.0,0.18,0.030783010110020048,0.2,1.0,-160.0,0,0,calibrating,0,0,0,0,0,0.0
1.5284726820000287,155,1084.83,91.2,4.2,-105.1,-0.13,1.54,-1.13,-0.05,0.98,-0.01,-170.1,341.3,202.0,0.06,-9.49,-0.2,0.0,0.9813256340277675,1.9145234393968646,0.0,0.0,2.0,0.6,1.2,100.0,1.0,0.18,0.01987613266903987,0.2,1.0,-160.0,0,0,calibrating,0,0,0,0,0,0.0
1.5402059489999829,156,1084.84,91.2,4.0,-105.2,-0.17,1.3,-1.08,-0.06,0.98,-0.02,-166.6,356.7,176.0,-0.03,-9.92,0.0,0.0,0.9820386957752734,1.698617084572035,0.0,0.0,2.0,0.6,1.2,100.0,1.0,0.18,0.018779809503103317,0.2,1.0,-160.0,0,0,calibrating,0,0,0,0,0,0.0
1.548416576000136,157,1084.85,91.2,3.8,-105.3,-0.22,1.04,-1.03,-0.06,0.98,-0.02,-162.9,379.9,231.0,-0.14,-10.64,-0.08,0.0,0.9820386957752734,1.480168909280289,0.0,0.0,2.0,0.6,1.2,100.0,1.0,0.18,0.018404213313041318,0.2,1.0,-160.0,0,0,calibrating,0,0,0,0,0,0.0
1.5602843300000586,158,1084.86,91.1,3.6,-105.4,-0.34,0.77,-0.96,-0.05,0.97,-0.03,-158.9,400.8,189.0,-0.25,-11.08,-0.08,0.0,0.9717509969122748,1.2767536959022285,0.0,0.0,2.0,0.6,1.2,100.0,1.0,0.18,0.028118073932519083,0.2,1.0,-160.0,0,0,calibrating,0,0,0,0,0,0.0
1.5683193130000745,159,1084.87,91.1,3.5,-105.5,-0.45,0.47,-0.9,-0.05,0.97,-0.03,-154.8,415.7,170.0,-0.36,-11.52,-0.18,0.0,0.9717509969122748,1.110585431202841,0.0,0.0,2.0,0.6,1.2,100.0,1.0,0.18,0.027555712453868675,0.2,1.0,-160.0,0,0,calibrating,0,0,0,0,0,0.0
1.5803501190000588,160,1084.88,91.1,3.3,-105.5,-0.51,0.21,-0.82,-0.04,0.95,-0.05,-150.5,434.0,175.0,-0.48,-12.01,0.0,0.0,0.9521554494934112,0.9882307422864358,0.0,0.0,2.0,0.6,1.2,100.0,1.0,0.18,0.04620823467527768,0.2,1.0,-160.0,0,0,calibrating,0,0,0,0,0,0.0
1.5883359050001218,161,1084.89,91.0,3.3,-105.5,-0.52,-0.03,-0.73,-0.04,0.95,-0.06,-146.0,455.5,233.0,-0.6,-12.74,0.05,0.0,0.952732911156112,0.8967719888578144,0.0,0.0,2.0,0.6,1.2,100.0,1.0,0.18,0.04471815755232533,0.2,1.0,-160.0,0,0,calibrating,0,0,0,0,0,0.0
1.6001226299999871,162,1084.9,91.0,3.2,-105.5,-0.52,-0.28,-0.63,-0.04,0.95,-0.07,-141.3,477.4,184.0,-0.73,-13.14,-0.09,0.0,0.9534149149242422,0.8635392289873113,0.0,0.0,2.0,0.6,1.2,100.0,1.0,0.18,0.043155430708511355,0.2,1.0,-160.0,0,0,calibrating,0,0,0,0,0,0.0
1.6083530939999946,163,1084.91,90.9,3.1,-105.5,-0.57,-0.5,-0.49,-0.03,0.96,-0.08,-136.4,495.9,218.0,-0.87,-13.79,-0.29,0.0,0.9637945839233586,0.9027735042633894,0.0,0.0,2.0,0.6,1.2,100.0,1.0,0.18,0.03212024647520695,0.2,1.0,-160.0,0,0,calibrating,0,0,0,0,0,0.0
1.620162627000127,164,1084.92,90.9,3.1,-105.4,-0.58,-0.66,-0.34,-0.02,0.97,-0.09,-131.3,514.5,152.0,-1.01,-14.09,-0.07,0.0,0.9743715923609432,0.9421252570651102,0.0,0.0,2.0,0.6,1.2,100.0,1.0,0.18,0.021112373276869878,0.2,1.0,-160.0,0,0,calibrating,0,0,0,0,0,0.0
1.6282651980000082,165,1084.93,90.8,3.1,-105.4,-0.66,-0.81,-0.17,-0.02,0.97,-0.1,-126.1,534.2,212.0,-1.16,-14.78,0.17,0.0,0.9753460924205315,1.0585839598255775,0.0,0.0,2.0,0.6,1.2,100.0,1.0,0.18,0.01973511575293596,0.2,1.0,-160.0,0,0,calibrating,0,0,0,0,0,0.0
1.6402444840000499,166,1084.94,90.7,3.1,-105.3,-0.76,-0.93,-0.02,-0.02,0.97,-0.11,-120.6,542.8,70.0,-1.3,-14.73,0.03,0.0,0.9764220398987314,1.201207725582882,0.0,0.0,2.0,0.6,1.2,100.0,1.0,0.18,0.01828598490924127,0.2,1.0,-160.0,0,0,calibrating,0,0,0,0,0,0.0
1.648453833000076,167,1084.95,90.7,3.1,-105.2,-0.89,-1.09,0.11,-0.01,0.95,-0.11,-115.2,542.4,28.0,-1.45,-14.73,0.07,0.0,0.9563994981178106,1.4114885759367661,0.0,0.0,2.0,0.6,1.2,100.0,1.0,0.18,0.037542356156358925,0.2,1.0,-160.0,0,0,calibrating,0,0,0,0,0,0.0
1.660262246000002,168,1084.96,90.6,3.1,-105.0,-0.89,-1.24,0.21,0.0,0.94,-0.11,-109.8,542.8,23.0,-1.6,-14.8,0.08,0.0,0.9464142856064673,1.5407141201403975,0.0,0.0,2.0,0.6,1.2,100.0,1.0,0.18,0.046577017294348044,0.2,1.0,-160.0,0,0,calibrating,0,0,0,0,0,0.0
1.6682154140000875,169,1084.97,90.5,3.1,-104.9,-0.87,-1.37,0.28,-0.02,0.95,-0.11,-104.4,528.7,-199.0,-1.74,-13.85,0.15,0.0,0.9565563234854495,1.6468758301705688,0.0,0.0,2.0,0.6,1.2,100.0,1.0,0.18,0.03570627982705854,0.2,1.0,-160.0,0,0,calibrating,0,0,0,0,0,0.0
1.6804627290000553,170,1084.98,90.4,3.1,-104.8,-1.01,-1.54,0.41,-0.04,0.96,-0.11,-99.5,480.3,-426.0,-1.87,-12.32,0.23,0.0,0.9671090941563936,1.886743225772919,0.0,0.0,2.0,0.6,1.2,100.0,1.0,0.18,0.02465043897299224,0.2,1.0,-160.0,0,0,calibrating,0,0,0,0,0,0.0
1.6882950850001635,171,1084.99,90.3,3.2,-104.6,-1.16,-1.73,0.58,-0.06,0.97,-0.1,-95.1,409.4,-661.0,-1.98,-10.15,0.18,0.0,0.976985158536198,2.1621517060557984,0.0,0.0,2.0,0.6,1.2,100.0,1.0,0.18,0.014478887101324056,0.2,1.0,-160.0,0,0,calibrating,0,0,0,0,0,0.0
1.7001051449999522,172,1085.0,90.2,3.2,-104.4,-1.09,-1.99,0.68,0.0,0.95,-0.1,-92.7,361.2,-780.0,-2.08,-8.34,0.11,0.0,0.95524865872714,2.368670513178226,0.0,0.0,2.0,0.6,1.2,100.0,1.0,0.18,0.03549107917217431,0.2,1.0,-160.0,0,0,calibrating,0,0,0,0,0,0.0
1.708467330000076,173,1085.01,90.2,3.3,-104.2,-0.72,-2.13,0.63,0.03,0.95,-0.11,-88.3,275.4,-723.0,-2.15,-6.79,0.13,0.0,0.9568176419778223,2.3349946466748053,0.0,0.0,2.0,0.6,1.2,100.0,1.0,0.18,0.033243654003062284,0.2,1.0,-160.0,0,0,calibrating,0,0,0,0,0,0.0
1.7202605259999473,174,1085.02,90.1,3.4,-104.0,-0.87,-2.33,0.61,0.03,0.95,-0.13,-85.9,225.2,-532.0,-2.21,-5.66,0.15,0.0,0.9593226777263216,2.5608397060339407,0.0,0.0,2.0,0.6,1.2,100.0,1.0,0.18,0.0301238458894717,0.2,1.0,-160.0,0,0,calibrating,0,0,0,0,0,0.0
1.728281971000115,175,1085.03,90.0,3.4,-103.7,-1.01,-2.36,0.61,0.07,0.94,-0.14,-83.9,195.0,-336.0,-2.26,-5.06,0.04,0.0,0.9529428104561154,2.638522313720314,0.0,0.0,2.0,0.6,1.2,100.0,1.0,0.18,0.03577363889648433,0.2,1.0,-160.0,0,0,calibrating,0,0,0,0,0,0.0
1.7403194890000577,176,1085.04,90.0,3.5,-103.5,-0.86,-2.29,0.67,0.05,0.92,-0.15,-82.0,179.3,-199.0,-2.31,-4.73,0.12,0.0,0.9334880824091971,2.536257084760928,0.0,0.0,2.0,0.6,1.2,100.0,1.0,0.18,0.054123799604534506,0.2,1.0,-160.0,0,0,calibrating,0,0,0,0,0,0.0
1.7483882129999984,177,1085.05,89.9,3.6,-103.3,-0.69,-2.21,0.82,0.01,0.9,-0.16,-80.3,168.4,-138.0,-2.35,-4.44,-0.05,0.0,0.914166286842826,2.4561351754331437,0.0,0.0,2.0,0.6,1.2,100.0,1.0,0.18,0.0719766832674874,0.2,1.0,-160.0,0,0,calibrating,0,0,0,0,0,0.0
1.7601925540000138,178,1085.06,89.9,3.7,-103.1,-0.5,-2.15,1.0,0.0,0.89,-0.15,-78.9,159.5,-106.0,-2.4,-4.2,-0.02,0.0,0.9025519375637061,2.423324163210527,0.0,0.0,2.0,0.6,1.2,100.0,1.0,0.18,0.08191921189567519,0.2,1.0,-160.0,0,0,calibrating,0,0,0,0,0,0.0
1.7682135600000493,179,1085.07,89.8,3.8,-102.8,-0.23,-2.21,1.12,0.0,0.89,-0.14,-77.3,151.8,-74.0,-2.44,-4.05,0.11,0.0,0.9009439494219382,2.4882523987730827,0.0,0.0,2.0,0.6,1.2,100.0,1.0,0.18,0.08185665603669423,0.2,1.0,-160.0,0,0,calibrating,0,0,0,0,0,0.0
1.7802987280001616,180,1085.08,89.8,3.9,-102.6,-0.05,-2.34,1.2,0.01,0.9,-0.14,-75.8,147.8,-51.0,-2.48,-3.96,-0.14,0.0,0.9108786966440702,2.6302281269882273,0.0,0.0,2.0,0.6,1.2,100.0,1.0,0.18,0.07048347063827098,0.2,1.0,-160.0,0,0,calibrating,0,0,0,0,0,0.0
1.7923311600000034,181,1085.09,89.9,4.0,-102.4,0.04,-2.47,1.21,0.01,0.92,-0.15,-74.4,142.2,-66.0,-2.52,-3.7,0.05,0.0,0.9322016949137134,2.7507453535360193,0.0,0.0,2.0,0.6,1.2,100.0,1.0,0.18,0.04817726292125524,0.2,1.0,-160.0,0,0,calibrating,0,0,0,0,0,0.0
1.8003922709999642,182,1085.1,89.9,4.1,-102.1,0.06,-2.53,1.16,0.02,0.93,-0.14,-73.0,128.6,-133.0,-2.55,-3.19,0.07,0.0,0.9406912352095134,2.7839001418872766,0.0,0.0,2.0,0.6,1.2,100.0,1.0,0.18,0.0388939681729461,0.2,1.0,-160.0,0,0,calibrating,0,0,0,0,0,0.0
1.808365133000052,183,1085.11,89.9,4.2,-101.9,0.03,-2.54,1.09,0.02,0.95,-0.13,-71.9,106.3,-210.0,-2.58,-2.45,0.19,0.0,0.9590620417887468,2.764163526276982,0.0,0.0,2.0,0.6,1.2,100.0,1.0,0.18,0.0201126983618386,0.2,1.0,-160.0,0,0,calibrating,0,0,0,0,0,0.0
1.8203004250001413,184,1085.12,89.9,4.3,-101.6,-0.02,-2.56,1.02,0.02,0.94,-0.12,-71.0,75.7,-297.0,-2.59,-1.5,0.16,0.0,0.9478396488858228,2.755793896502422,0.0,0.0,2.0,0.6,1.2,100.0,1.0,0.18,0.0307083894394673,0.2,1.0,-160.0,0,0,calibrating,0,0,0,0,0,0.0
1.828255800000079,185,1085.13,89.9,4.4,-101.3,0.0,-2.65,1.0,0.01,0.93,-0.12,-70.6,36.2,-371.0,-2.6,-0.35,0.29,0.0,0.9377632963600143,2.8324018076537096,0.0,0.0,2.0,0.6,1.2,100.0,1.0,0.18,0.03996904712597027,0.2,1.0,-160.0,0,0,calibrating,0,0,0,0,0,0.0
1.840243375,186,1085.14,90.0,4.5,-101.1,0.03,-2.82,1.04,0.01,0.92,-0.13,-70.5,-4.3,-346.0,-2.6,0.43,0.01,0.0,0.9291931984253867,3.0058110386383237,0.0,0.0,2.0,0.6,1.2,100.0,1.0,0.18,0.04756836215938587,0.2,1.0,-160.0,0,0,calibrating,0,0,0,0,0,0.0
1.84843175900005,187,1085.15,90.0,4.7,-100.8,0.08,-3.03,1.13,0.01,0.9,-0.13,-70.6,-18.8,-184.0,-2.59,0.7,0.18,0.0,0.9093954035511727,3.23484157262763,0.0,0.0,2.0,0.6,1.2,100.0,1.0,0.18,0.06601883389292795,0.2,1.0,-160.0,0,0,calibrating,0,0,0,0,0,0.0
1.860216034000132,188,1085.16,90.0,4.8,-100.5,0.46,-3.28,1.16,-0.01,0.88,-0.12,-70.9,-36.2,-204.0,-2.58,1.32,0.28,0.0,0.8882004278314664,3.509358915813542,0.0,0.0,2.0,0.6,1.2,100.0,1.0,0.18,0.08546953342038155,0.2,1.0,-160.0,0,0,calibrating,0,0,0,0,0,0.0
1.8683128130001023,189,1085.17,90.2,4.9,-100.1,1.1,-3.6,1.09,-0.01,0.9,-0.14,-71.5,-57.9,-202.0,-2.56,1.85,0.14,0.0,0.9108786966440702,3.9189411835341446,0.0,0.0,2.0,0.6,1.2,100.0,1.0,0.18,0.06153543931562222,0.2,1.0,-160.0,0,0,calibrating,0,0,0,0,0,0.0
1.880298249000134,190,1085.18,90.3,5.0,-99.7,1.94,-3.83,0.8,0.04,0.93,-0.13,-72.2,-76.6,-191.0,-2.54,2.38,0.12,0.0,0.9398936110007345,4.3672073456615275,0.0,0.0,2.0,0.6,1.2,100.0,1.0,0.18,0.03187011445977872,0.2,1.0,-160.0,0,0,calibrating,0,0,0,0,0,0.0
1.888248233000013,191,1085.19,90.6,5.0,-99.3,2.82,-4.04,0.32,0.06,0.99,-0.15,-73.1,-99.2,-231.0,-2.51,3.1,0.32,0.0,1.0030952098380292,4.937246196008459,0.0,0.0,2.0,0.6,1.2,100.0,1.0,0.18,0.030704854689965644,0.2,1.0,-160.0,0,0,calibrating,0,0,0,0,0,0.0
1.9001586940000834,192,1085.2,91.0,5.0,-98.9,3.07,-4.13,-0.19,0.08,1.05,-0.17,-74.3,-129.2,-295.0,-2.48,4.02,0.0,0.0,1.0666770832824712,5.149553378692175,0.0,0.0,2.0,0.6,1.2,100.0,1.0,0.18,0.09240099357171949,0.2,1.0,-160.0,0,0,calibrating,0,0,0,0,0,0.0
1.9083504029999858,193,1085.21,91.3,5.0,-98.5,2.9,-4.16,-0.68,0.11,1.09,-0.18,-75.8,-162.0,-306.0,-2.43,4.87,0.09,0.0,1.1102252023801298,5.116444077677387,0.0,0.0,2.0,0.6,1.2,100.0,1.0,0.18,0.13323013041599052,0.2,1.0,-160.0,0,0,calibrating,0,0,0,0,0,0.0
1.9203436860000238,194,1085.22,91.6,4.9,-98.1,2.99,-4.15,-1.13,0.18,1.09,-0.18,-77.6,-192.8,-300.0,-2.38,5.68,0.06,0.0,1.1193301568348815,5.238272616044339,0.0,0.0,2.0,0.6,1.2,100.0,1.0,0.18,0.13948838317332735,0.2,1.0,-160.0,0,0,calibrating,0,0,0,0,0,0.0
1.928311506,195,1085.23,92.0,4.7,-97.7,3.28,-3.89,-1.58,0.26,1.13,-0.2,-79.7,-218.3,-252.0,-2.31,6.23,0.0,0.0,1.176647780773839,5.327935810424146,0.0,0.0,2.0,0.6,1.2,100.0,1.0,0.18,0.19286988697003893,0.2,1.0,-160.0,0,0,calibrating,0,0,0,0,0,0.0
1.940280324000014,196,1085.24,92.3,4.5,-97.3,3.37,-3.33,-2.11,0.32,1.18,-0.2,-82.1,-237.0,-193.0,-2.25,6.62,0.11,0.0,1.2388704532758863,5.186318540159291,0.0,0.0,2.0,0.6,1.2,100.0,1.0,0.18,0.2499907082826448,0.2,1.0,-160.0,0,0,calibrating,0,0,0,0,0,0.0
1.948411526999962,197,1085.25,92.7,4.3,-97.1,3.01,-2.54,-2.6,0.34,1.27,-0.16,-84.5,-245.5,-94.0,-2.18,6.69,-0.1,0.0,1.324424403278647,4.719290200867075,0.0,0.0,2.0,0.6,1.2,100.0,1.0,0.18,0.3288337651196973,0.2,1.0,-160.0,0,0,calibrating,0,0,0,0,0,0.0
1.9603150939999523,198,1085.26,93.0,4.0,-96.9,2.36,-1.54,-3.08,0.31,1.29,-0.13,-87.0,-244.8,-9.0,-2.12,6.58,0.08,0.0,1.3330791424367872,4.1746377088317494,0.0,0.0,2.0,0.6,1.2,100.0,1.0,0.18,0.3307387341922807,0.2,1.0,-160.0,0,0,calibrating,0,0,0,0,0,0.0
1.9684204790000877,199,1085.27,93.2,3.6,-96.8,2.08,-0.5,-3.53,0.25,1.3,-0.11,-89.4,-237.2,66.0,-2.05,6.23,-0.04,0.0,1.3283824750424857,4.127626436585559,0.0,0.0,2.0,0.6,1.2,100.0,1.0,0.18,0.31952122546201966,0.2,1.0,-160.0,0,0,calibrating,0,0,0,0,0,0.0
1.9803970980001395,200,1085.28,93.4,3.3,-96.8,1.98,0.4,-3.7,0.2,1.33,-0.05,-91.6,-221.6,137.0,-1.99,5.76,-0.1,0.0,1.3458826100369974,4.215495225949141,0.0,0.0,2.0,0.6,1.2,100.0,1.0,0.18,0.3302809332474006,0.2,1.0,-160.0,0,0,calibrating,0,0,0,0,0,0.0
1.9883285470000374,201,1085.29,93.6,3.0,-96.9,1.78,0.94,-3.41,0.1,1.34,0.0,-93.7,-205.3,138.0,-1.94,5.41,-0.14,0.0,1.343726162579266,3.9598106015313412,0.0,0.0,2.0,0.6,1.2,100.0,1.0,0.18,0.3215619960738758,0.2,1.0,-160.0,0,0,calibrating,0,0,0,0,0,0.0
2.000270795000006,202,1085.3,93.7,2.7,-97.0,1.28,1.1,-2.64,-0.04,1.34,0.05,-95.7,-195.0,105.0,-1.89,5.19,0.01,0.0,1.3415289784421358,3.1333687941255817,0.0,0.0,2.0,0.6,1.2,100.0,1.0,0.18,0.3129775156980106,0.2,1.0,-160.0,0,0,calibrating,0,0,0,0,0,0.0
2.0082169490001434,203,1085.31,93.8,2.5,-97.2,0.79,0.87,-1.64,-0.19,1.3,0.13,-97.6,-188.4,77.0,-1.84,5.02,-0.02,0.0,1.320227253165151,2.017572799182225,0.0,0.0,2.0,0.6,1.2,100.0,1.0,0.18,0.28584227461260525,0.2,1.0,-160.0,0,0,calibrating,0,0,0,0,0,0.0
2.020352138000135,204,1085.32,93.8,2.4,-97.2,0.64,0.17,-0.67,-0.28,1.24,0.24,-99.4,-180.6,82.0,-1.79,4.77,0.05,0.0,1.2936769303036983,0.942019108086455,0.0,0.0,2.0,0.6,1.2,100.0,1.0,0.18,0.2541061127161295,0.2,1.0,-160.0,0,0,calibrating,0,0,0,0,0,0.0
2.0282977000001665,205,1085.33,93.9,2.4,-97.2,0.64,-0.85,-0.03,-0.32,1.16,0.27,-101.2,-169.4,115.0,-1.74,4.37,-0.06,0.0,1.2332477447779906,1.0644247272588137,0.0,0.0,2.0,0.6,1.2,100.0,1.0,0.18,0.18980338864661328,0.2,1.0,-160.0,0,0,calibrating,0,0,0,0,0,0.0
2.0403222429999914,206,1085.34,94.0,2.4,-97.0,0.44,-1.95,0.23,-0.29,1.08,0.28,-102.8,-153.7,149.0,-1.7,3.89,-0.03,0.0,1.1527792503337315,2.012212712413874,0.0,0.0,2.0,0.6,1.2,100.0,1.0,0.18,0.10714819631830719,0.2,1.0,-160.0,0,0,calibrating,0,0,0,0,0,0.0
2.048475226000164,207,1085.35,94.0,2.4,-96.8,-0.02,-3.02,0.31,-0.2,1.01,0.26,-104.2,-133.6,192.0,-1.67,3.31,-0.02,0.0,1.0619322012256716,3.035934781908202,0.0,0.0,2.0,0.6,1.2,100.0,1.0,0.18,0.015975124266041973,0.2,1.0,-160.0,0,0,calibrating,0,0,0,0,0,0.0
2.0602694010001414,208,1085.36,94.0,2.4,-96.4,-0.77,-3.85,0.37,-0.12,0.94,0.26,-105.4,-111.3,217.0,-1.64,2.67,-0.1,0.0,0.9826494797230597,3.9436404501424827,0.0,0.0,2.0,0.6,1.2,100.0,1.0,0.18,0.06204144529183819,0.2,1.0,-160.0,0,0,calibrating,0,0,0,0,0,0.0
2.0684178850001445,209,1085.37,93.9,2.4,-96.0,-1.41,-4.48,0.42,-0.05,0.84,0.24,-106.3,-86.6,244.0,-1.62,1.94,-0.27,0.0,0.8750428560933458,4.715389697575377,0.0,0.0,2.0,0.6,1.2,100.0,1.0,0.18,0.1662551075431209,0.2,1.0,-160.0,0,0,calibrating,0,0,0,0,0,0.0
2.0803674220001085,210,1085.38,93.7,2.4,-95.5,-1.46,-4.9,0.36,-0.01,0.77,0.2,-107.0,-58.5,268.0,-1.6,1.19,-0.12,0.0,0.7956129712366434,5.125543873580638,0.0,0.0,2.0,0.6,1.2,100.0,1.0,0.18,0.24077129255182694,0.2,1.0,-160.0,0,0,calibrating,0,0,0,0,0,0.0
2.0883288820000416,211,1085.39,93.6,2.4,-95.0,-1.05,-5.13,0.27,0.04,0.76,0.17,-107.4,-30.3,292.0,-1.6,0.33,-0.03,0.0,0.7798076685952762,5.243310023258209,0.0,0.0,2.0,0.6,1.2,100.0,1.0,0.18,0.2514450632893305,0.2,1.0,-160.0,0,0,calibrating,0,0,0,0,0,0.0
2.1003171480001583,212,1085.4,93.6,2.4,-94.5,-0.65,-5.23,0.09,0.11,0.79,0.1,-107.5,-0.8,267.0,-1.6,-0.25,-0.04,0.0,0.8038656604184558,5.2710055966580045,0.0,0.0,2.0,0.6,1.2,100.0,1.0,0.18,0.22283933003682788,0.2,1.0,-160.0,0,0,calibrating,0,0,0,0,0,0.0
2.1084821399999782,213,1085.41,93.5,2.4,-94.0,-0.66,-4.98,-0.13,0.18,0.84,0.01,-107.3,14.6,160.0,-1.6,-0.5,-0.01,0.0,0.8591274643497319,5.025226363060674,0.0,0.0,2.0,0.6,1.2,100.0,1.0,0.18,0.16422597558344065,0.2,1.0,-160.0,0,0,calibrating,0,0,0,0,0,0.0
2.120247735000021,214,1085.42,93.5,2.3,-93.5,-0.82,-4.48,-0.33,0.23,0.9,-0.03,-107.2,18.6,63.0,-1.61,-0.51,-0.19,0.0,0.9294084139924708,4.566366170162003,0.0,0.0,2.0,0.6,1.2,100.0,1.0,0.18,0.09206612542188775,0.2,1.0,-160.0,0,0,calibrating,0,0,0,0,0,0.0
2.1282892790000005,215,1085.43,93.4,2.2,-93.1,-0.98,-3.85,-0.42,0.27,0.94,-0.05,-107.0,18.4,26.0,-1.61,-0.54,-0.27,0.0,0.9792854537876072,3.994909260546477,0.0,0.0,2.0,0.6,1.2,100.0,1.0,0.18,0.04134530391421609,0.2,1.0,-160.0,0,0,calibrating,0,0,0,0,0,0.0
2.1403330890000234,216,1085.44,93.3,2.2,-92.8,-0.91,-3.24,-0.41,0.27,0.96,-0.06,-106.8,20.0,14.0,-1.62,-0.53,-0.22,0.0,0.9990495483208027,3.3902507281910585,0.0,0.0,2.0,0.6,1.2,100.0,1.0,0.18,0.021149585193400378,0.2,1.0,-160.0,0,0,calibrating,0,0,0,0,0,0.0
2.148402367000017,217,1085.45,93.2,2.1,-92.5,-0.71,-2.68,-0.31,0.25,0.97,-0.08,-106.6,17.6,-25.0,-1.62,-0.38,0.04,0.0,1.0048880534666536,2.7897311698441487,0.0,0.0,2.0,0.6,1.2,100.0,1.0,0.18,0.01500485844659849,0.2,1.0,-160.0,0,0,calibrating,0,0,0,0,0,0.0
2.1602947480000694,218,1085.46,93.2,2.1,-92.2,-0.44,-2.1,-0.15,0.2,0.99,-0.09,-106.5,12.5,-37.0,-1.62,-0.25,0.11,0.0,1.0140019723846694,2.150837046361253,0.0,0.0,2.0,0.6,1.2,100.0,1.0,0.18,0.005773120738010951,0.2,1.0,-160.0,0,0,calibrating,0,0,0,0,0,0.0
2.1682074520001606,219,1085.47,93.2,2.1,-92.0,-0.16,-1.61,0.09,0.16,1.02,-0.07,-106.4,4.7,-82.0,-1.62,0.03,0.1,0.0,1.034842983258813,1.6204320411544573,0.0,0.0,2.0,0.6,1.2,100.0,1.0,0.18,0.014766532333410076,0.2,1.0,-160.0,0,0,calibrating,0,0,0,0,0,0.0
2.180440077999947,220,1085.48,93.2,2.2,-91.9,0.03,-1.31,0.38,0.12,1.06,-0.06,-106.4,-3.0,-51.0,-1.62,0.08,-0.2,0.0,1.0684568311354465,1.364331338055386,0.0,0.0,2.0,0.6,1.2,100.0,1.0,0.18,0.047412772605842646,0.2,1.0,-160.0,0,0,calibrating,0,0,0,0,0,0.0
2.1883662810000715,221,1085.49,93.2,2.2,-91.8,0.02,-1.16,0.66,0.09,1.07,-0.06,-106.4,-2.5,-5.0,-1.62,0.02,-0.2,0.0,1.0754533927604673,1.3347658970770866,0.0,0.0,2.0,0.6,1.2,100.0,1.0,0.18,0.05332114754624606,0.2,1.0,-160.0,0,0,calibrating,0,0,0,0,0,0.0
2.200319398000147,222,1085.5,93.2,2.3,-91.7,-0.17,-1.13,0.87,0.07,1.06,-0.06,-106.4,-0.7,-2.0,-1.62,0.03,-0.13,0.0,1.0640018796975879,1.4362102910089454,0.0,0.0,2.0,0.6,1.2,100.0,1.0,0.18,0.04103224179369924,0.2,1.0,-160.0,0,0,calibrating,0,0,0,0,0,0.0
2.208466948000023,223,1085.51,93.2,2.4,-91.5,-0.47,-1.16,0.99,0.06,1.05,-0.06,-106.5,-3.4,-28.0,-1.62,0.16,0.02,0.0,1.0534229919647664,1.5958070058750837,0.0,0.0,2.0,0.6,1.2,100.0,1.0,0.18,0.02984428697966024,0.2,1.0,-160.0,0,0,calibrating,0,0,0,0,0,0.0
2.220304295999995,224,1085.52,93.1,2.5,-91.4,-0.65,-1.19,1.03,0.05,1.02,-0.06,-106.5,-8.8,-49.0,-1.62,0.32,0.13,0.0,1.022985825903761,1.7027918252094116,0.0,0.0,2.0,0.6,1.2,100.0,1.0,0.18,0.0005810214997183927,0.2,1.0,-160.0,0,0,calibrating,0,0,0,0,0,0.0
2.2284548899999663,225,1085.53,93.1,2.6,-91.3,-0.71,-1.21,0.98,0.06,1.01,-0.07,-106.7,-17.3,-75.0,-1.61,0.57,0.06,0.0,1.0141991914806479,1.7113152836341992,0.0,0.0,2.0,0.6,1.2,100.0,1.0,0.18,0.009180302804374874,0.2,1.0,-160.0,0,0,calibrating,0,0,0,0,0,0.0
2.2402996490000078,226,1085.54,93.0,2.7,-91.2,-0.72,-1.2,0.91,0.09,1.01,-0.08,-106.9,-24.5,-62.0,-1.61,0.71,-0.14,0.0,1.017152889196113,1.6692812824685959,0.0,0.0,2.0,0.6,1.2,100.0,1.0,0.18,0.006102072987131502,0.2,1.0,-160.0,0,0,calibrating,0,0,0,0,0,0.0
2.2484075190000112,227,1085.55,93.0,2.9,-91.0,-0.8,-1.14,0.85,0.11,1.02,-0.09,-107.2,-31.4,-71.0,-1.6,0.93,0.01,0.0,1.0298543586352393,1.6315943123215402,0.0,0.0,2.0,0.6,1.2,100.0,1.0,0.18,0.0064674085229550204,0.2,1.0,-160.0,0,0,calibrating,0,0,0,0,0,0.0
2.2603483460000007,228,1085.56,92.9,3.0,-90.9,-0.92,-1.02,0.86,0.12,1.02,-0.11,-107.5,-35.9,-51.0,-1.59,1.03,-0.1,0.0,1.0329085148259742,1.6206171663906315,0.0,0.0,2.0,0.6,1.2,100.0,1.0,0.18,0.00933113341941616,0.2,1.0,-160.0,0,0,calibrating,0,0,0,0,0,0.0
2.2682519899999534,229,1085.57,92.9,3.1,-90.8,-1.0,-0.88,0.94,0.12,1.0,-0.12,-107.9,-42.2,-62.0,-1.58,1.22,0.12,0.0,1.0142977866484773,1.6303373883954204,0.0,0.0,2.0,0.6,1.2,100.0,1.0,0.18,0.00909400286291917,0.2,1.0,-160.0,0,0,calibrating,0,0,0,0,0,0.0
2.2803269710000222,230,1085.58,92.8,3.2,-90.7,-0.99,-0.74,1.04,0.12,0.99,-0.13,-108.4,-49.7,-74.0,-1.56,1.44,-0.01,0.0,1.00568384694197,1.61533278305122,0.0,0.0,2.0,0.6,1.2,100.0,1.0,0.18,0.017353783718037752,0.2,1.0,-160.0,0,0,calibrating,0,0,0,0,0,0.0
2.288354383000069,231,1085.59,92.7,3.3,-90.7,-1.03,-0.61,1.2,0.12,0.97,-0.13,-109.0,-55.8,-53.0,-1.55,1.55,-0.14,0.0,0.9860020283954795,1.6949926253526886,0.0,0.0,2.0,0.6,1.2,100.0,1.0,0.18,0.03629489021923804,0.2,1.0,-160.0,0,0,calibrating,0,0,0,0,0,0.0
2.2999702429999616,232,1085.6,92.6,3.4,-90.6,-1.02,-0.49,1.31,0.12,0.94,-0.14,-109.5,-60.9,-57.0,-1.53,1.73,0.29,0.0,0.9579144011862437,1.731069033863179,0.0,0.0,2.0,0.6,1.2,100.0,1.0,0.18,0.0630948670799043,0.2,1.0,-160.0,0,0,calibrating,0,0,0,0,0,0.0
2.307987553999965,233,1085.61,92.5,3.6,-90.5,-0.97,-0.41,1.37,0.13,0.92,-0.15,-110.2,-65.9,-44.0,-1.51,1.83,-0.12,0.0,0.9411694852681954,1.7279756942735045,0.0,0.0,2.0,0.6,1.2,100.0,1.0,0.18,0.07824298733799362,0.2,1.0,-160.0,0,0,calibrating,0,0,0,0,0,0.0
2.319945192999967,234,1085.62,92.4,3.7,-90.5,-0.94,-0.32,1.38,0.15,0.91,-0.16,-110.9,-69.8,-43.0,-1.49,1.93,-0.02,0.0,0.9360555539069249,1.7001176429882727,0.0,0.0,2.0,0.6,1.2,100.0,1.0,0.18,0.08168978032527885,0.2,1.0,-160.0,0,0,calibrating,0,0,0,0,0,0.0
2.3284549080001398,235,1085.63,92.3,3.8,-90.5,-0.98,-0.2,1.36,0.17,0.89,-0.16,-111.6,-71.4,-12.0,-1.47,1.93,0.18,0.0,0.9201086892318755,1.6881943016134133,0.0,0.0,2.0,0.6,1.2,100.0,1.0,0.18,0.09568391210032168,0.2,1.0,-160.0,0,0,calibrating,0,0,0,0,0,0.0
2.340324942000052,236,1085.64,92.2,4.0,-90.5,-1.07,-0.06,1.27,0.18,0.86,-0.17,-112.3,-71.0,-6.0,-1.45,1.93,0.01,0.0,0.8949301648732151,1.6617460696508357,0.0,0.0,2.0,0.6,1.2,100.0,1.0,0.18,0.1184451877298025,0.2,1.0,-160.0,0,0,calibrating,0,0,0,0,0,0.0
2.348474400999976,237,1085.65,92.1,4.1,-90.4,-1.2,0.06,1.08,0.19,0.82,-0.17,-113.0,-69.1,18.0,-1.44,1.83,0.04,0.0,0.8587199776411399,1.6155494421403513,0.0,0.0,2.0,0.6,1.2,100.0,1.0,0.18,0.15156226746264012,0.2,1.0,-160.0,0,0,calibrating,0,0,0,0,0,0.0
2.3602785949999543,238,1085.66,91.9,4.2,-90.5,-1.38,0.23,0.81,0.2,0.78,-0.18,-113.7,-66.7,20.0,-1.42,1.78,-0.02,0.0,0.8251060537894508,1.6166013732519218,0.0,0.0,2.0,0.6,1.2,100.0,1.0,0.18,0.1814726674880427,0.2,1.0,-160.0,0,0,calibrating,0,0,0,0,0,0.0
2.3683270270000776,239,1085.67,91.8,4.2,-90.5,-1.51,0.41,0.46,0.21,0.74,-0.19,-114.3,-61.0,60.0,-1.4,1.54,0.19,0.0,0.7923383115816123,1.6308893279434995,0.0,0.0,2.0,0.6,1.2,100.0,1.0,0.18,0.2099556015019638,0.2,1.0,-160.0,0,0,calibrating,0,0,0,0,0,0.0
2.3802602600001137,240,1085.68,91.6,4.3,-90.5,-1.57,0.61,0.07,0.22,0.7,-0.2,-114.9,-51.0,86.0,-1.39,1.27,0.02,0.0,0.7605261336732617,1.6857935816700693,0.0,0.0,2.0,0.6,1.2,100.0,1.0,0.18,0.236932423822108,0.2,1.0,-160.0,0,0,calibrating,0,0,0,0,0,0.0
2.3882596690000355,241,1085.69,91.5,4.3,-90.6,-1.41,0.91,-0.26,0.22,0.7,-0.2,-115.3,-42.4,75.0,-1.38,1.08,0.04,0.0,0.7605261336732617,1.6981754915202374,0.0,0.0,2.0,0.6,1.2,100.0,1.0,0.18,0.23219377534566588,0.2,1.0,-160.0,0,0,calibrating,0,0,0,0,0,0.0
2.4003716619999977,242,1085.7,91.4,4.2,-90.7,-0.94,1.26,-0.46,0.21,0.73,-0.22,-115.7,-34.1,91.0,-1.37,0.8,-0.17,0.0,0.7908223567907018,1.6379255172320872,0.0,0.0,2.0,0.6,1.2,100.0,1.0,0.18,0.1978596011836613,0.2,1.0,-160.0,0,0,calibrating,0,0,0,0,0,0.0
2.408378741999968,243,1085.71,91.3,4.2,-90.9,-0.31,1.59,-0.52,0.19,0.79,-0.2,-116.0,-25.9,75.0,-1.36,0.63,-0.03,0.0,0.8367795408588813,1.7013524032369074,0.0,0.0,2.0,0.6,1.2,100.0,1.0,0.18,0.14886436877317222,0.2,1.0,-160.0,0,0,calibrating,0,0,0,0,0,0.0
2.4203381419999914,244,1085.72,91.3,4.1,-91.1,0.04,1.78,-0.52,0.16,0.85,-0.18,-116.2,-19.6,57.0,-1.36,0.51,0.2,0.0,0.8834591105421914,1.8548315287378527,0.0,0.0,2.0,0.6,1.2,100.0,1.0,0.18,0.1001411031080649,0.2,1.0,-160.0,0,0,calibrating,0,0,0,0,0,0.0
2.4324597900001663,245,1085.73,91.3,4.1,-91.2,0.1,1.87,-0.62,0.14,0.87,-0.18,-116.4,-18.7,20.0,-1.35,0.5,0.07,0.0,0.8993886812718959,1.9726378278842776,0.0,0.0,2.0,0.6,1.2,100.0,1.0,0.18,0.08252730173079315,0.2,1.0,-160.0,0,0,calibrating,0,0,0,0,0,0.0
2.4404686160000892,246,1085.74,91.2,4.0,-91.4,-0.05,2.0,-0.78,0.12,0.87,-0.19,-116.5,-16.1,36.0,-1.35,0.38,0.02,0.0,0.8985543945694106,2.1473006310249154,0.0,0.0,2.0,0.6,1.2,100.0,1.0,0.18,0.081694356664613,0.2,1.0,-160.0,0,0,calibrating,0,0,0,0,0,0.0
2.4484973890000674,247,1085.75,91.2,3.9,-91.6,-0.06,2.11,-0.92,0.1,0.85,-0.18,-116.7,-14.6,-6.0,-1.34,0.47,-0.07,0.0,0.8745856161634491,2.302628932329306,0.0,0.0,2.0,0.6,1.2,100.0,1.0,0.18,0.10354987236916302,0.2,1.0,-160.0,0,0,calibrating,0,0,0,0,0,0.0
2.460368568000149,248,1085.76,91.2,3.8,-91.9,0.21,2.14,-0.92,0.09,0.86,-0.15,-116.9,-22.1,-60.0,-1.34,0.71,0.12,0.0,0.8776103919165952,2.338824491063834,0.0,0.0,2.0,0.6,1.2,100.0,1.0,0.18,0.09851459468369661,0.2,1.0,-160.0,0,0,calibrating,0,0,0,0,0,0.0
2.4683622320001177,249,1085.77,91.3,3.8,-92.1,0.66,2.02,-0.73,0.07,0.89,-0.11,-117.2,-32.9,-104.0,-1.33,1.07,-0.04,0.0,0.899499861033897,2.2469757453074566,0.0,0.0,2.0,0.6,1.2,100.0,1.0,0.18,0.07509262305506692,0.2,1.0,-160.0,0,0,calibrating,0,0,0,0,0,0.0
2.480343300999948,250,1085.78,91.4,3.7,-92.3,1.13,1.78,-0.45,0.05,0.92,-0.08,-117.6,-47.4,-137.0,-1.31,1.48,0.0,0.0,0.9248243076390239,2.155875692149248,0.0,0.0,2.0,0.6,1.2,100.0,1.0,0.18,0.048772812920941155,0.2,1.0,-160.0,0,0,calibrating,0,0,0,0,0,0.0
2.4883557640000618,251,1085.79,91.5,3.7,-92.4,1.42,1.41,-0.21,0.02,0.95,-0.07,-118.2,-65.8,-181.0,-1.29,2.06,-0.09,0.0,0.9527853903162034,2.01211331688849,0.0,0.0,2.0,0.6,1.2,100.0,1.0,0.18,0.02039549563888654,0.2,1.0,-160.0,0,0,calibrating,0,0,0,0,0,0.0
2.500339943999961,252,1085.8,91.7,3.6,-92.5,1.47,0.93,-0.04,0.0,0.99,-0.05,-119.0,-88.6,-213.0,-1.27,2.69,0.15,0.0,0.9912618221237011,1.7399425277864782,0.0,0.0,2.0,0.6,1.2,100.0,1.0,0.18,0.017719317445238913,0.2,1.0,-160.0,0,0,calibrating,0,0,0,0,0,0.0
2.508470691999946,253,1085.81,91.9,3.6,-92.6,1.19,0.31,0.03,-0.02,0.98,-0.08,-120.0,-111.5,-223.0,-1.24,3.31,0.0,0.0,0.9834632682515396,1.230081298126266,0.0,0.0,2.0,0.6,1.2,100.0,1.0,0.18,0.009722348301616002,0.2,1.0,-160.0,0,0,calibrating,0,0,0,0,0,0.0
2.5203038600000127,254,1085.82,92.0,3.6,-92.6,0.77,-0.23,-0.08,0.0,0.93,-0.17,-121.3,-134.9,-234.0,-1.2,3.95,0.1,0.0,0.9454099639838794,0.8075890043827986,0.0,0.0,2.0,0.6,1.2,100.0,1.0,0.18,0.027764336846723414,0.2,1.0,-160.0,0,0,calibrating,0,0,0,0,0,0.0
2.528480721000051,255,1085.83,92.0,3.6,-92.6,0.58,-0.5,-0.26,0.06,0.95,-0.27,-122.8,-157.8,-226.0,-1.16,4.56,0.2,0.0,0.9894442884771228,0.8087026647662292,0.0,0.0,2.0,0.6,1.2,100.0,1.0,0.18,0.015944587893589546,0.2,1.0,-160.0,0,0,calibrating,0,0,0,0,0,0.0
2.540423864000104,256,1085.84,92.1,3.5,-92.5,0.79,-0.36,-0.09,0.14,1.07,-0.29,-124.6,-181.2,-234.0,-1.11,5.21,0.18,0.0,1.1174077143102243,0.8728115489611719,0.0,0.0,2.0,0.6,1.2,100.0,1.0,0.18,0.14102985345215724,0.2,1.0,-160.0,0,0,calibrating,0,0,0,0,0,0.0
2.5484780799999953,257,1085.85,92.2,3.6,-92.5,1.38,0.08,0.32,0.19,1.15,-0.3,-126.5,-204.4,-228.0,-1.05,5.82,0.11,0.0,1.203577999134248,1.4188727920430357,0.0,0.0,2.0,0.6,1.2,100.0,1.0,0.18,0.22265613551065722,0.2,1.0,-160.0,0,0,calibrating,0,0,0,0,0,0.0
2.560297392000166,258,1085.86,92.4,3.6,-92.5,1.95,0.72,1.01,0.23,1.29,-0.26,-128.7,-225.6,-211.0,-0.99,6.37,0.06,0.0,1.3358892169637422,2.311060362690685,0.0,0.0,2.0,0.6,1.2,100.0,1.0,0.18,0.34786800627334846,0.2,1.0,-160.0,0,0,calibrating,0,0,0,0,0,0.0
2.5683356510000976,259,1085.87,92.6,3.8,-92.6,2.03,1.37,1.81,0.23,1.29,-0.26,-131.1,-247.1,-226.0,-0.92,7.02,0.08,0.0,1.3358892169637422,3.0453078662099173,0.0,0.0,2.0,0.6,1.2,100.0,1.0,0.18,0.34091064614788147,0.2,1.0,-160.0,0,0,calibrating,0,0,0,0,0,0.0
2.5803393820001475,260,1085.88,92.8,4.0,-92.8,2.09,1.52,2.22,0.25,1.22,-0.28,-133.8,-273.2,-251.0,-0.84,7.75,0.13,0.0,1.2764403628842202,3.4068900774753503,0.0,0.0,2.0,0.6,1.2,100.0,1.0,0.18,0.2758325562269923,0.2,1.0,-160.0,0,0,calibrating,0,0,0,0,0,0.0
2.5883380810000745,261,1085.89,93.0,4.2,-92.9,1.85,1.53,2.4,0.28,1.18,-0.26,-136.7,-296.6,-225.0,-0.76,8.3,0.25,0.0,1.2403225386970922,3.3946133800478666,0.0,0.0,2.0,0.6,1.2,100.0,1.0,0.18,0.23492043739906698,0.2,1.0,-160.0,0,0,calibrating,0,0,0,0,0,0.0
2.600463274000049,262,1085.9,93.1,4.5,-93.1,1.31,1.54,2.38,0.29,1.15,-0.24,-139.8,-315.4,-200.0,-0.68,8.81,0.08,0.0,1.2100413216084813,3.1228352502173404,0.0,0.0,2.0,0.6,1.2,100.0,1.0,0.18,0.2005464359042468,0.2,1.0,-160.0,0,0,calibrating,0,0,0,0,0,0.0
2.6082592740001473,263,1085.91,93.2,4.7,-93.2,1.04,1.65,2.33,0.28,1.22,-0.17,-143.1,-335.4,-196.0,-0.58,9.34,-0.07,0.0,1.263210196285638,3.0385851970942004,0.0,0.0,2.0,0.6,1.2,100.0,1.0,0.18,0.24864100436977554,0.2,1.0,-160.0,0,0,calibrating,0,0,0,0,0,0.0
2.6202357629999824,264,1085.92,93.3,5.0,-93.4,1.1,1.87,2.36,0.25,1.31,-0.09,-146.5,-346.6,-100.0,-0.49,9.43,-0.01,0.0,1.336674979192773,3.205698051906948,0.0,0.0,2.0,0.6,1.2,100.0,1.0,0.18,0.31566367153137254,0.2,1.0,-160.0,0,0,calibrating,0,0,0,0,0,0.0
2.6284696080001595,265,1085.93,93.4,5.3,-93.6,1.12,2.17,2.33,0.2,1.35,-0.08,-150.0,-347.5,-39.0,-0.4,9.46,-0.01,0.0,1.3670771741200276,3.3752333252680473,0.0,0.0,2.0,0.6,1.2,100.0,1.0,0.18,0.3391445491294547,0.2,1.0,-160.0,0,0,calibrating,0,0,0,0,0,0.0
2.640359083000021,266,1085.94,93.5,5.5,-93.8,0.88,2.55,2.07,0.14,1.35,-0.04,-153.5,-347.6,-5.0,-0.3,9.42,-0.03,0.0,1.3578291497828439,3.4002646955788602,0.0,0.0,2.0,0.6,1.2,100.0,1.0,0.18,0.3232985942964255,0.2,1.0,-160.0,0,0,calibrating,0,0,0,0,0,0.0
2.6484287350001523,267,1085.95,93.5,5.7,-94.0,0.34,2.7,1.81,0.11,1.37,0.0,-156.9,-344.6,22.0,-0.21,9.32,-0.19,0.0,1.3744089638822938,3.268287013100288,0.0,0.0,2.0,0.6,1.2,100.0,1.0,0.18,0.3330808402279579,0.2,1.0,-160.0,0,0,calibrating,0,0,0,0,0,0.0
2.6603071240001555,268,1085.96,93.4,5.9,-94.3,-0.1,2.71,1.69,0.1,1.31,0.04,-160.4,-342.2,20.0,-0.11,9.27,0.0,0.0,1.31442002419318,3.1953403574580284,0.0,0.0,2.0,0.6,1.2,100.0,1.0,0.18,0.2676300625280672,0.2,1.0,-160.0,0,0,calibrating,0,0,0,0,0,0.0
2.668259813000077,269,1085.97,93.3,6.1,-94.6,-0.11,2.49,1.49,0.11,1.24,0.05,-163.8,-336.7,67.0,-0.02,9.01,0.14,0.0,1.2458731877683218,2.9038422822185095,0.0,0.0,2.0,0.6,1.2,100.0,1.0,0.18,0.19510156158114467,0.2,1.0,-160.0,0,0,calibrating,0,0,0,0,0,0.0
2.6803343430001405,270,1085.98,93.2,6.2,-94.8,-0.25,2.42,1.16,0.16,1.17,0.04,-167.0,-326.0,74.0,0.05,8.81,-0.16,0.0,1.1815667564721004,2.695273641024228,0.0,0.0,2.0,0.6,1.2,100.0,1.0,0.18,0.12817922767922485,0.2,1.0,-160.0,0,0,calibrating,0,0,0,0,0,0.0
2.688381298999957,271,1085.99,93.1,6.4,-95.1,-0.52,2.6,0.71,0.19,1.12,0.03,-170.3,-324.6,27.0,0.14,8.8,0.02,0.0,1.1363978176677392,2.7449043699189235,0.0,0.0,2.0,0.6,1.2,100.0,1.0,0.18,0.08135008309736635,0.2,1.0,-160.0,0,0,calibrating,0,0,0,0,0,0.0
2.7002899890001117,272,1086.0,93.0,6.4,-95.3,-0.85,3.08,0.28,0.2,1.06,0.05,-172.4,-321.8,71.0,0.23,8.52,0.01,0.0,1.0798611021793498,3.2073821100704545,0.0,0.0,2.0,0.6,1.2,100.0,1.0,0.18,0.024317100256797453,0.2,1.0,-160.0,0,0,calibrating,0,0,0,0,0,0.0
2.7124137030000384,273,1086.01,92.9,6.4,-95.7,-1.17,3.61,-0.02,0.19,1.0,0.08,-176.6,-310.1,77.0,0.31,8.36,0.03,0.0,1.0210288928331068,3.794917653915563,0.0,0.0,2.0,0.6,1.2,100.0,1.0,0.18,0.033824806907656546,0.2,1.0,-160.0,0,0,calibrating,0,0,0,0,0,0.0
2.720351067000138,274,1086.02,92.7,6.5,-96.1,-1.44,4.12,-0.12,0.14,0.94,0.1,-179.7,-309.2,15.0,0.4,8.43,0.0,0.0,0.9556149852320232,4.36605084716154,0.0,0.0,2.0,0.6,1.2,100.0,1.0,0.18,0.09725394021856537,0.2,1.0,-160.0,0,0,calibrating,0,0,0,0,0,0.0
2.728524530999948,275,1086.03,92.5,6.5,-96.5,-1.47,4.48,-0.1,0.04,0.87,0.14,-182.8,-308.9,31.0,0.48,8.31,0.06,0.0,0.8820997676000147,4.716068277707608,0.0,0.0,2.0,0.6,1.2,100.0,1.0,0.18,0.16735377469356238,0.2,1.0,-160.0,0,0,calibrating,0,0,0,0,0,0.0
2.740098896000063,276,1086.04,92.3,6.5,-97.0,-1.26,4.61,-0.02,0.0,0.83,0.17,-185.8,-300.4,78.0,0.56,8.02,-0.03,0.0,0.8472307831990054,4.779131720302339,0.0,0.0,2.0,0.6,1.2,100.0,1.0,0.18,0.19817830391268032,0.2,1.0,-160.0,0,0,calibrating,0,0,0,0,0,0.0
2.748485612999957,277,1086.05,92.1,6.5,-97.4,-0.98,4.55,0.09,-0.02,0.82,0.17,-188.8,-286.4,137.0,0.64,7.55,-0.16,0.0,0.8376753547765386,4.655212132653032,0.0,0.0,2.0,0.6,1.2,100.0,1.0,0.18,0.2035790576884441,0.2,1.0,-160.0,0,0,calibrating,0,0,0,0,0,0.0
2.7603097050000542,278,1086.06,92.0,6.5,-97.9,-0.79,4.36,0.22,0.0,0.81,0.18,-191.5,-264.7,212.0,0.71,6.85,-0.02,0.0,0.8297590011563599,4.436451284529111,0.0,0.0,2.0,0.6,1.2,100.0,1.0,0.18,0.2072655030824503,0.2,1.0,-160.0,0,0,calibrating,0,0,0,0,0,0.0
2.7683384490001117,279,1086.07,91.9,6.6,-98.3,-0.58,4.06,0.32,0.01,0.82,0.19,-193.9,-232.9,301.0,0.77,5.88,-0.3,0.0,0.8417838202293982,4.11368447987932,0.0,0.0,2.0,0.6,1.2,100.0,1.0,0.18,0.19133587032922372,0.2,1.0,-160.0,0,0,calibrating,0,0,0,0,0,0.0
2.7803126700000576,280,1086.08,91.8,6.6,-98.7,-0.23,3.71,0.39,0.04,0.84,0.18,-196.0,-195.6,355.0,0.82,4.84,-0.11,0.0,0.86,3.7375259196425645,0.0,0.0,2.0,0.6,1.2,100.0,1.0,0.18,0.16965729674744956,0.2,1.0,-160.0,0,0,calibrating,0,0,0,0,0,0.0
2.7883783920001406,281,1086.09,91.8,6.7,-99.0,0.14,3.38,0.31,0.03,0.86,0.14,-197.7,-154.2,407.0,0.86,3.63,-0.11,0.0,0.8718371407550839,3.397072268880955,0.0,0.0,2.0,0.6,1.2,100.0,1.0,0.18,0.15466375287251843,0.2,1.0,-160.0,0,0,calibrating,0,0,0,0,0,0.0
2.800513649000095,282,1086.1,91.8,6.7,-99.4,0.45,3.11,0.09,0.01,0.89,0.13,-198.9,-108.8,445.0,0.89,2.37,-0.17,0.0,0.899499861033897,3.143676191976521,0.0,0.0,2.0,0.6,1.2,100.0,1.0,0.18,0.12446101194183112,0.2,1.0,-160.0,0,0,calibrating,0,0,0,0,0,0.0
2.808160454000017,283,1086.11,91.8,6.7,-99.7,0.63,2.83,-0.22,-0.01,0.92,0.12,-199.6,-61.1,468.0,0.91,1.06,-0.15,0.0,0.9278469701410896,2.907610702965581,0.0,0.0,2.0,0.6,1.2,100.0,1.0,0.18,0.09419162477794574,0.2,1.0,-160.0,0,0,calibrating,0,0,0,0,0,0.0
2.8203179060001276,284,1086.12,91.8,6.7,-99.9,0.55,2.5,-0.56,-0.04,0.93,0.1,-199.9,-14.3,457.0,0.91,-0.13,-0.04,0.0,0.9362157870918436,2.6203244073969163,0.0,0.0,2.0,0.6,1.2,100.0,1.0,0.18,0.08410635167064784,0.2,1.0,-160.0,0,0,calibrating,0,0,0,0,0,0.0
2.8283412590001262,285,1086.13,91.8,6.6,-100.2,0.22,2.18,-0.85,-0.07,0.93,0.07,-199.8,22.2,358.0,0.9,-0.95,0.02,0.0,0.9352539762011173,2.350170206602067,0.0,0.0,2.0,0.6,1.2,100.0,1.0,0.18,0.08336679931014668,0.2,1.0,-160.0,0,0,calibrating,0,0,0,0,0,0.0
2.8402316609999616,286,1086.14,91.8,6.5,-100.4,-0.17,1.88,-1.02,-0.08,0.91,0.06,-199.4,48.2,287.0,0.89,-1.62,-0.05,0.0,0.9154780172128657,2.145623452519104,0.0,0.0,2.0,0.6,1.2,100.0,1.0,0.18,0.1010799031324302,0.2,1.0,-160.0,0,0,calibrating,0,0,0,0,0,0.0
2.8483714900000905,287,1086.15,91.7,6.4,-100.6,-0.47,1.63,-1.08,-0.07,0.89,0.05,-198.8,71.6,247.0,0.87,-2.22,-0.1,0.0,0.8941476388158726,2.011019641873246,0.0,0.0,2.0,0.6,1.2,100.0,1.0,0.18,0.11996207589883479,0.2,1.0,-160.0,0,0,calibrating,0,0,0,0,0,0.0
2.8604293850000886,288,1086.16,91.7,6.3,-100.7,-0.63,1.42,-1.01,-0.05,0.89,0.05,-197.9,94.6,241.0,0.84,-2.86,-0.04,0.0,0.8928045698807774,1.8529436041067195,0.0,0.0,2.0,0.6,1.2,100.0,1.0,0.18,0.1188790419372513,0.2,1.0,-160.0,0,0,calibrating,0,0,0,0,0,0.0
2.8684061799999654,289,1086.17,91.6,6.2,-100.9,-0.73,1.28,-0.85,-0.03,0.9,0.04,-196.8,116.7,223.0,0.81,-3.44,-0.02,0.0,0.9013878188659974,1.7011172799075318,0.0,0.0,2.0,0.6,1.2,100.0,1.0,0.18,0.1080898770929909,0.2,1.0,-160.0,0,0,calibrating,0,0,0,0,0,0.0
2.8803951009999764,290,1086.18,91.5,6.2,-101.0,-0.88,1.16,-0.62,0.0,0.93,0.04,-195.5,138.8,224.0,0.77,-4.05,-0.14,0.0,0.9308598175880191,1.5825296205758677,0.0,0.0,2.0,0.6,1.2,100.0,1.0,0.18,0.07704552080354976,0.2,1.0,-160.0,0,0,calibrating,0,0,0,0,0,0.0
2.892299353999988,291,1086.19,91.4,6.1,-101.1,-1.07,1.08,-0.37,0.01,0.96,0.04,-193.9,162.8,236.0,0.72,-4.71,-0.11,0.0,0.9608850087289321,1.5646724896923316,0.0,0.0,2.0,0.6,1.2,100.0,1.0,0.18,0.04607992306938391,0.2,1.0,-160.0,0,0,calibrating,0,0,0,0,0,0.0
2.9004939139999806,292,1086.2,91.3,6.1,-101.2,-1.21,0.96,-0.21,0.02,0.98,0.03,-192.1,186.0,232.0,0.67,-5.34,0.08,0.0,0.9806630410084801,1.5587815754620657,0.0,0.0,2.0,0.6,1.2,100.0,1.0,0.18,0.02577585297403917,0.2,1.0,-160.0,0,0,calibrating,0,0,0,0,0,0.0
2.9080833750001602,293,1086.21,91.1,6.0,-101.3,-1.31,0.84,-0.14,0.02,0.99,0.03,-190.1,208.8,228.0,0.62,-5.95,-0.11,0.0,0.9906563480844404,1.562465999630072,0.0,0.0,2.0,0.6,1.2,100.0,1.0,0.18,0.01546689498011733,0.2,1.0,-160.0,0,0,calibrating,0,0,0,0,0,0.0
2.92034151200005,294,1086.22,90.9,6.0,-101.4,-1.39,0.77,-0.19,0.02,0.99,0.01,-187.8,232.5,227.0,0.55,-6.58,-0.19,0.0,0.9902524930541705,1.6003437130816616,0.0,0.0,2.0,0.6,1.2,100.0,1.0,0.18,0.015553335010179525,0.2,1.0,-160.0,0,0,calibrating,0,0,0,0,0,0.0
2.9285009870000067,295,1086.23,90.8,5.9,-101.4,-1.35,0.56,-0.29,0.01,0.99,0.01,-185.4,253.6,220.0,0.48,-7.17,-0.03,0.0,0.990101004948485,1.4900335566691107,0.0,0.0,2.0,0.6,1.2,100.0,1.0,0.18,0.015390726653547682,0.2,1.0,-160.0,0,0,calibrating,0,0,0,0,0,0.0
2.9401906220000456,296,1086.24,90.6,5.8,-101.5,-1.42,0.44,-0.44,0.0,0.99,0.0,-182.7,278.1,247.0,0.4,-7.88,-0.08,0.0,0.99,1.5503547981026795,0.0,0.0,2.0,0.6,1.2,100.0,1.0,0.18,0.015181896969991948,0.2,1.0,-160.0,0,0,calibrating,0,0,0,0,0,0.0
2.948017481000079,297,1086.25,90.4,5.7,-101.5,-1.4,0.27,-0.57,0.0,0.97,0.0,-179.7,302.4,226.0,0.32,-8.46,-0.12,0.0,0.97,1.5355129436120034,0.0,0.0,2.0,0.6,1.2,100.0,1.0,0.18,0.034478259030592096,0.2,1.0,-160.0,0,0,calibrating,0,0,0,0,0,0.0
2.959997297999962,298,1086.26,90.3,5.6,-101.5,-1.26,0.06,-0.68,0.0,0.96,0.0,-176.6,320.9,200.0,0.23,-8.97,-0.12,0.0,0.96,1.4330387294138287,0.0,0.0,2.0,0.6,1.2,100.0,1.0,0.18,0.04358869384998032,0.2,1.0,-160.0,0,0,calibrating,0,0,0,0,0,0.0
2.9679309350001404,299,1086.27,90.2,5.5,-101.5,-1.01,-0.13,-0.72,0.01,0.94,0.0,-173.2,343.0,225.0,0.14,-9.62,0.0,0.0,0.9400531899844816,1.247156766409099,0.0,0.0,2.0,0.6,1.2,100.0,1.0,0.18,0.06226479378818872,0.2,1.0,-160.0,0,0,calibrating,0,0,0,0,0,0.0
2.980056852999951,300,1086.28,90.1,5.3,-101.5,-0.67,-0.27,-0.71,0.02,0.92,-0.02,-169.6,364.6,194.0,0.04,-10.1,-0.12,0.0,0.920434679920308,1.0128672173587216,0.0,0.0,2.0,0.6,1.2,100.0,1.0,0.18,0.08024563777531502,0.2,1.0,-160.0,0,0,calibrating,0,0,0,0,0,0.0
2.992152679000128,301,1086.29,90.1,5.2,-101.5,-0.26,-0.37,-0.66,0.02,0.92,-0.05,-165.9,381.0,200.0,-0.05,-10.66,-0.15,0.0,0.9215747392371386,0.8000624975587846,0.0,0.0,2.0,0.6,1.2,100.0,1.0,0.18,0.07752346688931488,0.2,1.0,-160.0,0,0,calibrating,0,0,0,0,0,0.0
2.9999216359999537,302,1086.3,90.1,5.1,-101.4,0.08,-0.4,-0.56,0.03,0.93,-0.07,-161.9,407.9,239.0,-0.17,-11.36,-0.14,0.0,0.9331130692472377,0.692820323027551,0.0,0.0,2.0,0.6,1.2,100.0,1.0,0.18,0.0646654341416315,0.2,1.0,-160.0,0,0,calibrating,0,0,0,0,0,0.0
3.0081705249999686,303,1086.31,90.2,5.1,-101.4,0.33,-0.45,-0.47,0.05,0.94,-0.09,-157.7,425.8,181.0,-0.28,-11.76,-0.08,0.0,0.945621488757526,0.7295889253545451,0.0,0.0,2.0,0.6,1.2,100.0,1.0,0.18,0.05111387433871628,0.2,1.0,-160.0,0,0,calibrating,0,0,0,0,0,0.0
3.0200211070000478,304,1086.32,90.3,5.0,-101.3,0.45,-0.47,-0.36,0.07,0.96,-0.11,-153.3,443.6,197.0,-0.4,-12.33,-0.15,0.0,0.9688137075826291,0.7436396977031282,0.0,0.0,2.0,0.6,1.2,100.0,1.0,0.18,0.027363222403340992,0.2,1.0,-160.0,0,0,calibrating,0,0,0,0,0,0.0
3.0281356200000573,305,1086.33,90.4,5.0,-101.3,0.42,-0.45,-0.28,0.09,0.97,-0.13,-148.7,464.0,211.0,-0.53,-12.92,0.01,0.0,0.9828021163998376,0.6762396025078685,0.0,0.0,2.0,0.6,1.2,100.0,1.0,0.18,0.013107317314409839,0.2,1.0,-160.0,0,0,calibrating,0,0,0,0,0,0.0
3.0401619350000146,306,1086.34,90.5,5.0,-101.2,0.19,-0.38,-0.2,0.09,0.97,-0.13,-143.9,492.0,251.0,-0.67,-13.65,-0.11,0.0,0.9828021163998376,0.4695742752749558,0.0,0.0,2.0,0.6,1.2,100.0,1.0,0.18,0.012845170968121655,0.2,1.0,-160.0,0,0,calibrating,0,0,0,0,0,0.0
3.0520253390000107,307,1086.35,90.6,4.9,-101.2,-0.01,-0.27,-0.12,0.08,0.96,-0.13,-138.8,510.5,208.0,-0.81,-14.15,0.14,0.0,0.97205966895042,0.2956349099818897,0.0,0.0,2.0,0.6,1.2,100.0,1.0,0.18,0.023115866049188583,0.2,1.0,-160.0,0,0,calibrating,0,0,0,0,0,0.0
3.063858165000056,308,1086.36,90.7,4.9,-101.2,-0.13,-0.21,-0.04,0.07,0.94,-0.13,-133.5,534.3,196.0,-0.95,-14.65,-0.07,0.0,0.9515250916292224,0.2501999200639361,0.0,0.0,2.0,0.6,1.2,100.0,1.0,0.18,0.04277743450297844,0.2,1.0,-160.0,0,0,calibrating,0,0,0,0,0,0.0
3.075746583999944,309,1086.37,90.7,4.9,-101.1,-0.15,-0.19,0.04,0.05,0.93,-0.12,-128.1,547.4,204.0,-1.1,-15.25,0.02,0.0,0.9390420650854785,0.24535688292770594,0.0,0.0,2.0,0.6,1.2,100.0,1.0,0.18,0.05415525182578773,0.2,1.0,-160.0,0,0,calibrating,0,0,0,0,0,0.0
3.0839291270001468,310,1086.38,90.7,4.9,-101.1,-0.17,-0.19,0.13,0.04,0.93,-0.12,-122.5,570.6,158.0,-1.26,-15.57,-0.04,0.0,0.938562730988185,0.2861817604250837,0.0,0.0,2.0,0.6,1.2,100.0,1.0,0.18,0.053541894204619744,0.2,1.0,-160.0,0,0,calibrating,0,0,0,0,0,0.0
3.09190425099996,311,1086.39,90.7,5.0,-101.1,-0.18,-0.24,0.24,0.02,0.92,-0.13,-116.7,579.1,138.0,-1.42,-15.94,-0.16,0.0,0.9293546147730692,0.38418745424597095,0.0,0.0,2.0,0.6,1.2,100.0,1.0,0.18,0.06149501021134074,0.2,1.0,-160.0,0,0,calibrating,0,0,0,0,0,0.0
3.1039141900000686,312,1086.4,90.7,5.0,-101.1,-0.18,-0.33,0.35,0.01,0.91,-0.13,-110.8,593.2,164.0,-1.58,-16.41,-0.21,0.0,0.9192932067626738,0.5136146415358502,0.0,0.0,2.0,0.6,1.2,100.0,1.0,0.18,0.07012528985730149,0.2,1.0,-160.0,0,0,calibrating,0,0,0,0,0,0.0
3.1120021010001437,313,1086.41,90.6,5.0,-101.0,-0.17,-0.45,0.49,0.0,0.91,-0.12,-104.8,605.9,50.0,-1.74,-16.33,0.07,0.0,0.917877987534291,0.6866585760041157,0.0,0.0,2.0,0.6,1.2,100.0,1.0,0.18,0.07010969890397067,0.2,1.0,-160.0,0,0,calibrating,0,0,0,0,0,0.0
3.1240157060001366,314,1086.42,90.6,5.1,-101.0,-0.18,-0.62,0.64,-0.02,0.9,-0.12,-98.7,603.8,44.0,-1.91,-16.47,-0.28,0.0,0.9081850031794183,0.9090654541890809,0.0,0.0,2.0,0.6,1.2,100.0,1.0,0.18,0.07820662959366642,0.2,1.0,-160.0,0,0,calibrating,0,0,0,0,0,0.0
3.135937317000071,315,1086.43,90.6,5.2,-100.9,-0.02,-0.82,0.7,-0.03,0.88,-0.12,-92.7,592.8,-118.0,-2.07,-15.87,0.35,0.0,0.8886506625215558,1.0783320453366856,0.0,0.0,2.0,0.6,1.2,100.0,1.0,0.18,0.09578615084649833,0.2,1.0,-160.0,0,0,calibrating,0,0,0,0,0,0.0
3.1437747340000897,316,1086.44,90.6,5.2,-100.8,0.14,-0.99,0.74,-0.06,0.9,-0.12,-87.0,563.5,-355.0,-2.22,-14.48,0.43,0.0,0.9099450532861861,1.2439051410778879,0.0,0.0,2.0,0.6,1.2,100.0,1.0,0.18,0.0730019248802306,0.2,1.0,-160.0,0,0,calibrating,0,0,0,0,0,0.0
3.155983317000164,317,1086.45,90.7,5.3,-100.7,0.0,-1.16,0.85,-0.12,0.92,-0.13,-81.9,481.9,-707.0,-2.35,-12.01,0.26,0.0,0.9368564457802486,1.4380890097626085,0.0,0.0,2.0,0.6,1.2,100.0,1.0,0.18,0.04516872173844477,0.2,1.0,-160.0,0,0,calibrating,0,0,0,0,0,0.0
3.168161155000007,319,1086.47,90.7,5.5,-100.4,0.34,-1.83,0.89,0.0,0.91,-0.14,-74.3,315.4,-804.0,-2.53,-7.58,0.27,0.0,0.9207062506576134,2.063152926954277,0.0,0.0,2.0,0.6,1.2,100.0,1.0,0.18,0.06009253852385843,0.2,1.0,-160.0,0,0,calibrating,0,0,0,0,0,0.0
3.1805840990000434,320,1086.48,90.8,5.6,-100.2,0.49,-2.1,0.8,0.02,0.94,-0.16,-71.7,238.5,-740.0,-2.6,-5.69,0.16,0.0,0.9537295214053091,2.300021739027699,0.0,0.0,2.0,0.6,1.2,100.0,1.0,0.18,0.026527882420639415,0.2,1.0,-160.0,0,0,calibrating,0,0,0,0,0,0.0
3.188430452000148,321,1086.49,90.8,5.6,-100.0,0.19,-2.33,0.65,0.09,0.94,-0.18,-69.7,177.0,-633.0,-2.64,-4.13,0.2,0.0,0.9613012014972206,2.426417111710186,0.0,0.0,2.0,0.6,1.2,100.0,1.0,0.18,0.01857707828215327,0.2,1.0,-160.0,0,0,calibrating,0,0,0,0,0,0.0
3.2004209500000798,322,1086.5,90.8,5.7,-99.7,0.01,-2.15,0.5,0.09,0.95,-0.19,-68.3,119.9,-603.0,-2.67,-2.52,0.31,0.0,0.9729850975220535,2.207396656697658,0.0,0.0,2.0,0.6,1.2,100.0,1.0,0.18,0.006755318612173933,0.2,1.0,-160.0,0,0,calibrating,0,0,0,0,0,0.0
3.212559340000098,323,1086.51,90.8,5.7,-99.5,-0.2,-1.91,0.51,0.05,0.92,-0.19,-67.5,60.0,-590.0,-2.69,-0.94,0.13,0.0,0.9407443861113389,1.9870078006892675,0.0,0.0,2.0,0.6,1.2,100.0,1.0,0.18,0.03821610942243081,0.2,1.0,-160.0,0,0,calibrating,0,0,0,0,0,0.0
3.2245067890000882,324,1086.52,90.9,5.8,-99.3,0.03,-1.73,0.58,0.03,0.88,-0.18,-67.3,4.3,-535.0,-2.68,0.41,-0.12,0.0,0.8987213138676527,1.824883557929108,0.0,0.0,2.0,0.6,1.2,100.0,1.0,0.18,0.0786343980327946,0.2,1.0,-160.0,0,0,calibrating,0,0,0,0,0,0.0
3.2324446689999604,325,1086.53,90.9,5.9,-99.2,0.58,-1.62,0.67,0.01,0.86,-0.18,-67.5,-23.7,-296.0,-2.68,0.81,0.26,0.0,0.878692210048547,1.8465372999211254,0.0,0.0,2.0,0.6,1.2,100.0,1.0,0.18,0.09669023181486236,0.2,1.0,-160.0,0,0,calibrating,0,0,0,0,0,0.0
3.2402561480000713,326,1086.54,91.0,5.9,-99.0,0.92,-1.72,0.73,0.0,0.86,-0.2,-67.9,-39.4,-209.0,-2.67,1.26,0.01,0.0,0.8829496021857646,2.082714574779751,0.0,0.0,2.0,0.6,1.2,100.0,1.0,0.18,0.09058418288409187,0.2,1.0,-160.0,0,0,calibrating,0,0,0,0,0,0.0
3.2484475620001376,327,1086.55,91.1,6.0,-98.8,1.21,-1.96,0.73,0.02,0.86,-0.2,-68.4,-57.8,-216.0,-2.65,1.88,0.19,0.0,0.8831760866327847,2.4163195152959385,0.0,0.0,2.0,0.6,1.2,100.0,1.0,0.18,0.08855054446833033,0.2,1.0,-160.0,0,0,calibrating,0,0,0,0,0,0.0
3.2603787400000783,328,1086.56,91.3,6.1,-98.6,1.74,-2.21,0.56,0.01,0.9,-0.24,-69.2,-89.6,-309.0,-2.62,2.88,-0.03,0.0,0.9315041599477697,2.867978382066364,0.0,0.0,2.0,0.6,1.2,100.0,1.0,0.18,0.03941802173027842,0.2,1.0,-160.0,0,0,calibrating,0,0,0,0,0,0.0
3.268441518000145,329,1086.57,91.5,6.1,-98.4,2.23,-2.44,0.28,0.05,0.96,-0.25,-70.3,-127.0,-339.0,-2.59,3.85,0.35,0.0,0.9932774033471213,3.3173634109033037,0.0,0.0,2.0,0.6,1.2,100.0,1.0,0.18,0.02190811723569175,0.2,1.0,-160.0,0,0,calibrating,0,0,0,0,0,0.0
3.280197790000102,330,1086.58,91.8,6.1,-98.1,2.97,-2.63,-0.28,0.16,1.0,-0.25,-71.8,-156.3,-287.0,-2.54,4.55,0.05,0.0,1.0431203190428227,3.976958636948592,0.0,0.0,2.0,0.6,1.2,100.0,1.0,0.18,0.07031601227276518,0.2,1.0,-160.0,0,0,calibrating,0,0,0,0,0,0.0
3.2881190360001256,331,1086.59,92.2,6.0,-97.8,3.48,-2.63,-1.05,0.23,1.09,-0.28,-73.5,-180.7,-263.0,-2.49,5.24,0.0,0.0,1.1486513831445988,4.486624566419615,0.0,0.0,2.0,0.6,1.2,100.0,1.0,0.18,0.1723301348470505,0.2,1.0,-160.0,0,0,calibrating,0,0,0,0,0,0.0
3.300514513000053,332,1086.6,92.5,5.8,-97.6,2.99,-2.3,-1.79,0.22,1.18,-0.31,-75.5,-208.0,-274.0,-2.44,5.99,0.36,0.0,1.2397177098033245,4.175428121761887,0.0,0.0,2.0,0.6,1.2,100.0,1.0,0.18,0.2581285322756607,0.2,1.0,-160.0,0,0,calibrating,0,0,0,0,0,0.0
3.30851826900016,333,1086.61,92.8,5.6,-97.4,1.99,-1.9,-2.33,0.19,1.25,-0.27,-77.8,-235.3,-268.0,-2.37,6.72,0.19,0.0,1.2928650354928777,3.6054125977480025,0.0,0.0,2.0,0.6,1.2,100.0,1.0,0.18,0.30505034080590954,0.2,1.0,-160.0,0,0,calibrating,0,0,0,0,0,0.0
3.320268461000069,334,1086.62,93.0,5.4,-97.3,1.6,-1.42,-2.56,0.18,1.21,-0.18,-80.3,-256.3,-203.0,-2.3,7.14,-0.04,0.0,1.2364869590901475,3.3361654635224554,0.0,0.0,2.0,0.6,1.2,100.0,1.0,0.18,0.24369881911511582,0.2,1.0,-160.0,0,0,calibrating,0,0,0,0,0,0.0
3.328427032000036,335,1086.63,93.2,5.1,-97.1,2.0,-1.12,-2.65,0.18,1.2,-0.11,-83.0,-267.8,-129.0,-2.23,7.37,-0.16,0.0,1.218400590938793,3.503840749805847,0.0,0.0,2.0,0.6,1.2,100.0,1.0,0.18,0.22110020194448599,0.2,1.0,-160.0,0,0,calibrating,0,0,0,0,0,0.0
3.3402709060001143,336,1086.64,93.5,4.9,-97.1,2.55,-0.86,-2.63,0.18,1.23,-0.08,-85.7,-274.9,-78.0,-2.15,7.5,0.07,0.0,1.2456725091291048,3.762844668598479,0.0,0.0,2.0,0.6,1.2,100.0,1.0,0.18,0.24340467773210195,0.2,1.0,-160.0,0,0,calibrating,0,0,0,0,0,0.0
3.348362590000079,337,1086.65,93.7,4.7,-97.0,2.74,-0.52,-2.53,0.17,1.29,-0.04,-88.4,-273.4,13.0,-2.08,7.3,0.84,0.0,1.3017680284904833,3.7654880161806386,0.0,0.0,2.0,0.6,1.2,100.0,1.0,0.18,0.29351019315161087,0.2,1.0,-160.0,0,0,calibrating,0,0,0,0,0,0.0
3.3602859650000028,338,1086.66,94.0,4.4,-97.0,2.41,-0.05,-2.53,0.11,1.3,0.0,-91.1,-257.6,145.0,-2.01,6.7,-0.01,0.0,1.3046455457326331,3.4944956717672437,0.0,0.0,2.0,0.6,1.2,100.0,1.0,0.18,0.2904599561858854,0.2,1.0,-160.0,0,0,calibrating,0,0,0,0,0,0.0
3.368215018000001,339,1086.67,94.1,4.2,-97.0,2.33,0.31,-2.72,0.06,1.31,0.03,-93.5,-231.0,230.0,-1.95,5.95,0.06,0.0,1.311716432770437,3.594913072662537,0.0,0.0,2.0,0.6,1.2,100.0,1.0,0.18,0.2915802263592153,0.2,1.0,-160.0,0,0,calibrating,0,0,0,0,0,0.0
3.3804497390001416,340,1086.68,94.3,3.9,-97.1,2.29,0.6,-2.89,0.06,1.35,0.09,-95.6,-204.2,253.0,-1.89,5.22,-0.07,0.0,1.3543264008354856,3.7357997805021617,0.0,0.0,2.0,0.6,1.2,100.0,1.0,0.18,0.3275063905357787,0.2,1.0,-160.0,0,0,calibrating,0,0,0,0,0,0.0
3.388361484000143,341,1086.69,94.5,3.6,-97.2,1.82,0.61,-2.76,0.02,1.39,0.14,-97.5,-178.5,249.0,-1.85,4.56,-0.12,0.0,1.397175722663402,3.3618596044451348,0.0,0.0,2.0,0.6,1.2,100.0,1.0,0.18,0.36294859811642133,0.2,1.0,-160.0,0,0,calibrating,0,0,0,0,0,0.0
3.4003945690001274,342,1086.7,94.7,3.3,-97.3,1.03,0.37,-2.23,-0.08,1.36,0.18,-99.1,-155.3,225.0,-1.8,3.97,-0.02,0.0,1.374190670904151,2.4840893703729745,0.0,0.0,2.0,0.6,1.2,100.0,1.0,0.18,0.3331642754300268,0.2,1.0,-160.0,0,0,calibrating,0,0,0,0,0,0.0
3.4084814800000913,343,1086.71,94.7,3.2,-97.3,0.46,-0.2,-1.54,-0.2,1.29,0.22,-100.5,-137.9,178.0,-1.77,3.57,0.03,0.0,1.3238202294873727,1.619629587282228,0.0,0.0,2.0,0.6,1.2,100.0,1.0,0.18,0.2771379573329835,0.2,1.0,-160.0,0,0,calibrating,0,0,0,0,0,0.0
3.4203231450001113,344,1086.72,94.8,3.0,-97.2,0.03,-1.05,-0.88,-0.25,1.19,0.31,-101.8,-122.9,161.0,-1.73,3.15,0.02,0.0,1.254870511248073,1.3703284277865653,0.0,0.0,2.0,0.6,1.2,100.0,1.0,0.18,0.20402447431181003,0.2,1.0,-160.0,0,0,calibrating,0,0,0,0,0,0.0
3.4285432690001016,345,1086.73,94.8,3.0,-97.1,-0.11,-2.23,-0.36,-0.23,1.11,0.37,-102.9,-106.8,156.0,-1.71,2.73,-0.08,0.0,1.1924344845734713,2.2615481423131367,0.0,0.0,2.0,0.6,1.2,100.0,1.0,0.18,0.13875667868446429,0.2,1.0,-160.0,0,0,calibrating,0,0,0,0,0,0.0
3.4403175480001664,346,1086.74,94.8,2.9,-96.8,-0.35,-3.49,0.03,-0.17,1.02,0.37,-103.9,-89.9,182.0,-1.68,2.18,-0.26,0.0,1.098271369015873,3.507634530563297,0.0,0.0,2.0,0.6,1.2,100.0,1.0,0.18,0.043701691864328485,0.2,1.0,-160.0,0,0,calibrating,0,0,0,0,0,0.0
3.4484099010001046,347,1086.75,94.7,2.9,-96.4,-0.67,-4.52,0.18,-0.12,0.92,0.3,-104.6,-68.2,204.0,-1.67,1.59,0.29,0.0,0.9750897394599125,4.5729312262486514,0.0,0.0,2.0,0.6,1.2,100.0,1.0,0.18,0.0778903389377994,0.2,1.0,-160.0,0,0,calibrating,0,0,0,0,0,0.0
3.4603867190000983,348,1086.76,94.7,2.9,-95.9,-0.87,-5.18,0.15,-0.08,0.86,0.28,-105.1,-46.6,213.0,-1.65,1.0,0.12,0.0,0.9079647570252933,5.254693140422188,0.0,0.0,2.0,0.6,1.2,100.0,1.0,0.18,0.14211501494497014,0.2,1.0,-160.0,0,0,calibrating,0,0,0,0,0,0.0
3.4682996520000415,349,1086.77,94.6,2.9,-95.3,-0.79,-5.75,0.04,-0.04,0.83,0.22,-105.5,-27.6,190.0,-1.65,0.53,0.1,0.0,0.8595929269136642,5.80415368507761,0.0,0.0,2.0,0.6,1.2,100.0,1.0,0.18,0.18667710815546723,0.2,1.0,-160.0,0,0,calibrating,0,0,0,0,0,0.0
3.4804335480000645,350,1086.78,94.6,2.8,-94.7,-0.8,-6.01,-0.11,0.0,0.82,0.13,-105.6,-9.2,185.0,-1.64,0.03,0.18,0.0,0.8302409288875127,6.064008575191826,0.0,0.0,2.0,0.6,1.2,100.0,1.0,0.18,0.21170852405798646,0.2,1.0,-160.0,0,0,calibrating,0,0,0,0,0,0.0
3.4883166120000624,351,1086.79,94.5,2.7,-94.1,-0.95,-5.93,-0.25,0.06,0.83,0.03,-105.6,3.5,106.0,-1.65,-0.12,-0.03,0.0,0.8327064308626421,6.010815252526067,0.0,0.0,2.0,0.6,1.2,100.0,1.0,0.18,0.20505816164119994,0.2,1.0,-160.0,0,0,calibrating,0,0,0,0,0,0.0
3.5005360820000533,352,1086.8,94.4,2.7,-93.6,-0.93,-5.55,-0.38,0.14,0.87,-0.02,-105.6,3.4,24.0,-1.65,-0.06,-0.05,0.0,0.8814193099768123,5.640195032088872,0.0,0.0,2.0,0.6,1.2,100.0,1.0,0.18,0.15321837687648898,0.2,1.0,-160.0,0,0,calibrating,0,0,0,0,0,0.0
3.508640009000146,353,1086.81,94.4,2.6,-93.1,-0.75,-4.89,-0.48,0.23,0.89,-0.06,-105.6,0.1,-13.0,-1.65,0.03,-0.12,0.0,0.9211948762341223,4.970412457734267,0.0,0.0,2.0,0.6,1.2,100.0,1.0,0.18,0.11117395440679545,0.2,1.0,-160.0,0,0,calibrating,0,0,0,0,0,0.0
3.5202162949999547,354,1086.82,94.3,2.5,-92.6,-0.56,-4.15,-0.52,0.28,0.92,-0.1,-105.6,-0.4,2.0,-1.65,-0.01,0.03,0.0,0.9668505572217456,4.219774875511726,0.0,0.0,2.0,0.6,1.2,100.0,1.0,0.18,0.06420790795078868,0.2,1.0,-160.0,0,0,calibrating,0,0,0,0,0,0.0
3.5284870570001203,355,1086.83,94.3,2.4,-92.2,-0.33,-3.39,-0.5,0.29,0.93,-0.13,-105.6,0.5,0.0,-1.65,0.0,-0.2,0.0,0.9828021163998377,3.4425281407709654,0.0,0.0,2.0,0.6,1.2,100.0,1.0,0.18,0.047291221797242544,0.2,1.0,-160.0,0,0,calibrating,0,0,0,0,0,0.0
3.540339713000094,356,1086.84,94.3,2.3,-91.9,0.02,-2.65,-0.39,0.28,0.96,-0.14,-105.6,-0.7,-3.0,-1.65,0.01,0.02,0.0,1.009752444909147,2.6786190471957747,0.0,0.0,2.0,0.6,1.2,100.0,1.0,0.18,0.019934075422174624,0.2,1.0,-160.0,0,0,calibrating,0,0,0,0,0,0.0
3.548431212999958,357,1086.85,94.3,2.3,-91.7,0.3,-2.02,-0.15,0.25,1.0,-0.12,-105.6,-0.5,-9.0,-1.65,0.05,-0.13,0.0,1.0377379245262264,2.04765719787273,0.0,0.0,2.0,0.6,1.2,100.0,1.0,0.18,0.007890376111006514,0.2,1.0,-160.0,0,0,calibrating,0,0,0,0,0,0.0
3.560336557000028,358,1086.86,94.4,2.3,-91.5,0.42,-1.55,0.09,0.22,1.0,-0.1,-105.6,-3.1,-19.0,-1.65,0.1,-0.02,0.0,1.0287856919689349,1.6084153692376857,0.0,0.0,2.0,0.6,1.2,100.0,1.0,0.18,0.0010406193173593259,0.2,1.0,-160.0,0,0,calibrating,0,0,0,0,0,0.0
3.5684054620001007,359,1086.87,94.4,2.3,-91.4,0.4,-1.3,0.31,0.18,1.0,-0.09,-105.6,-6.2,-37.0,-1.64,0.25,0.11,0.0,1.0200490184299968,1.395026881461429,0.0,0.0,2.0,0.6,1.2,100.0,1.0,0.18,0.00958174699917147,0.2,1.0,-160.0,0,0,calibrating,0,0,0,0,0,0.0
3.5803896810000424,360,1086.88,94.5,2.4,-91.3,0.29,-1.17,0.49,0.15,1.0,-0.08,-105.8,-15.4,-85.0,-1.64,0.55,0.04,0.0,1.014347080638575,1.301191761424887,0.0,0.0,2.0,0.6,1.2,100.0,1.0,0.18,0.014978011094781474,0.2,1.0,-160.0,0,0,calibrating,0,0,0,0,0,0.0
3.5883880180001597,361,1086.89,94.5,2.5,-91.2,0.17,-1.14,0.6,0.12,0.98,-0.08,-106.0,-24.9,-80.0,-1.63,0.76,-0.01,0.0,0.9905553997631833,1.299422948850758,0.0,0.0,2.0,0.6,1.2,100.0,1.0,0.18,0.03799429813076971,0.2,1.0,-160.0,0,0,calibrating,0,0,0,0,0,0.0
3.5999945200001093,362,1086.9,94.5,2.6,-91.0,0.07,-1.12,0.64,0.1,0.98,-0.08,-106.3,-33.4,-89.0,-1.62,1.03,0.21,0.0,0.9883319280484669,1.2918591254467338,0.0,0.0,2.0,0.6,1.2,100.0,1.0,0.18,0.03941341444857638,0.2,1.0,-160.0,0,0,calibrating,0,0,0,0,0,0.0
3.6083067940001,363,1086.91,94.5,2.6,-90.9,0.03,-1.09,0.61,0.08,0.97,-0.08,-106.7,-41.3,-71.0,-1.61,1.18,-0.03,0.0,0.9765756499114648,1.2494398745037714,0.0,0.0,2.0,0.6,1.2,100.0,1.0,0.18,0.050146298733867,0.2,1.0,-160.0,0,0,calibrating,0,0,0,0,0,0.0
3.620125476000112,364,1086.92,94.5,2.7,-90.8,-0.03,-1.02,0.52,0.09,0.98,-0.08,-107.1,-46.1,-59.0,-1.6,1.32,-0.07,0.0,0.9873702446397703,1.1452947218947618,0.0,0.0,2.0,0.6,1.2,100.0,1.0,0.18,0.03856466992545027,0.2,1.0,-160.0,0,0,calibrating,0,0,0,0,0,0.0
3.627915900000062,365,1086.93,94.5,2.8,-90.7,-0.18,-0.92,0.43,0.11,0.98,-0.09,-107.6,-48.5,-31.0,-1.58,1.35,-0.02,0.0,0.9902524930541705,1.0313583276436953,0.0,0.0,2.0,0.6,1.2,100.0,1.0,0.18,0.03496877308082902,0.2,1.0,-160.0,0,0,calibrating,0,0,0,0,0,0.0
3.6400700930000767,366,1086.94,94.5,2.9,-90.6,-0.32,-0.74,0.35,0.13,0.98,-0.11,-108.1,-49.4,-12.0,-1.57,1.35,-0.08,0.0,0.9946858800646564,0.8789197915623472,0.0,0.0,2.0,0.6,1.2,100.0,1.0,0.18,0.029924678348936307,0.2,1.0,-160.0,0,0,calibrating,0,0,0,0,0,0.0
3.649908973000038,367,1086.95,94.5,3.0,-90.6,-0.46,-0.5,0.33,0.15,0.98,-0.11,-108.6,-49.0,4.0,-1.56,1.31,0.06,0.0,0.9974968671630001,0.7553145040312678,0.0,0.0,2.0,0.6,1.2,100.0,1.0,0.18,0.02657141742558078,0.2,1.0,-160.0,0,0,calibrating,0,0,0,0,0,0.0
3.6603823110001485,368,1086.96,94.5,3.0,-90.5,-0.61,-0.23,0.41,0.16,0.97,-0.12,-109.1,-45.9,25.0,-1.55,1.2,0.0,0.0,0.9904039579888602,0.7701298591796061,0.0,0.0,2.0,0.6,1.2,100.0,1.0,0.18,0.03299104006772624,0.2,1.0,-160.0,0,0,calibrating,0,0,0,0,0,0.0
3.670146767999995,369,1086.97,94.4,3.0,-90.5,-0.6,0.01,0.57,0.16,0.96,-0.11,-109.5,-43.5,24.0,-1.53,1.14,0.12,0.0,0.979438614717635,0.8276472678623424,0.0,0.0,2.0,0.6,1.2,100.0,1.0,0.18,0.043077255672172354,0.2,1.0,-160.0,0,0,calibrating,0,0,0,0,0,0.0
3.6804243110000243,370,1086.98,94.3,3.1,-90.5,-0.7,0.17,0.73,0.16,0.94,-0.12,-109.9,-41.7,20.0,-1.52,1.1,-0.01,0.0,0.961041102138717,1.0255730105653131,0.0,0.0,2.0,0.6,1.2,100.0,1.0,0.18,0.06024527288606851,0.2,1.0,-160.0,0,0,calibrating,0,0,0,0,0,0.0
3.692336171000079,371,1086.99,94.2,3.2,-90.5,-0.85,0.29,0.82,0.15,0.9,-0.12,-110.4,-40.5,16.0,-1.51,1.06,0.08,0.0,0.9202716990106781,1.216141439142668,0.0,0.0,2.0,0.6,1.2,100.0,1.0,0.18,0.0989943824938253,0.2,1.0,-160.0,0,0,calibrating,0,0,0,0,0,0.0
3.700543725999978,372,1087.0,94.2,3.3,-90.6,-0.94,0.38,0.8,0.14,0.88,-0.13,-110.6,-40.1,-2.0,-1.5,1.15,0.04,0.0,0.900499861188218,1.2915107432770352,0.0,0.0,2.0,0.6,1.2,100.0,1.0,0.18,0.11639089590995955,0.2,1.0,-160.0,0,0,calibrating,0,0,0,0,0,0.0
3.708217482000009,373,1087.01,94.1,3.3,-90.6,-1.0,0.42,0.73,0.14,0.85,-0.13,-111.2,-42.2,-3.0,-1.49,1.12,0.0,0.0,0.8712060605849801,1.3074020039758236,0.0,0.0,2.0,0.6,1.2,100.0,1.0,0.18,0.14277100258293363,0.2,1.0,-160.0,0,0,calibrating,0,0,0,0,0,0.0
3.7203767620001145,374,1087.02,93.9,3.4,-90.6,-1.01,0.46,0.6,0.14,0.84,-0.14,-111.6,-39.2,19.0,-1.48,1.02,0.13,0.0,0.8630179604156566,1.2616259350536512,0.0,0.0,2.0,0.6,1.2,100.0,1.0,0.18,0.14793992069721185,0.2,1.0,-160.0,0,0,calibrating,0,0,0,0,0,0.0
3.728461955000057,375,1087.03,93.8,3.5,-90.7,-0.98,0.51,0.44,0.13,0.82,-0.15,-112.0,-36.7,22.0,-1.47,0.96,-0.11,0.0,0.843682404699778,1.1891593669479292,0.0,0.0,2.0,0.6,1.2,100.0,1.0,0.18,0.16392996688482886,0.2,1.0,-160.0,0,0,calibrating,0,0,0,0,0,0.0
3.7401860330001,376,1087.04,93.7,3.5,-90.7,-1.01,0.6,0.24,0.13,0.81,-0.17,-112.3,-35.5,0.0,-1.46,1.01,0.0,0.0,0.8377947242612597,1.1990412836929345,0.0,0.0,2.0,0.6,1.2,100.0,1.0,0.18,0.16642129437688025,0.2,1.0,-160.0,0,0,calibrating,0,0,0,0,0,0.0
3.751860989000079,377,1087.05,93.6,3.5,-90.8,-1.09,0.74,0.01,0.12,0.8,-0.18,-112.7,-37.0,-3.0,-1.45,1.02,-0.08,0.0,0.8287339742040265,1.3174976280813564,0.0,0.0,2.0,0.6,1.2,100.0,1.0,0.18,0.17197240354543109,0.2,1.0,-160.0,0,0,calibrating,0,0,0,0,0,0.0
3.7600984089999656,378,1087.06,93.5,3.5,-90.9,-1.16,0.93,-0.16,0.11,0.8,-0.18,-113.1,-37.7,-9.0,-1.44,1.05,-0.19,0.0,0.8273451516749223,1.4953594885511643,0.0,0.0,2.0,0.6,1.2,100.0,1.0,0.18,0.16989400155304457,0.2,1.0,-160.0,0,0,calibrating,0,0,0,0,0,0.0
3.7682452520000425,379,1087.07,93.4,3.5,-91.0,-1.15,1.11,-0.27,0.1,0.8,-0.18,-113.4,-39.4,-6.0,-1.43,1.06,-0.08,0.0,0.8260750571225354,1.6209565077447328,0.0,0.0,2.0,0.6,1.2,100.0,1.0,0.18,0.16774081418332287,0.2,1.0,-160.0,0,0,calibrating,0,0,0,0,0,0.0
3.780388617999961,380,1087.08,93.3,3.5,-91.1,-1.02,1.23,-0.27,0.08,0.81,-0.17,-113.8,-41.0,-17.0,-1.42,1.13,-0.11,0.0,0.8315046602394963,1.6205554603283407,0.0,0.0,2.0,0.6,1.2,100.0,1.0,0.18,0.15906498684503467,0.2,1.0,-160.0,0,0,calibrating,0,0,0,0,0,0.0
3.788222446999953,381,1087.09,93.2,3.5,-91.2,-0.81,1.29,-0.2,0.07,0.82,-0.15,-114.3,-41.6,-3.0,-1.41,1.12,0.05,0.0,0.836540495134575,1.5362942426501507,0.0,0.0,2.0,0.6,1.2,100.0,1.0,0.18,0.15094856891095687,0.2,1.0,-160.0,0,0,calibrating,0,0,0,0,0,0.0
3.800368629000104,382,1087.1,93.2,3.5,-91.4,-0.6,1.22,-0.11,0.06,0.84,-0.12,-114.7,-40.8,2.0,-1.39,1.09,-0.11,0.0,0.8506468127254695,1.3640014662748716,0.0,0.0,2.0,0.6,1.2,100.0,1.0,0.18,0.13410540629366108,0.2,1.0,-160.0,0,0,calibrating,0,0,0,0,0,0.0
3.808072836000065,383,1087.11,93.2,3.5,-91.5,-0.29,1.03,-0.08,0.07,0.85,-0.12,-115.1,-40.5,7.0,-1.38,1.08,0.0,0.0,0.861278120005379,1.0730330842988953,0.0,0.0,2.0,0.6,1.2,100.0,1.0,0.18,0.12100461703347654,0.2,1.0,-160.0,0,0,calibrating,0,0,0,0,0,0.0
3.8202668720000474,384,1087.12,93.2,3.5,-91.6,-0.02,0.8,-0.12,0.08,0.86,-0.14,-115.5,-40.6,1.0,-1.37,1.09,0.04,0.0,0.8749857141690942,0.8091971329657563,0.0,0.0,2.0,0.6,1.2,100.0,1.0,0.18,0.10515108241236593,0.2,1.0,-160.0,0,0,calibrating,0,0,0,0,0,0.0
3.828697078999994,385,1087.13,93.2,3.5,-91.6,0.26,0.6,-0.26,0.09,0.86,-0.18,-115.9,-40.3,-9.0,-1.36,1.13,0.02,0.0,0.8832326986700616,0.7037044834303672,0.0,0.0,2.0,0.6,1.2,100.0,1.0,0.18,0.09496601595317067,0.2,1.0,-160.0,0,0,calibrating,0,0,0,0,0,0.0
3.8403039150000495,386,1087.14,93.2,3.4,-91.7,0.54,0.46,-0.42,0.1,0.86,-0.19,-116.3,-43.1,-27.0,-1.35,1.23,0.05,0.0,0.8863972021616494,0.824378553820998,0.0,0.0,2.0,0.6,1.2,100.0,1.0,0.18,0.08996548221235123,0.2,1.0,-160.0,0,0,calibrating,0,0,0,0,0,0.0
3.8485289259999718,387,1087.15,93.3,3.4,-91.7,0.84,0.33,-0.5,0.09,0.88,-0.19,-116.8,-47.7,-48.0,-1.34,1.38,-0.04,0.0,0.9047651629014017,1.0317460927960909,0.0,0.0,2.0,0.6,1.2,100.0,1.0,0.18,0.07016557104314691,0.2,1.0,-160.0,0,0,calibrating,0,0,0,0,0,0.0
3.8604158860000553,388,1087.16,93.4,3.3,-91.8,1.15,0.18,-0.49,0.07,0.92,-0.18,-117.3,-55.9,-82.0,-1.32,1.67,0.08,0.0,0.9400531899844817,1.2629330940315087,0.0,0.0,2.0,0.6,1.2,100.0,1.0,0.18,0.03417999308086561,0.2,1.0,-160.0,0,0,calibrating,0,0,0,0,0,0.0
3.8685757420000755,389,1087.17,93.6,3.3,-91.8,1.29,0.04,-0.38,0.04,0.96,-0.18,-118.0,-69.9,-123.0,-1.3,2.07,0.21,0.0,0.977547952787995,1.345399568901373,0.0,0.0,2.0,0.6,1.2,100.0,1.0,0.18,0.0032484743281947503,0.2,1.0,-160.0,0,0,calibrating,0,0,0,0,0,0.0
3.880258996000066,390,1087.18,93.8,3.2,-91.8,1.22,-0.14,-0.29,0.01,0.99,-0.16,-118.8,-85.9,-161.0,-1.28,2.57,0.05,0.0,1.0028958071504737,1.2617844506887854,0.0,0.0,2.0,0.6,1.2,100.0,1.0,0.18,0.02802440211685997,0.2,1.0,-160.0,0,0,calibrating,0,0,0,0,0,0.0
3.8884610580000754,391,1087.19,93.9,3.2,-91.7,0.93,-0.36,-0.2,0.01,1.03,-0.14,-119.8,-104.2,-173.0,-1.25,3.05,-0.03,0.0,1.0395191195932858,1.0171037311896953,0.0,0.0,2.0,0.6,1.2,100.0,1.0,0.18,0.06335476026847864,0.2,1.0,-160.0,0,0,calibrating,0,0,0,0,0,0.0
3.900319151000076,392,1087.2,94.0,3.2,-91.7,0.52,-0.65,-0.1,0.0,1.04,-0.13,-120.9,-122.3,-184.0,-1.21,3.57,0.24,0.0,1.0480935072788116,0.8383913167489273,0.0,0.0,2.0,0.6,1.2,100.0,1.0,0.18,0.07049056499492434,0.2,1.0,-160.0,0,0,calibrating,0,0,0,0,0,0.0
3.908251713000027,393,1087.21,94.1,3.1,-91.6,0.16,-0.96,-0.06,0.01,1.01,-0.17,-122.3,-142.7,-191.0,-1.17,4.11,0.11,0.0,1.0242558274181308,0.9750897394599125,0.0,0.0,2.0,0.6,1.2,100.0,1.0,0.18,0.04571982743155867,0.2,1.0,-160.0,0,0,calibrating,0,0,0,0,0,0.0
3.92033904799996,394,1087.22,94.1,3.1,-91.5,0.0,-1.16,-0.09,0.05,0.98,-0.24,-123.8,-160.0,-178.0,-1.13,4.56,-0.03,0.0,1.010198000393982,1.1634861408714758,0.0,0.0,2.0,0.6,1.2,100.0,1.0,0.18,0.031028760399261723,0.2,1.0,-160.0,0,0,calibrating,0,0,0,0,0,0.0
3.9286165590001474,395,1087.23,94.1,3.1,-91.4,0.06,-1.09,-0.09,0.11,0.99,-0.3,-125.5,-175.2,-148.0,-1.08,4.92,0.18,0.0,1.0402884215447177,1.0953538241134688,0.0,0.0,2.0,0.6,1.2,100.0,1.0,0.18,0.05989679791899738,0.2,1.0,-160.0,0,0,calibrating,0,0,0,0,0,0.0
3.9403837190000104,396,1087.24,94.2,3.1,-91.3,0.39,-0.76,0.17,0.17,1.07,-0.29,-127.4,-186.8,-122.0,-1.03,5.21,0.09,0.0,1.1215614116043757,0.870976463516667,0.0,0.0,2.0,0.6,1.2,100.0,1.0,0.18,0.1383463922190823,0.2,1.0,-160.0,0,0,calibrating,0,0,0,0,0,0.0
3.9484337660001074,397,1087.25,94.2,3.1,-91.2,0.87,-0.29,0.58,0.2,1.12,-0.3,-129.3,-196.8,-106.0,-0.98,5.47,0.13,0.0,1.1766052864066183,1.085080642164443,0.0,0.0,2.0,0.6,1.2,100.0,1.0,0.18,0.18952246168089837,0.2,1.0,-160.0,0,0,calibrating,0,0,0,0,0,0.0
3.9605865749999793,398,1087.26,94.3,3.2,-91.2,1.15,0.18,1.12,0.21,1.22,-0.26,-131.4,-207.7,-115.0,-0.92,5.8,-0.03,0.0,1.2649505919204909,1.61533278305122,0.0,0.0,2.0,0.6,1.2,100.0,1.0,0.18,0.27231041185087523,0.2,1.0,-160.0,0,0,calibrating,0,0,0,0,0,0.0
3.9684777009999834,399,1087.27,94.5,3.3,-91.2,1.07,0.52,1.62,0.2,1.19,-0.27,-133.5,-220.3,-121.0,-0.86,6.13,0.09,0.0,1.2365273955719702,2.009900495049444,0.0,0.0,2.0,0.6,1.2,100.0,1.0,0.18,0.23900947119230775,0.2,1.0,-160.0,0,0,calibrating,0,0,0,0,0,0.0
3.98033776200009,400,1087.28,94.5,3.5,-91.3,0.91,0.8,1.86,0.18,1.1,-0.27,-135.8,-231.5,-108.0,-0.8,6.4,-0.04,0.0,1.146865292874451,2.2198423367437607,0.0,0.0,2.0,0.6,1.2,100.0,1.0,0.18,0.14636042112489278,0.2,1.0,-160.0,0,0,calibrating,0,0,0,0,0,0.0
3.988124810000045,401,1087.29,94.6,3.7,-91.4,1.0,0.88,2.01,0.19,1.08,-0.26,-138.2,-242.1,-111.0,-0.73,6.72,0.21,0.0,1.1269871339105875,2.4113274352522094,0.0,0.0,2.0,0.6,1.2,100.0,1.0,0.18,0.12395261691780868,0.2,1.0,-160.0,0,0,calibrating,0,0,0,0,0,0.0
4.000361926000096,402,1087.3,94.7,3.9,-91.4,1.21,0.92,2.26,0.18,1.11,-0.23,-140.7,-256.2,-144.0,-0.66,7.17,-0.03,0.0,1.147780466814103,2.723618916074714,0.0,0.0,2.0,0.6,1.2,100.0,1.0,0.18,0.1418510308248977,0.2,1.0,-160.0,0,0,calibrating,0,0,0,0,0,0.0
4.008307664000085,403,1087.31,94.9,4.2,-91.5,1.29,0.86,2.68,0.14,1.2,-0.18,-143.4,-272.8,-153.0,-0.58,7.6,0.01,0.0,1.2214745187681977,3.096142761566398,0.0,0.0,2.0,0.6,1.2,100.0,1.0,0.18,0.21123418112341263,0.2,1.0,-160.0,0,0,calibrating,0,0,0,0,0,0.0
4.02030739099996,404,1087.32,95.0,4.5,-91.6,1.23,0.88,3.14,0.09,1.28,-0.14,-146.2,-286.2,-127.0,-0.51,7.9,0.12,0.0,1.2907749610214787,3.485240307353282,0.0,0.0,2.0,0.6,1.2,100.0,1.0,0.18,0.2749239309091598,0.2,1.0,-160.0,0,0,calibrating,0,0,0,0,0,0.0
4.028567765000162,405,1087.33,95.1,4.8,-91.6,1.03,0.83,3.36,0.05,1.3,-0.1,-149.2,-297.9,-128.0,-0.42,8.26,0.12,0.0,1.3047988350699888,3.6110109387815483,0.0,0.0,2.0,0.6,1.2,100.0,1.0,0.18,0.28316884885851645,0.2,1.0,-160.0,0,0,calibrating,0,0,0,0,0,0.0
4.040358726000022,406,1087.34,95.2,5.2,-91.7,0.76,0.66,3.3,0.05,1.35,-0.05,-152.5,-314.2,-151.0,-0.33,8.72,0.01,0.0,1.3518505834595775,3.450101447783818,0.0,0.0,2.0,0.6,1.2,100.0,1.0,0.18,0.32361618530314296,0.2,1.0,-160.0,0,0,calibrating,0,0,0,0,0,0.0
4.048558977000084,407,1087.35,95.2,5.5,-91.7,0.27,0.49,3.3,0.07,1.4,-0.01,-155.8,-328.9,-147.0,-0.24,9.12,0.13,0.0,1.4017845768876185,3.3470882868547105,0.0,0.0,2.0,0.6,1.2,100.0,1.0,0.18,0.3660791751565602,0.2,1.0,-160.0,0,0,calibrating,0,0,0,0,0,0.0
4.0604247300000225,408,1087.36,95.2,5.8,-91.7,-0.15,0.22,3.22,0.08,1.33,0.02,-159.2,-344.1,-158.0,-0.15,9.55,0.13,0.0,1.3325539388707686,3.230990560184291,0.0,0.0,2.0,0.6,1.2,100.0,1.0,0.18,0.29091156639691595,0.2,1.0,-160.0,0,0,calibrating,0,0,0,0,0,0.0
4.068554466000023,409,1087.37,95.1,6.1,-91.7,-0.31,-0.07,2.8,0.14,1.2,0.0,-162.7,-358.8,-125.0,-0.05,9.84,0.0,0.0,1.2081390648431165,2.817977998494665,0.0,0.0,2.0,0.6,1.2,100.0,1.0,0.18,0.16316675852187856,0.2,1.0,-160.0,0,0,calibrating,0,0,0,0,0,0.0
4.080335862000084,410,1087.38,95.1,6.3,-91.7,-0.27,-0.09,2.09,0.27,1.12,-0.01,-166.4,-363.3,-70.0,0.04,9.95,-0.11,0.0,1.152128465059344,2.1092889797275287,0.0,0.0,2.0,0.6,1.2,100.0,1.0,0.18,0.10501303556334385,0.2,1.0,-160.0,0,0,calibrating,0,0,0,0,0,0.0
4.088538708999977,411,1087.39,95.0,6.5,-91.7,-0.15,0.22,1.33,0.36,1.07,0.0,-170.1,-373.7,-108.0,0.14,10.31,-0.41,0.0,1.128937553631732,1.3563922736435798,0.0,0.0,2.0,0.6,1.2,100.0,1.0,0.18,0.08018568165301732,0.2,1.0,-160.0,0,0,calibrating,0,0,0,0,0,0.0
4.100249179000002,412,1087.4,95.0,6.6,-91.7,-0.09,0.82,0.58,0.37,1.04,0.0,-173.9,-380.2,-44.0,0.25,10.31,-0.03,0.0,1.103856874780422,1.0084145972763385,0.0,0.0,2.0,0.6,1.2,100.0,1.0,0.18,0.05400290274567321,0.2,1.0,-160.0,0,0,calibrating,0,0,0,0,0,0.0
4.108369201999949,413,1087.41,95.0,6.6,-91.8,-0.11,1.59,-0.01,0.35,1.03,0.01,-177.7,-381.0,-39.0,0.35,10.42,0.86,0.0,1.0878878618681247,1.593831860642772,0.0,0.0,2.0,0.6,1.2,100.0,1.0,0.18,0.0372732120367083,0.2,1.0,-160.0,0,0,calibrating,0,0,0,0,0,0.0
4.120604381000021,414,1087.42,95.0,6.6,-92.0,-0.27,2.35,-0.35,0.3,1.02,0.03,-181.5,-387.2,-43.0,0.46,10.55,0.25,0.0,1.0636258740741502,2.391213081262312,0.0,0.0,2.0,0.6,1.2,100.0,1.0,0.18,0.012750999757879189,0.2,1.0,-160.0,0,0,calibrating,0,0,0,0,0,0.0
4.128380095000011,415,1087.43,94.9,6.6,-92.3,-0.69,3.09,-0.5,0.19,0.99,0.05,-185.4,-385.4,5.0,0.56,10.45,-0.05,0.0,1.0093066927351666,3.205339295612869,0.0,0.0,2.0,0.6,1.2,100.0,1.0,0.18,0.04073681794948225,0.2,1.0,-160.0,0,0,calibrating,0,0,0,0,0,0.0
4.1403615950000585,416,1087.44,94.7,6.6,-92.7,-1.17,3.64,-0.52,0.11,0.95,0.11,-189.2,-383.6,22.0,0.66,10.36,-0.25,0.0,0.9626525853079084,3.858613740710516,0.0,0.0,2.0,0.6,1.2,100.0,1.0,0.18,0.08564310686920562,0.2,1.0,-160.0,0,0,calibrating,0,0,0,0,0,0.0
4.1483492390000265,417,1087.45,94.6,6.5,-93.0,-1.45,4.0,-0.52,0.07,0.92,0.12,-193.0,-374.9,91.0,0.77,10.0,-0.05,0.0,0.9304300081145277,4.286362093897341,0.0,0.0,2.0,0.6,1.2,100.0,1.0,0.18,0.11550837038133455,0.2,1.0,-160.0,0,0,calibrating,0,0,0,0,0,0.0
4.16043925200006,418,1087.46,94.4,6.5,-93.5,-1.61,4.26,-0.47,0.07,0.88,0.13,-196.6,-357.3,160.0,0.86,9.44,-0.08,0.0,0.8923003978481686,4.578274784239146,0.0,0.0,2.0,0.6,1.2,100.0,1.0,0.18,0.1505652210347398,0.2,1.0,-160.0,0,0,calibrating,0,0,0,0,0,0.0
4.172345049000114,419,1087.47,94.1,6.5,-93.9,-1.66,4.41,-0.4,0.11,0.83,0.15,-200.0,-328.6,292.0,0.95,8.43,0.0,0.0,0.8505880318932308,4.7290273841457084,0.0,0.0,2.0,0.6,1.2,100.0,1.0,0.18,0.18843203524988406,0.2,1.0,-160.0,0,0,calibrating,0,0,0,0,0,0.0
4.180257692000168,420,1087.48,93.9,6.5,-94.4,-1.44,4.39,-0.32,0.13,0.81,0.16,-203.0,-283.6,406.0,1.03,7.14,-0.11,0.0,0.8358229477586746,4.6312093453006415,0.0,0.0,2.0,0.6,1.2,100.0,1.0,0.18,0.1991331769967516,0.2,1.0,-160.0,0,0,calibrating,0,0,0,0,0,0.0
4.1923976340001445,421,1087.49,93.8,6.5,-94.8,-0.94,4.26,-0.36,0.12,0.8,0.14,-205.5,-240.3,414.0,1.09,6.01,-0.32,0.0,0.8209750300709517,4.377305107026468,0.0,0.0,2.0,0.6,1.2,100.0,1.0,0.18,0.20970147279078488,0.2,1.0,-160.0,0,0,calibrating,0,0,0,0,0,0.0
4.200284300000021,422,1087.5,93.7,6.5,-95.2,-0.23,4.06,-0.52,0.07,0.83,0.12,-207.6,-196.3,443.0,1.14,4.76,-0.15,0.0,0.8415461959987698,4.099621933788528,0.0,0.0,2.0,0.6,1.2,100.0,1.0,0.18,0.1853477007257074,0.2,1.0,-160.0,0,0,calibrating,0,0,0,0,0,0.0
4.208275660000027,423,1087.51,93.6,6.5,-95.6,0.3,3.84,-0.81,0.03,0.89,0.12,-209.3,-148.5,467.0,1.18,3.45,-0.22,0.0,0.8985543945694106,3.935949694800481,0.0,0.0,2.0,0.6,1.2,100.0,1.0,0.18,0.1257727121119654,0.2,1.0,-160.0,0,0,calibrating,0,0,0,0,0,0.0
4.220317679000118,424,1087.52,93.6,6.4,-96.0,0.41,3.61,-1.11,-0.01,0.93,0.1,-210.4,-101.3,470.0,1.21,2.17,-0.29,0.0,0.9354143466934854,3.798986707004909,0.0,0.0,2.0,0.6,1.2,100.0,1.0,0.18,0.08713450478813267,0.2,1.0,-160.0,0,0,calibrating,0,0,0,0,0,0.0
4.228462630999957,425,1087.53,93.6,6.3,-96.3,0.09,3.32,-1.33,-0.05,0.95,0.09,-211.1,-54.1,469.0,1.22,0.9,-0.25,0.0,0.9555626614722866,3.5776249104678373,0.0,0.0,2.0,0.6,1.2,100.0,1.0,0.18,0.06564646620914472,0.2,1.0,-160.0,0,0,calibrating,0,0,0,0,0,0.0
4.240188634000106,426,1087.54,93.6,6.2,-96.7,-0.33,2.98,-1.43,-0.07,0.94,0.07,-211.3,-8.6,452.0,1.22,-0.28,-0.21,0.0,0.9451983918733675,3.3217766330685152,0.0,0.0,2.0,0.6,1.2,100.0,1.0,0.18,0.07449052109190268,0.2,1.0,-160.0,0,0,calibrating,0,0,0,0,0,0.0
4.248290077000092,427,1087.55,93.5,6.0,-97.0,-0.66,2.67,-1.41,-0.07,0.92,0.06,-211.2,27.3,354.0,1.21,-1.08,-0.18,0.0,0.924608025057105,3.0907280695654866,0.0,0.0,2.0,0.6,1.2,100.0,1.0,0.18,0.09317927015000205,0.2,1.0,-160.0,0,0,calibrating,0,0,0,0,0,0.0
4.260402691000081,428,1087.56,93.4,5.9,-97.2,-0.85,2.46,-1.35,-0.05,0.91,0.05,-210.7,55.0,298.0,1.19,-1.81,-0.3,0.0,0.9127431182978045,2.931995907227703,0.0,0.0,2.0,0.6,1.2,100.0,1.0,0.18,0.1029432933711163,0.2,1.0,-160.0,0,0,calibrating,0,0,0,0,0,0.0
4.26836035600013,429,1087.57,93.2,5.8,-97.5,-1.01,2.36,-1.22,-0.03,0.92,0.05,-210.0,81.1,275.0,1.17,-2.53,-0.04,0.0,0.9218459741193211,2.842199852227144,0.0,0.0,2.0,0.6,1.2,100.0,1.0,0.18,0.09196362879860775,0.2,1.0,-160.0,0,0,calibrating,0,0,0,0,0,0.0
4.280197131000023,430,1087.58,93.1,5.7,-97.7,-1.16,2.31,-1.09,-0.03,0.93,0.04,-209.0,107.6,269.0,1.14,-3.25,-0.17,0.0,0.9313431161500042,2.8053163814443463,0.0,0.0,2.0,0.6,1.2,100.0,1.0,0.18,0.0808171570325662,0.2,1.0,-160.0,0,0,calibrating,0,0,0,0,0,0.0
4.288411600000018,431,1087.59,93.0,5.6,-97.9,-1.29,2.21,-0.95,-0.03,0.95,0.04,-207.7,133.6,261.0,1.1,-3.95,-0.11,0.0,0.9513148795220224,2.729597039857715,0.0,0.0,2.0,0.6,1.2,100.0,1.0,0.18,0.05962848578733704,0.2,1.0,-160.0,0,0,calibrating,0,0,0,0,0,0.0
4.300456121000025,432,1087.6,92.8,5.5,-98.2,-1.39,2.07,-0.81,-0.03,0.96,0.03,-206.2,157.5,244.0,1.06,-4.57,-0.03,0.0,0.960937042682818,2.6216597796052787,0.0,0.0,2.0,0.6,1.2,100.0,1.0,0.18,0.049006196174010586,0.2,1.0,-160.0,0,0,calibrating,0,0,0,0,0,0.0
4.3083763429999635,433,1087.61,92.6,5.5,-98.4,-1.38,1.89,-0.71,-0.04,0.96,0.02,-204.5,180.5,228.0,1.01,-5.16,-0.27,0.0,0.9610411021387171,2.445526528173432,0.0,0.0,2.0,0.6,1.2,100.0,1.0,0.18,0.047924093983749305,0.2,1.0,-160.0,0,0,calibrating,0,0,0,0,0,0.0
4.320239324000113,434,1087.62,92.5,5.4,-98.6,-1.33,1.72,-0.62,-0.03,0.98,0.01,-202.5,203.1,236.0,0.95,-5.83,-0.06,0.0,0.9805100713404222,2.260906897685086,0.0,0.0,2.0,0.6,1.2,100.0,1.0,0.18,0.027886022286403245,0.2,1.0,-160.0,0,0,calibrating,0,0,0,0,0,0.0
4.332139753000092,435,1087.63,92.4,5.3,-98.7,-1.23,1.56,-0.58,-0.02,0.98,0.01,-200.3,228.4,250.0,0.89,-6.53,-0.01,0.0,0.9802550688468792,2.0695168518279816,0.0,0.0,2.0,0.6,1.2,100.0,1.0,0.18,0.02757820428434732,0.2,1.0,-160.0,0,0,calibrating,0,0,0,0,0,0.0
4.339804005000133,436,1087.64,92.2,5.3,-98.9,-1.17,1.44,-0.58,-0.01,0.98,0.0,-197.9,252.6,227.0,0.82,-7.11,0.01,0.0,0.9800510190801293,1.943939299463849,0.0,0.0,2.0,0.6,1.2,100.0,1.0,0.18,0.027226608970075228,0.2,1.0,-160.0,0,0,calibrating,0,0,0,0,0,0.0
4.3483609110001,437,1087.65,92.1,5.2,-99.0,-1.19,1.33,-0.62,0.0,0.98,0.0,-195.2,272.8,212.0,0.75,-7.67,0.02,0.0,0.98,1.8892855792600545,0.0,0.0,2.0,0.6,1.2,100.0,1.0,0.18,0.026732075489200424,0.2,1.0,-160.0,0,0,calibrating,0,0,0,0,0,0.0
4.360381472999961,438,1087.66,91.9,5.1,-99.1,-1.24,1.26,-0.64,0.0,0.96,-0.02,-192.3,294.4,218.0,0.66,-8.27,0.0,0.0,0.9602083107326242,1.8801063799689635,0.0,0.0,2.0,0.6,1.2,100.0,1.0,0.18,0.045593289461444586,0.2,1.0,-160.0,0,0,calibrating,0,0,0,0,0,0.0
4.368328524000162,439,1087.67,91.8,5.0,-99.3,-1.19,1.16,-0.62,0.01,0.92,-0.03,-189.2,316.6,219.0,0.58,-8.87,-0.17,0.0,0.9205433178292046,1.7737248941140786,0.0,0.0,2.0,0.6,1.2,100.0,1.0,0.18,0.08355311671756693,0.2,1.0,-160.0,0,0,calibrating,0,0,0,0,0,0.0
4.380320632000121,440,1087.68,91.7,4.9,-99.4,-0.95,1.0,-0.58,0.01,0.89,-0.04,-185.9,338.2,218.0,0.49,-9.46,-0.07,0.0,0.8909545442950499,1.4962954253756173,0.0,0.0,2.0,0.6,1.2,100.0,1.0,0.18,0.11087905244668717,0.2,1.0,-160.0,0,0,calibrating,0,0,0,0,0,0.0
4.388473512000019,441,1087.69,91.6,4.8,-99.5,-0.58,0.76,-0.5,0.01,0.88,-0.05,-182.3,363.0,249.0,0.39,-10.2,-0.14,0.0,0.8814760348415605,1.0788883167408942,0.0,0.0,2.0,0.6,1.2,100.0,1.0,0.18,0.11795041066217304,0.2,1.0,-160.0,0,0,calibrating,0,0,0,0,0,0.0
4.400440606000075,442,1087.7,91.6,4.7,-99.5,-0.14,0.51,-0.38,0.02,0.89,-0.06,-178.6,385.0,197.0,0.28,-10.64,-0.14,0.0,0.8922443611477744,0.6512296062065975,0.0,0.0,2.0,0.6,1.2,100.0,1.0,0.18,0.10503844266883999,0.2,1.0,-160.0,0,0,calibrating,0,0,0,0,0,0.0
4.4085679550000805,443,1087.71,91.6,4.7,-99.6,0.13,0.27,-0.24,0.02,0.91,-0.07,-174.6,402.3,206.0,0.17,-11.23,-0.27,0.0,0.9129074432821763,0.38392707640904933,0.0,0.0,2.0,0.6,1.2,100.0,1.0,0.18,0.08268785332374928,0.2,1.0,-160.0,0,0,calibrating,0,0,0,0,0,0.0
4.4203651049999735,444,1087.72,91.7,4.6,-99.6,0.26,0.1,-0.14,0.03,0.93,-0.09,-170.4,425.5,199.0,0.05,-11.76,-0.03,0.0,0.934826187052973,0.3117691453623979,0.0,0.0,2.0,0.6,1.2,100.0,1.0,0.18,0.05955372736189346,0.2,1.0,-160.0,0,0,calibrating,0,0,0,0,0,0.0
4.428258972000094,445,1087.73,91.7,4.6,-99.6,0.23,-0.01,-0.06,0.04,0.95,-0.11,-166.0,440.6,195.0,-0.06,-12.29,-0.25,0.0,0.957183368012629,0.23790754506740638,0.0,0.0,2.0,0.6,1.2,100.0,1.0,0.18,0.03645261547419276,0.2,1.0,-160.0,0,0,calibrating,0,0,0,0,0,0.0
4.440435191999995,446,1087.74,91.8,4.6,-99.6,0.06,-0.11,0.0,0.05,0.96,-0.13,-161.4,468.4,242.0,-0.19,-13.01,-0.03,0.0,0.970051545022222,0.12529964086141668,0.0,0.0,2.0,0.6,1.2,100.0,1.0,0.18,0.023112749695307744,0.2,1.0,-160.0,0,0,calibrating,0,0,0,0,0,0.0
4.448408771999993,447,1087.75,91.9,4.6,-99.6,-0.16,-0.18,0.08,0.06,0.95,-0.15,-156.6,485.8,180.0,-0.32,-13.4,0.03,0.0,0.9636389365317282,0.2537715508089904,0.0,0.0,2.0,0.6,1.2,100.0,1.0,0.18,0.028934851022085595,0.2,1.0,-160.0,0,0,calibrating,0,0,0,0,0,0.0
4.46032535900008,448,1087.76,91.8,4.6,-99.5,-0.34,-0.19,0.11,0.06,0.94,-0.16,-151.7,503.8,187.0,-0.46,-13.92,-0.08,0.0,0.9554056729996949,0.4047221268969613,0.0,0.0,2.0,0.6,1.2,100.0,1.0,0.18,0.03642475226303643,0.2,1.0,-160.0,0,0,calibrating,0,0,0,0,0,0.0
4.468393727000148,449,1087.77,91.8,4.6,-99.5,-0.49,-0.16,0.15,0.06,0.94,-0.17,-146.5,527.8,263.0,-0.6,-14.77,-0.05,0.0,0.9571311299921239,0.5368426212587819,0.0,0.0,2.0,0.6,1.2,100.0,1.0,0.18,0.0340053093651953,0.2,1.0,-160.0,0,0,calibrating,0,0,0,0,0,0.0
4.480416639000168,450,1087.78,91.7,4.6,-99.5,-0.62,-0.09,0.19,0.05,0.93,-0.17,-141.0,554.3,212.0,-0.75,-15.25,-0.1,0.0,0.9467312184564318,0.6546754921333164,0.0,0.0,2.0,0.6,1.2,100.0,1.0,0.18,0.0435171164828696,0.2,1.0,-160.0,0,0,calibrating,0,0,0,0,0,0.0
4.490417094000122,451,1087.79,91.7,4.6,-99.5,-0.72,-0.02,0.26,0.04,0.92,-0.17,-135.3,577.6,256.0,-0.91,-16.03,-0.1,0.0,0.9364293886887576,0.7657675887630658,0.0,0.0,2.0,0.6,1.2,100.0,1.0,0.18,0.05274256732553306,0.2,1.0,-160.0,0,0,calibrating,0,0,0,0,0,0.0
4.500413561999949,452,1087.8,91.6,4.6,-99.5,-0.82,-0.01,0.34,0.03,0.91,-0.17,-129.4,593.5,183.0,-1.07,-16.41,0.05,0.0,0.9262289133902051,0.8877499647986475,0.0,0.0,2.0,0.6,1.2,100.0,1.0,0.18,0.06168418177160373,0.2,1.0,-160.0,0,0,calibrating,0,0,0,0,0,0.0
4.508582606000118,453,1087.81,91.5,4.7,-99.5,-0.87,-0.05,0.42,0.01,0.9,-0.17,-123.3,619.3,202.0,-1.24,-16.98,-0.08,0.0,0.9159694318043589,0.9673675619949224,0.0,0.0,2.0,0.6,1.2,100.0,1.0,0.18,0.07050479009030097,0.2,1.0,-160.0,0,0,calibrating,0,0,0,0,0,0.0
4.520252543999959,454,1087.82,91.4,4.7,-99.5,-0.86,-0.1,0.47,0.0,0.89,-0.17,-117.0,629.9,155.0,-1.41,-17.34,-0.1,0.0,0.9060905032059435,0.9851395840184273,0.0,0.0,2.0,0.6,1.2,100.0,1.0,0.18,0.078776044314942,0.2,1.0,-160.0,0,0,calibrating,0,0,0,0,0,0.0
4.528657423000141,455,1087.83,91.4,4.8,-99.5,-0.69,-0.13,0.5,0.0,0.91,-0.15,-110.6,648.7,228.0,-1.59,-18.07,-0.18,0.0,0.9222797840135064,0.8619744775803979,0.0,0.0,2.0,0.6,1.2,100.0,1.0,0.18,0.06133502823723158,0.2,1.0,-160.0,0,0,calibrating,0,0,0,0,0,0.0
4.540194799000119,456,1087.84,91.3,4.8,-99.4,-0.56,-0.19,0.6,0.0,0.92,-0.14,-103.9,674.6,182.0,-1.77,-18.46,0.09,0.0,0.9305912099305473,0.842436941260294,0.0,0.0,2.0,0.6,1.2,100.0,1.0,0.18,0.05196313027378685,0.2,1.0,-160.0,0,0,calibrating,0,0,0,0,0,0.0
4.548580188999949,457,1087.85,91.2,4.9,-99.4,-0.43,-0.29,0.73,0.0,0.92,-0.15,-97.0,693.7,174.0,-1.96,-18.93,-0.1,0.0,0.932148056909416,0.8954886933959578,0.0,0.0,2.0,0.6,1.2,100.0,1.0,0.18,0.04939815762901978,0.2,1.0,-160.0,0,0,calibrating,0,0,0,0,0,0.0
4.5602955520000705,458,1087.86,91.2,5.0,-99.4,-0.2,-0.38,0.85,0.0,0.91,-0.17,-90.1,698.6,107.0,-2.15,-19.09,0.15,0.0,0.9257429448826494,0.9523129737644027,0.0,0.0,2.0,0.6,1.2,100.0,1.0,0.18,0.05468720426267071,0.2,1.0,-160.0,0,0,calibrating,0,0,0,0,0,0.0
4.56842160500014,459,1087.87,91.2,5.1,-99.3,-0.11,-0.51,1.0,-0.03,0.91,-0.18,-83.2,669.2,-379.0,-2.33,-17.18,0.34,0.0,0.9281163720137686,1.127918436767482,0.0,0.0,2.0,0.6,1.2,100.0,1.0,0.18,0.05126750158892046,0.2,1.0,-160.0,0,0,calibrating,0,0,0,0,0,0.0
4.580358750999949,460,1087.88,91.2,5.2,-99.3,-0.22,-0.65,1.24,-0.1,0.93,-0.18,-77.2,565.2,-965.0,-2.48,-13.61,0.43,0.0,0.9525229656024048,1.4172155799312962,0.0,0.0,2.0,0.6,1.2,100.0,1.0,0.18,0.026323689840278552,0.2,1.0,-160.0,0,0,calibrating,0,0,0,0,0,0.0
4.588225897000029,461,1087.89,91.2,5.3,-99.2,-0.52,-0.97,1.63,-0.15,0.96,-0.17,-72.5,416.8,-1324.0,-2.59,-9.48,0.73,0.0,0.9864076236526155,1.9667740083700516,0.0,0.0,2.0,0.6,1.2,100.0,1.0,0.18,0.0074097488457335325,0.2,1.0,-160.0,0,0,calibrating,0,0,0,0,0,0.0
4.600547067999969,462,1087.9,91.1,5.5,-99.1,-0.36,-1.5,1.86,-0.03,0.92,-0.16,-69.4,267.2,-1421.0,-2.66,-5.5,0.59,0.0,0.9342911751697112,2.4164436678722723,0.0,0.0,2.0,0.6,1.2,100.0,1.0,0.18,0.04381256564442737,0.2,1.0,-160.0,0,0,calibrating,0,0,0,0,0,0.0
4.608560768999951,463,1087.91,91.2,5.7,-98.9,0.91,-1.94,1.68,0.14,0.93,-0.18,-67.7,135.7,-1255.0,-2.69,-2.39,0.4,0.0,0.9575489543621256,2.7228844999375204,0.0,0.0,2.0,0.6,1.2,100.0,1.0,0.18,0.020143690722972618,0.2,1.0,-160.0,0,0,calibrating,0,0,0,0,0,0.0
4.6202569360000325,464,1087.92,91.3,5.8,-98.7,1.3,-2.16,1.31,0.24,1.0,-0.24,-67.0,39.8,-996.0,-2.7,-0.09,0.28,0.0,1.0560303025955269,2.841073740683265,0.0,0.0,2.0,0.6,1.2,100.0,1.0,0.18,0.07677090436022005,0.2,1.0,-160.0,0,0,calibrating,0,0,0,0,0,0.0
4.628550886000085,465,1087.93,91.4,5.9,-98.5,0.48,-1.89,1.02,0.21,1.07,-0.29,-67.1,-21.6,-618.0,-2.69,0.96,0.09,0.0,1.1283173312503891,2.200658992211197,0.0,0.0,2.0,0.6,1.2,100.0,1.0,0.18,0.1460767743547804,0.2,1.0,-160.0,0,0,calibrating,0,0,0,0,0,0.0
4.640347833000078,466,1087.94,91.4,6.0,-98.3,-0.81,-1.46,1.0,0.07,1.03,-0.28,-67.5,-49.1,-386.0,-2.67,1.66,-0.02,0.0,1.0696728471827261,1.9462014284240983,0.0,0.0,2.0,0.6,1.2,100.0,1.0,0.18,0.08568364448137533,0.2,1.0,-160.0,0,0,calibrating,0,0,0,0,0,0.0
4.6485713510001005,467,1087.95,91.3,6.1,-98.2,-1.05,-1.19,1.19,-0.04,0.92,-0.23,-68.2,-76.9,-320.0,-2.65,2.44,0.44,0.0,0.9491575211733825,1.9836078241426656,0.0,0.0,2.0,0.6,1.2,100.0,1.0,0.18,0.034135047897408954,0.2,1.0,-160.0,0,0,calibrating,0,0,0,0,0,0.0
4.660411083000099,468,1087.96,91.3,6.3,-98.0,-0.33,-1.3,1.41,-0.09,0.83,-0.19,-69.1,-106.0,-308.0,-2.62,3.25,0.0,0.0,0.8562125904236634,1.9460215826141292,0.0,0.0,2.0,0.6,1.2,100.0,1.0,0.18,0.12453837907418552,0.2,1.0,-160.0,0,0,calibrating,0,0,0,0,0,0.0
4.668354476000104,469,1087.97,91.3,6.4,-97.9,1.11,-1.91,1.38,-0.08,0.81,-0.19,-70.4,-140.9,-342.0,-2.58,4.25,0.04,0.0,0.8358229477586746,2.604726473163737,0.0,0.0,2.0,0.6,1.2,100.0,1.0,0.18,0.14202946130439076,0.2,1.0,-160.0,0,0,calibrating,0,0,0,0,0,0.0
4.6803383550000035,470,1087.98,91.6,6.5,-97.6,2.49,-2.65,1.14,0.01,0.91,-0.22,-72.1,-172.9,-304.0,-2.53,5.02,-0.11,0.0,0.9362691920596341,3.810800440852289,0.0,0.0,2.0,0.6,1.2,100.0,1.0,0.18,0.04075155266336261,0.2,1.0,-160.0,0,0,calibrating,0,0,0,0,0,0.0
4.688385380999989,471,1087.99,91.9,6.6,-97.3,3.39,-3.11,0.58,0.13,1.04,-0.2,-74.0,-197.4,-259.0,-2.48,5.65,0.26,0.0,1.0670051546267245,4.636873946960388,0.0,0.0,2.0,0.6,1.2,100.0,1.0,0.18,0.08818472170565328,0.2,1.0,-160.0,0,0,calibrating,0,0,0,0,0,0.0
