host_time_s,seq,device_time_s,roll,pitch,yaw,gyro_x,gyro_y,gyro_z,accel_x,accel_y,accel_z,belt_length,belt_velocity,belt_acceleration,motor_pos,motor_vel,motor_iq_meas,motor_iq_set,acc_mag,gyro_mag,gyro_corrected,gyro_side_score,gyro_side_separation,dynamic_refractory_s,step_period_s,gait_cycle_s,cadence_spm,gait_speed_ratio,assist_pulse_s,acc_residual,threshold,gyro_threshold,belt_threshold,belt_ok,belt_ready,calibrated,imu_side,imu_heel_strike,heel_strike,hs_count,left_hs_count,right_hs_count,torque_cmd_nm
0.007861056999900029,1,133.23,93.5,2.5,-10.2,-0.49,-3.52,0.17,0.19,0.89,-0.05,-105.1,-3.0,0.0,-1.66,0.06,-0.06,0.0,0.9114274518577987,3.558005059018326,0.0,0.0,2.0,0.45,0.6,1.2,100.0,1.0,0.18,0.0,0.2,1.0,-160.0,0,1,0,calibrating,0,0,0,0,0,0.0
0.016044928999690455,2,133.24,93.5,2.5,-9.9,-0.29,-2.93,0.28,0.19,0.91,-0.05,-105.1,-2.5,-7.0,-1.66,0.09,-0.07,0.0,0.9309672389509741,2.9576003786853966,0.0,0.0,2.0,0.45,0.6,1.2,100.0,1.0,0.18,0.019148991351311873,0.2,1.0,-160.0,0,1,0,calibrating,0,0,0,0,0,0.0
0.024092900999676203,3,133.25,93.5,2.6,-9.6,-0.11,-2.35,0.42,0.19,0.94,-0.04,-105.2,-4.6,-18.0,-1.66,0.16,0.11,0.0,0.9598437372822725,2.3897698633968925,0.0,0.0,2.0,0.45,0.6,1.2,100.0,1.0,0.18,0.04706497988895786,0.2,1.0,-160.0,0,1,0,calibrating,0,0,0,0,0,0.0
0.03185596900038945,4,133.26,93.5,2.6,-9.4,-0.04,-1.92,0.6,0.19,0.97,-0.04,-105.2,-8.4,-46.0,-1.65,0.34,0.27,0.0,0.9892421341612982,2.011964214393487,0.0,0.0,2.0,0.45,0.6,1.2,100.0,1.0,0.18,0.07493410923262411,0.2,1.0,-160.0,0,1,0,calibrating,0,0,0,0,0,0.0
0.04349132099923736,5,133.27,93.5,2.7,-9.2,-0.11,-1.57,0.75,0.18,0.99,-0.04,-105.4,-19.9,-100.0,-1.65,0.69,-0.03,0.0,1.0070253224224304,1.7434161866863576,0.0,0.0,2.0,0.45,0.6,1.2,100.0,1.0,0.18,0.09086295154388113,0.2,1.0,-160.0,0,1,0,calibrating,0,0,0,0,0,0.0
0.052110653999989154,6,133.28,93.4,2.7,-9.1,-0.28,-1.28,0.83,0.17,0.99,-0.04,-105.7,-32.2,-115.0,-1.64,1.03,0.05,0.0,1.0052860289489753,1.5510319145652678,0.0,0.0,2.0,0.45,0.6,1.2,100.0,1.0,0.18,0.08734118490901754,0.2,1.0,-160.0,0,1,0,calibrating,0,0,0,0,0,0.0
0.06356857500031765,7,133.29,93.4,2.9,-8.9,-0.5,-1.04,0.86,0.18,0.97,-0.04,-106.1,-41.6,-85.0,-1.63,1.2,0.06,0.0,0.9873702446397704,1.4391664254004817,0.0,0.0,2.0,0.45,0.6,1.2,100.0,1.0,0.18,0.06803689258781631,0.2,1.0,-160.0,0,1,0,calibrating,0,0,0,0,0,0.0
0.07182045199988352,8,133.3,93.4,3.0,-8.8,-0.66,-0.84,0.83,0.19,0.96,-0.06,-106.5,-46.3,-47.0,-1.62,1.27,-0.07,0.0,0.9804590761474953,1.3528118864054972,0.0,0.0,2.0,0.45,0.6,1.2,100.0,1.0,0.18,0.05990320961363038,0.2,1.0,-160.0,0,1,0,calibrating,0,0,0,0,0,0.0
0.08351481099998637,9,133.31,93.3,3.1,-8.8,-0.74,-0.6,0.76,0.2,0.96,-0.07,-107.0,-46.6,-21.0,-1.6,1.29,-0.09,0.0,0.9831073186585481,1.2186878189265697,0.0,0.0,2.0,0.45,0.6,1.2,100.0,1.0,0.18,0.061300423082189526,0.2,1.0,-160.0,0,1,0,calibrating,0,0,0,0,0,0.0
0.09203020799941442,10,133.32,93.2,3.2,-8.7,-0.78,-0.24,0.69,0.2,0.98,-0.08,-107.5,-48.2,-11.0,-1.59,1.31,-0.14,0.0,1.0033942395688744,1.0686907878334124,0.0,0.0,2.0,0.45,0.6,1.2,100.0,1.0,0.18,0.07995559711266553,0.2,1.0,-160.0,0,1,0,calibrating,0,0,0,0,0,0.0
0.10341239599983965,11,133.33,93.1,3.2,-8.7,-0.83,0.13,0.66,0.2,0.98,-0.1,-107.9,-48.6,-1.0,-1.58,1.31,-0.02,0.0,1.005186549850325,1.068363234110946,0.0,0.0,2.0,0.45,0.6,1.2,100.0,1.0,0.18,0.0801129492462338,0.2,1.0,-160.0,0,1,0,calibrating,0,0,0,0,0,0.0
0.11189716499939095,12,133.34,93.0,3.3,-8.7,-0.91,0.47,0.64,0.18,0.99,-0.11,-108.4,-47.6,5.0,-1.56,1.28,-0.03,0.0,1.0122252713699653,1.2077251342917394,0.0,0.0,2.0,0.45,0.6,1.2,100.0,1.0,0.18,0.0854086373505567,0.2,1.0,-160.0,0,1,0,calibrating,0,0,0,0,0,0.0
0.12332236799920793,13,133.35,92.9,3.4,-8.8,-1.02,0.76,0.65,0.15,0.99,-0.11,-108.9,-44.4,35.0,-1.55,1.12,-0.17,0.0,1.007323185477233,1.4284607099952031,0.0,0.0,2.0,0.45,0.6,1.2,100.0,1.0,0.18,0.07889642042866796,0.2,1.0,-160.0,0,1,0,calibrating,0,0,0,0,0,0.0
0.1316420660004951,14,133.36,92.9,3.5,-8.9,-1.04,0.86,0.7,0.13,0.99,-0.11,-109.3,-39.7,35.0,-1.54,1.03,0.18,0.0,1.0045396955820114,1.5202631351183913,0.0,0.0,2.0,0.45,0.6,1.2,100.0,1.0,0.18,0.07459067192277713,0.2,1.0,-160.0,0,1,0,calibrating,0,0,0,0,0,0.0
0.14370407599926693,15,133.37,92.8,3.6,-9.0,-1.12,0.94,0.75,0.11,0.98,-0.11,-109.6,-36.7,30.0,-1.53,0.97,0.03,0.0,0.9922701245124737,1.6433198106272557,0.0,0.0,2.0,0.45,0.6,1.2,100.0,1.0,0.18,0.06107467883617479,0.2,1.0,-160.0,0,1,0,calibrating,0,0,0,0,0,0.0
0.15606840299915348,16,133.38,92.7,3.7,-9.1,-1.16,0.92,0.79,0.09,0.98,-0.1,-110.0,-34.4,31.0,-1.52,0.86,0.02,0.0,0.9891915891272024,1.6781239525136398,0.0,0.0,2.0,0.45,0.6,1.2,100.0,1.0,0.18,0.05683622058188542,0.2,1.0,-160.0,0,1,0,calibrating,0,0,0,0,0,0.0
0.16384432499944523,17,133.39,92.6,3.8,-9.1,-1.23,0.84,0.81,0.09,0.96,-0.11,-110.3,-32.8,7.0,-1.51,0.89,0.17,0.0,0.9704638066409277,1.695464538113375,0.0,0.0,2.0,0.45,0.6,1.2,100.0,1.0,0.18,0.037346269333698445,0.2,1.0,-160.0,0,1,0,calibrating,0,0,0,0,0,0.0
0.17178442600015842,18,133.4,92.5,3.9,-9.2,-1.31,0.72,0.79,0.09,0.94,-0.11,-110.6,-32.5,1.0,-1.5,0.9,0.13,0.0,0.9506839643120104,1.6907394831847986,0.0,0.0,2.0,0.45,0.6,1.2,100.0,1.0,0.18,0.017215098464685497,0.2,1.0,-160.0,0,1,0,calibrating,0,0,0,0,0,0.0
0.18362344799970742,19,133.41,92.4,4.0,-9.3,-1.34,0.6,0.72,0.1,0.9,-0.12,-111.0,-33.8,-3.0,-1.49,0.9,-0.01,0.0,0.913454979733539,1.6352369858830862,0.0,0.0,2.0,0.45,0.6,1.2,100.0,1.0,0.18,0.019613608391510273,0.2,1.0,-160.0,0,1,0,calibrating,0,0,0,0,0,0.0
0.19209529100044165,20,133.42,92.3,4.1,-9.3,-1.33,0.47,0.56,0.12,0.86,-0.13,-111.3,-31.8,23.0,-1.49,0.8,-0.07,0.0,0.8780091115700337,1.5176956216580453,0.0,0.0,2.0,0.45,0.6,1.2,100.0,1.0,0.18,0.05395828702391525,0.2,1.0,-160.0,0,1,0,calibrating,0,0,0,0,0,0.0
0.20346419499946933,21,133.43,92.2,4.1,-9.4,-1.32,0.39,0.35,0.14,0.82,-0.14,-111.6,-28.0,29.0,-1.48,0.71,0.01,0.0,0.8435638683585255,1.4202112518917742,0.0,0.0,2.0,0.45,0.6,1.2,100.0,1.0,0.18,0.08663545963071484,0.2,1.0,-160.0,0,1,0,calibrating,0,0,0,0,0,0.0
0.2118438130000868,22,133.44,92.0,4.1,-9.4,-1.29,0.41,0.1,0.16,0.79,-0.16,-111.9,-26.7,8.0,-1.47,0.74,-0.29,0.0,0.8217663901620703,1.357276685130928,0.0,0.0,2.0,0.45,0.6,1.2,100.0,1.0,0.18,0.10626427907062663,0.2,1.0,-160.0,0,1,0,calibrating,0,0,0,0,0,0.0
0.2234649990004982,23,133.45,91.9,4.1,-9.4,-1.19,0.5,-0.12,0.17,0.77,-0.17,-112.1,-27.3,0.0,-1.46,0.77,0.13,0.0,0.8066597795849252,1.2963410045200299,0.0,0.0,2.0,0.45,0.6,1.2,100.0,1.0,0.18,0.11894347185481657,0.2,1.0,-160.0,0,1,0,calibrating,0,0,0,0,0,0.0
0.23196435799945903,24,133.46,91.8,4.1,-9.5,-1.01,0.68,-0.33,0.18,0.76,-0.19,-112.4,-31.7,-32.0,-1.46,0.91,-0.06,0.0,0.8038034585643433,1.2615070352558484,0.0,0.0,2.0,0.45,0.6,1.2,100.0,1.0,0.18,0.11936379701789035,0.2,1.0,-160.0,0,1,0,calibrating,0,0,0,0,0,0.0
0.2434538750003412,25,133.47,91.7,4.1,-9.6,-0.73,0.96,-0.48,0.18,0.78,-0.18,-112.8,-34.2,-26.0,-1.45,0.97,0.09,0.0,0.8204876598706407,1.2980369794424194,0.0,0.0,2.0,0.45,0.6,1.2,100.0,1.0,0.18,0.1006260037973612,0.2,1.0,-160.0,0,1,0,calibrating,0,0,0,0,0,0.0
0.25205802399977983,26,133.48,91.6,4.0,-9.7,-0.45,1.16,-0.56,0.18,0.83,-0.18,-113.1,-37.4,-37.0,-1.44,1.11,0.02,0.0,0.8681589716175258,1.3644412775931398,0.0,0.0,2.0,0.45,0.6,1.2,100.0,1.0,0.18,0.05189559820946654,0.2,1.0,-160.0,0,1,0,calibrating,0,0,0,0,0,0.0
0.2633889190001355,27,133.49,91.6,4.0,-9.8,-0.25,1.37,-0.55,0.18,0.88,-0.17,-113.5,-43.2,-44.0,-1.42,1.24,-0.01,0.0,0.914166286842826,1.4972975656161338,0.0,0.0,2.0,0.45,0.6,1.2,100.0,1.0,0.18,0.005770517324482971,0.2,1.0,-160.0,0,1,0,calibrating,0,0,0,0,0,0.0
0.27138876899880415,28,133.5,91.6,3.9,-10.0,-0.17,1.53,-0.52,0.17,0.9,-0.15,-114.0,-47.6,-38.0,-1.41,1.35,0.06,0.0,0.9281163720137686,1.624869225507087,0.0,0.0,2.0,0.45,0.6,1.2,100.0,1.0,0.18,0.008015976489530452,0.2,1.0,-160.0,0,1,0,calibrating,0,0,0,0,0,0.0
0.28363430599893036,29,133.51,91.5,3.9,-10.1,-0.17,1.67,-0.52,0.16,0.88,-0.15,-114.5,-50.7,-37.0,-1.4,1.44,0.16,0.0,0.9069178573608526,1.757327516429422,0.0,0.0,2.0,0.45,0.6,1.2,100.0,1.0,0.18,0.012918887400117707,0.2,1.0,-160.0,0,1,0,calibrating,0,0,0,0,0,0.0
0.2920406089997414,30,133.52,91.5,3.8,-10.3,-0.09,1.74,-0.52,0.14,0.85,-0.14,-115.1,-56.4,-54.0,-1.38,1.63,-0.01,0.0,0.8727542609463445,1.8182684070290613,0.0,0.0,2.0,0.45,0.6,1.2,100.0,1.0,0.18,0.046140834138333475,0.2,1.0,-160.0,0,1,0,calibrating,0,0,0,0,0,0.0
0.303364639999927,31,133.53,91.5,3.8,-10.5,0.21,1.69,-0.47,0.14,0.85,-0.13,-115.7,-64.5,-70.0,-1.36,1.86,-0.03,0.0,0.8712060605849801,1.7666635220097797,0.0,0.0,2.0,0.45,0.6,1.2,100.0,1.0,0.18,0.04673525380970389,0.2,1.0,-160.0,0,1,0,calibrating,0,0,0,0,0,0.0
0.3119179280001845,32,133.54,91.5,3.7,-10.7,0.62,1.57,-0.29,0.12,0.86,-0.13,-116.4,-73.4,-86.0,-1.34,2.13,-0.14,0.0,0.8780091115700337,1.7127171395183736,0.0,0.0,2.0,0.45,0.6,1.2,100.0,1.0,0.18,0.03913355876815727,0.2,1.0,-160.0,0,1,0,calibrating,0,0,0,0,0,0.0
0.3236093039995467,33,133.55,91.6,3.7,-10.8,0.98,1.48,-0.15,0.08,0.87,-0.12,-117.2,-82.8,-94.0,-1.32,2.4,0.1,0.0,0.8818730067305609,1.7813758727455584,0.0,0.0,2.0,0.45,0.6,1.2,100.0,1.0,0.18,0.034564270335477376,0.2,1.0,-160.0,0,1,0,calibrating,0,0,0,0,0,0.0
0.3320298710004863,34,133.56,91.8,3.7,-10.9,1.17,1.35,-0.03,0.05,0.92,-0.08,-118.1,-94.0,-110.0,-1.29,2.76,0.45,0.0,0.9248243076390239,1.7867008703193716,0.0,0.0,2.0,0.45,0.6,1.2,100.0,1.0,0.18,0.008219289961525877,0.2,1.0,-160.0,0,1,0,calibrating,0,0,0,0,0,0.0
0.34351802299897827,35,133.57,91.9,3.7,-11.1,1.13,1.04,0.08,0.02,0.97,-0.04,-119.1,-108.7,-138.0,-1.26,3.17,0.1,0.0,0.9710303805751909,1.5378231367748374,0.0,0.0,2.0,0.45,0.6,1.2,100.0,1.0,0.18,0.05333685563973889,0.2,1.0,-160.0,0,1,0,calibrating,0,0,0,0,0,0.0
0.3520755699992151,36,133.58,92.0,3.7,-11.1,0.9,0.57,0.13,0.0,0.98,-0.03,-120.3,-122.8,-137.0,-1.23,3.54,-0.01,0.0,0.9804590761474953,1.0732194556566703,0.0,0.0,2.0,0.45,0.6,1.2,100.0,1.0,0.18,0.06151024018780249,0.2,1.0,-160.0,0,1,0,calibrating,0,0,0,0,0,0.0
0.3633837429988489,37,133.59,92.1,3.7,-11.2,0.65,0.02,0.0,0.0,0.93,-0.09,-121.6,-136.9,-137.0,-1.19,3.92,0.25,0.0,0.9343446901438462,0.6503076195155644,0.0,0.0,2.0,0.45,0.6,1.2,100.0,1.0,0.18,0.015087937100470405,0.2,1.0,-160.0,0,1,0,calibrating,0,0,0,0,0,0.0
0.37168310699962603,38,133.6,92.2,3.6,-11.1,0.54,-0.5,-0.29,0.04,0.86,-0.17,-123.1,-150.3,-137.0,-1.15,4.29,0.19,0.0,0.8775534171775528,0.7910120100226039,0.0,0.0,2.0,0.45,0.6,1.2,100.0,1.0,0.18,0.04086926914850664,0.2,1.0,-160.0,0,1,0,calibrating,0,0,0,0,0,0.0
0.38360662900049647,39,133.61,92.2,3.6,-11.1,0.74,-0.72,-0.58,0.12,0.81,-0.26,-124.7,-163.8,-132.0,-1.1,4.63,0.04,0.0,0.8591274643497321,1.184229707446997,0.0,0.0,2.0,0.45,0.6,1.2,100.0,1.0,0.18,0.05810931753680071,0.2,1.0,-160.0,0,1,0,calibrating,0,0,0,0,0,0.0
0.3920341359989834,40,133.62,92.3,3.5,-11.0,1.42,-0.65,-0.75,0.21,0.84,-0.33,-126.4,-175.6,-123.0,-1.05,4.96,0.0,0.0,0.92660671268883,1.7324549056180365,0.0,0.0,2.0,0.45,0.6,1.2,100.0,1.0,0.18,0.009182532186251202,0.2,1.0,-160.0,0,1,0,calibrating,0,0,0,0,0,0.0
0.40344985899901076,41,133.63,92.5,3.5,-11.0,2.11,-0.14,-0.5,0.3,1.0,-0.35,-128.3,-188.8,-130.0,-1.0,5.34,0.07,0.0,1.101135777277262,2.172947307230435,0.0,0.0,2.0,0.45,0.6,1.2,100.0,1.0,0.18,0.18003736483918964,0.2,1.0,-160.0,0,1,0,calibrating,0,0,0,0,0,0.0
0.4118587459997798,42,133.64,92.7,3.4,-11.0,2.56,0.77,-0.04,0.31,1.14,-0.32,-130.3,-204.3,-161.0,-0.94,5.85,0.09,0.0,1.223968953854631,2.67359308796234,0.0,0.0,2.0,0.45,0.6,1.2,100.0,1.0,0.18,0.29681313058822734,0.2,1.0,-160.0,0,1,0,calibrating,0,0,0,0,0,0.0
0.42344079699978465,43,133.65,93.0,3.5,-11.1,2.61,1.6,0.57,0.28,1.24,-0.28,-132.4,-225.6,-203.0,-0.88,6.47,0.09,0.0,1.3016912076218385,3.1140006422606916,0.0,0.0,2.0,0.45,0.6,1.2,100.0,1.0,0.18,0.3670446766683262,0.2,1.0,-160.0,0,1,0,calibrating,0,0,0,0,0,0.0
0.4319981030002964,44,133.66,93.2,3.6,-11.3,2.33,2.13,1.19,0.22,1.24,-0.26,-134.9,-249.0,-218.0,-0.81,7.08,0.12,0.0,1.2859237924542808,3.3737071597872865,0.0,0.0,2.0,0.45,0.6,1.2,100.0,1.0,0.18,0.344251716270753,0.2,1.0,-160.0,0,1,0,calibrating,0,0,0,0,0,0.0
0.4434692949998862,45,133.67,93.4,3.7,-11.5,2.13,2.23,1.65,0.18,1.15,-0.24,-137.5,-269.5,-202.0,-0.74,7.61,0.11,0.0,1.1884864324004711,3.4974705145290357,0.0,0.0,2.0,0.45,0.6,1.2,100.0,1.0,0.18,0.24187806909260445,0.2,1.0,-160.0,0,1,0,calibrating,0,0,0,0,0,0.0
0.4520826259995374,46,133.68,93.6,3.9,-11.7,2.15,2.08,1.92,0.17,1.13,-0.23,-140.3,-288.6,-200.0,-0.66,8.16,-0.09,0.0,1.1656328753085166,3.554616716328218,0.0,0.0,2.0,0.45,0.6,1.2,100.0,1.0,0.18,0.2146440217606369,0.2,1.0,-160.0,0,1,0,calibrating,0,0,0,0,0,0.0
0.4634797130001971,47,133.69,93.9,4.2,-11.9,2.2,2.02,2.28,0.14,1.22,-0.17,-143.4,-309.3,-197.0,-0.57,8.66,-0.07,0.0,1.2397177098033245,3.7574991683299146,0.0,0.0,2.0,0.45,0.6,1.2,100.0,1.0,0.18,0.282954279130336,0.2,1.0,-160.0,0,1,0,calibrating,0,0,0,0,0,0.0
0.4717074309992313,48,133.7,94.1,4.4,-12.1,2.21,2.08,2.7,0.09,1.33,-0.11,-146.6,-323.3,-131.0,-0.48,8.89,0.08,0.0,1.3375724279454926,4.062080747597221,0.0,0.0,2.0,0.45,0.6,1.2,100.0,1.0,0.18,0.373192817327054,0.2,1.0,-160.0,0,1,0,calibrating,0,0,0,0,0,0.0
0.48349148299894296,49,133.71,94.3,4.7,-12.3,2.05,2.08,2.99,0.06,1.45,-0.04,-149.8,-331.0,-100.0,-0.39,9.14,-0.12,0.0,1.4517919961206565,4.179593281648347,0.0,0.0,2.0,0.45,0.6,1.2,100.0,1.0,0.18,0.47766413779217354,0.2,1.0,-160.0,0,1,0,calibrating,0,0,0,0,0,0.0
0.49197561599976325,50,133.72,94.4,5.0,-12.5,1.34,2.13,3.26,0.07,1.6,0.02,-153.2,-340.4,-88.0,-0.3,9.36,0.03,0.0,1.6016553936474602,4.118264197450182,0.0,0.0,2.0,0.45,0.6,1.2,100.0,1.0,0.18,0.6149769846125978,0.2,1.0,-160.0,0,1,0,calibrating,0,0,0,0,0,0.0
0.5035760390001087,51,133.73,94.4,5.4,-12.7,0.1,2.26,3.62,0.02,1.65,0.09,-156.7,-346.8,-68.0,-0.2,9.54,-0.01,0.0,1.652573750245356,4.268723462582227,0.0,0.0,2.0,0.45,0.6,1.2,100.0,1.0,0.18,0.6525774343862836,0.2,1.0,-160.0,0,1,0,calibrating,0,0,0,0,0,0.0
0.511995269000181,52,133.74,94.4,5.8,-12.9,-1.03,2.05,3.65,-0.04,1.44,0.11,-160.2,-355.0,-82.0,-0.11,9.77,-0.04,0.0,1.444749113168096,4.311136741046379,0.0,0.0,2.0,0.45,0.6,1.2,100.0,1.0,0.18,0.4358577413628433,0.2,1.0,-160.0,0,1,0,calibrating,0,0,0,0,0,0.0
0.5236125310002535,53,133.75,94.2,6.1,-13.0,-1.2,1.6,3.06,-0.01,1.19,0.15,-163.8,-359.4,-17.0,-0.01,9.66,-0.12,0.0,1.1994582110269618,3.655625801418958,0.0,0.0,2.0,0.45,0.6,1.2,100.0,1.0,0.18,0.1867555024372749,0.2,1.0,-160.0,0,1,0,calibrating,0,0,0,0,0,0.0
0.5319373490001453,54,133.76,94.1,6.4,-13.1,-0.67,0.9,2.39,0.16,1.09,0.13,-167.3,-353.1,22.0,0.08,9.59,-0.02,0.0,1.109324118551472,2.640265138201086,0.0,0.0,2.0,0.45,0.6,1.2,100.0,1.0,0.18,0.09468898176254936,0.2,1.0,-160.0,0,1,0,calibrating,0,0,0,0,0,0.0
0.5433877929990558,55,133.77,94.1,6.6,-13.2,-0.02,0.76,1.8,0.27,0.99,0.1,-170.9,-355.3,-16.0,0.17,9.68,0.1,0.0,1.0310189135025603,1.953970317072396,0.0,0.0,2.0,0.45,0.6,1.2,100.0,1.0,0.18,0.016056101179364957,0.2,1.0,-160.0,0,1,0,calibrating,0,0,0,0,0,0.0
0.5520184319993859,56,133.78,94.1,6.7,-13.3,0.68,0.94,1.01,0.37,0.94,0.08,-174.4,-354.3,22.0,0.27,9.57,0.07,0.0,1.0133607452432722,1.5382132491953124,0.0,0.0,2.0,0.45,0.6,1.2,100.0,1.0,0.18,0.001570025738324654,0.2,1.0,-160.0,0,1,0,calibrating,0,0,0,0,0,0.0
0.5636231850003242,57,133.79,94.2,6.8,-13.4,0.87,1.51,0.33,0.41,0.93,0.05,-178.0,-353.5,-13.0,0.36,9.68,-0.2,0.0,1.0175952043912158,1.7736685146892583,0.0,0.0,2.0,0.45,0.6,1.2,100.0,1.0,0.18,0.002611144741426541,0.2,1.0,-160.0,0,1,0,calibrating,0,0,0,0,0,0.0
0.5719305999991775,58,133.8,94.2,6.8,-13.6,0.61,2.32,-0.25,0.39,0.93,0.04,-181.5,-358.5,-32.0,0.46,9.79,-0.04,0.0,1.0092571525632108,2.4118457662130885,0.0,0.0,2.0,0.45,0.6,1.2,100.0,1.0,0.18,0.005612368944846846,0.2,1.0,-160.0,0,1,0,calibrating,0,0,0,0,0,0.0
0.5836199739987933,59,133.81,94.2,6.8,-13.9,-0.01,3.23,-0.66,0.31,0.9,0.03,-185.1,-360.2,-16.0,0.56,9.8,0.01,0.0,0.9523654760647301,3.296755981264006,0.0,0.0,2.0,0.45,0.6,1.2,100.0,1.0,0.18,0.06125396453446108,0.2,1.0,-160.0,0,1,0,calibrating,0,0,0,0,0,0.0
0.5920808430000761,60,133.82,94.1,6.8,-14.3,-0.58,4.11,-0.89,0.2,0.87,0.07,-188.7,-360.3,0.0,0.66,9.74,-0.2,0.0,0.8954328562209453,4.2450677261970755,0.0,0.0,2.0,0.45,0.6,1.2,100.0,1.0,0.18,0.11582285269068104,0.2,1.0,-160.0,0,1,0,calibrating,0,0,0,0,0,0.0
0.6035175849992811,61,133.83,94.0,6.7,-14.7,-0.73,4.73,-0.93,0.12,0.85,0.11,-192.3,-353.8,70.0,0.75,9.42,0.01,0.0,0.8654478609367522,4.875520485035419,0.0,0.0,2.0,0.45,0.6,1.2,100.0,1.0,0.18,0.14289169101537658,0.2,1.0,-160.0,0,1,0,calibrating,0,0,0,0,0,0.0
0.6117356390004716,62,133.84,93.9,6.6,-15.2,-0.56,5.04,-0.92,0.06,0.84,0.11,-195.7,-338.0,143.0,0.84,8.89,-0.29,0.0,0.8492938243034621,5.153794718457459,0.0,0.0,2.0,0.45,0.6,1.2,100.0,1.0,0.18,0.15586481309569333,0.2,1.0,-160.0,0,1,0,calibrating,0,0,0,0,0,0.0
0.6235639559999981,63,133.85,93.8,6.6,-15.7,-0.43,5.23,-0.95,0.02,0.85,0.1,-199.0,-314.1,239.0,0.93,8.03,-0.13,0.0,0.8560957890329796,5.332944777512703,0.0,0.0,2.0,0.45,0.6,1.2,100.0,1.0,0.18,0.14608159139885235,0.2,1.0,-160.0,0,1,0,calibrating,0,0,0,0,0,0.0
0.6319654849994549,64,133.86,93.7,6.5,-16.3,-0.55,5.36,-0.95,0.0,0.88,0.11,-201.9,-277.5,338.0,1.0,6.94,-0.14,0.0,0.8868483523128404,5.47125214187758,0.0,0.0,2.0,0.45,0.6,1.2,100.0,1.0,0.18,0.11302244755661162,0.2,1.0,-160.0,0,1,0,calibrating,0,0,0,0,0,0.0
0.6433700469988253,65,133.87,93.5,6.5,-16.8,-0.79,5.41,-0.94,-0.03,0.89,0.11,-204.4,-237.3,375.0,1.06,5.89,-0.23,0.0,0.8972736483370054,5.547594073109531,0.0,0.0,2.0,0.45,0.6,1.2,100.0,1.0,0.18,0.10054520850179771,0.2,1.0,-160.0,0,1,0,calibrating,0,0,0,0,0,0.0
0.6520890760002658,66,133.88,93.4,6.4,-17.4,-0.93,5.29,-0.92,-0.06,0.9,0.12,-206.5,-198.0,399.0,1.11,4.74,0.0,0.0,0.9099450532861861,5.449348584922789,0.0,0.0,2.0,0.45,0.6,1.2,100.0,1.0,0.18,0.08611632748156461,0.2,1.0,-160.0,0,1,0,calibrating,0,0,0,0,0,0.0
0.6634634629990614,67,133.89,93.2,6.3,-17.9,-1.04,5.01,-0.9,-0.07,0.89,0.14,-208.1,-153.5,438.0,1.15,3.47,-0.39,0.0,0.9036592278065886,5.195353693445711,0.0,0.0,2.0,0.45,0.6,1.2,100.0,1.0,0.18,0.0905541099019389,0.2,1.0,-160.0,0,1,0,calibrating,0,0,0,0,0,0.0
0.6720035809994442,68,133.9,93.1,6.3,-18.4,-0.97,4.61,-0.84,-0.07,0.88,0.14,-209.3,-106.5,458.0,1.18,2.18,-0.16,0.0,0.8938120607823549,4.785248164933559,0.0,0.0,2.0,0.45,0.6,1.2,100.0,1.0,0.18,0.0983932513876492,0.2,1.0,-160.0,0,1,0,calibrating,0,0,0,0,0,0.0
0.6835290479994001,69,133.91,92.9,6.2,-18.8,-0.69,4.08,-0.79,-0.07,0.87,0.13,-210.1,-59.1,474.0,1.19,0.88,-0.15,0.0,0.8824397996464122,4.212671361499731,0.0,0.0,2.0,0.45,0.6,1.2,100.0,1.0,0.18,0.10757020227312009,0.2,1.0,-160.0,0,1,0,calibrating,0,0,0,0,0,0.0
0.6920425829994201,70,133.92,92.9,6.2,-19.2,-0.26,3.55,-0.79,-0.06,0.87,0.11,-210.3,-13.4,443.0,1.19,-0.22,-0.17,0.0,0.8789766777338294,3.6461212267284804,0.0,0.0,2.0,0.45,0.6,1.2,100.0,1.0,0.18,0.10881265770198878,0.2,1.0,-160.0,0,1,0,calibrating,0,0,0,0,0,0.0
0.7033989359988482,71,133.93,92.8,6.1,-19.5,0.17,2.99,-0.83,-0.04,0.89,0.09,-210.2,21.4,350.0,1.18,-1.02,-0.1,0.0,0.8954328562209453,3.107716203259236,0.0,0.0,2.0,0.45,0.6,1.2,100.0,1.0,0.18,0.09050934963057544,0.2,1.0,-160.0,0,1,0,calibrating,0,0,0,0,0,0.0
0.7118358850002551,72,133.94,92.8,6.0,-19.8,0.35,2.59,-0.88,-0.02,0.93,0.07,-209.8,49.9,307.0,1.17,-1.77,-0.24,0.0,0.9328451104015072,2.7577164466275352,0.0,0.0,2.0,0.45,0.6,1.2,100.0,1.0,0.18,0.05203515354101329,0.2,1.0,-160.0,0,1,0,calibrating,0,0,0,0,0,0.0
0.7234859750005853,73,133.95,92.8,5.9,-20.1,0.26,2.3,-0.91,0.0,0.97,0.04,-209.1,77.0,281.0,1.15,-2.49,-0.21,0.0,0.9708243919473799,2.4871067528355106,0.0,0.0,2.0,0.45,0.6,1.2,100.0,1.0,0.18,0.0137747545552378,0.2,1.0,-160.0,0,1,0,calibrating,0,0,0,0,0,0.0
0.7320607889996609,74,133.96,92.8,5.9,-20.3,0.0,2.08,-0.9,0.01,0.99,0.02,-208.2,103.9,272.0,1.12,-3.19,0.0,0.0,0.9902524930541705,2.2663627247199423,0.0,0.0,2.0,0.45,0.6,1.2,100.0,1.0,0.18,0.005540279620521726,0.2,1.0,-160.0,0,1,0,calibrating,0,0,0,0,0,0.0
0.7434059819988761,75,133.97,92.8,5.8,-20.5,-0.28,1.96,-0.86,0.03,1.0,0.0,-207.0,129.2,255.0,1.08,-3.86,-0.07,0.0,1.0004498987955368,2.1586106642931235,0.0,0.0,2.0,0.45,0.6,1.2,100.0,1.0,0.18,0.015422931654650252,0.2,1.0,-160.0,0,1,0,calibrating,0,0,0,0,0,0.0
0.7518797150005412,76,133.98,92.7,5.6,-20.7,-0.38,1.85,-0.81,0.03,0.99,-0.01,-205.5,153.3,245.0,1.04,-4.53,-0.16,0.0,0.9905049217444606,2.054993917265937,0.0,0.0,2.0,0.45,0.6,1.2,100.0,1.0,0.18,0.005368395511502588,0.2,1.0,-160.0,0,1,0,calibrating,0,0,0,0,0,0.0
0.7634962249994715,77,133.99,92.6,5.5,-20.9,-0.38,1.75,-0.79,0.04,0.99,-0.03,-203.8,177.4,240.0,0.99,-5.16,0.04,0.0,0.9912618221237011,1.9572940504686567,0.0,0.0,2.0,0.45,0.6,1.2,100.0,1.0,0.18,0.006002789972928246,0.2,1.0,-160.0,0,1,0,calibrating,0,0,0,0,0,0.0
0.7757949629994982,78,134.0,92.5,5.4,-21.1,-0.31,1.68,-0.79,0.04,1.0,-0.05,-201.9,199.9,289.0,0.91,-6.02,-0.17,0.0,1.0020479030465559,1.8821795876058158,0.0,0.0,2.0,0.45,0.6,1.2,100.0,1.0,0.18,0.016453093477867387,0.2,1.0,-160.0,0,1,0,calibrating,0,0,0,0,0,0.0
0.784145907000493,79,134.01,92.5,5.2,-21.4,-0.36,1.61,-0.83,0.06,1.01,-0.09,-198.8,233.8,285.0,0.85,-6.66,-0.12,0.0,1.0157755657624374,1.8467809832245945,0.0,0.0,2.0,0.45,0.6,1.2,100.0,1.0,0.18,0.02957714106987397,0.2,1.0,-160.0,0,1,0,calibrating,0,0,0,0,0,0.0
0.7959028469995246,80,134.02,92.5,5.1,-21.6,-0.48,1.61,-0.86,0.06,0.99,-0.1,-196.4,255.0,227.0,0.78,-7.18,-0.04,0.0,0.9968450230602548,1.8873526432545669,0.0,0.0,2.0,0.45,0.6,1.2,100.0,1.0,0.18,0.010433666400337493,0.2,1.0,-160.0,0,1,0,calibrating,0,0,0,0,0,0.0
0.8040854499995476,81,134.03,92.4,5.1,-21.7,-0.58,1.56,-0.88,0.05,0.98,-0.1,-193.7,273.1,197.0,0.7,-7.66,0.04,0.0,0.9863569333664157,1.882657695918193,0.0,0.0,2.0,0.45,0.6,1.2,100.0,1.0,0.18,5.3334827631590365e-05,0.2,1.0,-160.0,0,1,0,calibrating,0,0,0,0,0,0.0
0.815504553998835,82,134.04,92.4,5.0,-21.9,-0.66,1.47,-0.87,0.05,0.97,-0.1,-190.9,291.2,197.0,0.62,-8.2,-0.11,0.0,0.9764220398987314,1.8312290954438224,0.0,0.0,2.0,0.45,0.6,1.2,100.0,1.0,0.18,0.009788463729409558,0.2,1.0,-160.0,0,1,0,calibrating,0,0,0,0,0,0.0
0.8239772399992944,83,134.05,92.3,4.9,-22.0,-0.7,1.38,-0.87,0.04,0.95,-0.1,-188.0,310.4,204.0,0.54,-8.68,-0.25,0.0,0.9560857702110204,1.775190130662065,0.0,0.0,2.0,0.45,0.6,1.2,100.0,1.0,0.18,0.02952223874877824,0.2,1.0,-160.0,0,1,0,calibrating,0,0,0,0,0,0.0
0.8355807110001479,84,134.06,92.3,4.7,-22.2,-0.72,1.24,-0.89,0.04,0.94,-0.1,-184.7,331.9,224.0,0.45,-9.33,-0.03,0.0,0.9461500938011896,1.6876314763596938,0.0,0.0,2.0,0.45,0.6,1.2,100.0,1.0,0.18,0.0386687568554368,0.2,1.0,-160.0,0,1,0,calibrating,0,0,0,0,0,0.0
0.8437591559995781,85,134.07,92.3,4.6,-22.3,-0.7,1.09,-0.91,0.03,0.94,-0.1,-181.2,357.5,236.0,0.35,-9.98,0.04,0.0,0.9457801012920498,1.5830982281589479,0.0,0.0,2.0,0.45,0.6,1.2,100.0,1.0,0.18,0.038257974377285064,0.2,1.0,-160.0,0,1,0,calibrating,0,0,0,0,0,0.0
0.855698212999414,86,134.08,92.2,4.5,-22.4,-0.72,0.97,-0.92,0.02,0.95,-0.11,-177.5,376.9,195.0,0.25,-10.46,-0.17,0.0,0.9565563234854495,1.518453160291749,0.0,0.0,2.0,0.45,0.6,1.2,100.0,1.0,0.18,0.026932117140207712,0.2,1.0,-160.0,0,1,0,calibrating,0,0,0,0,0,0.0
0.8640218910004478,87,134.09,92.1,4.4,-22.5,-0.88,0.89,-0.92,0.01,0.95,-0.12,-173.6,397.9,225.0,0.14,-11.12,-0.15,0.0,0.957601169589929,1.553351215919954,0.0,0.0,2.0,0.45,0.6,1.2,100.0,1.0,0.18,0.0253695256150136,0.2,1.0,-160.0,0,1,0,calibrating,0,0,0,0,0,0.0
0.8755869979995623,88,134.1,92.0,4.3,-22.6,-1.16,0.79,-0.84,0.0,0.95,-0.12,-169.4,418.8,175.0,0.03,-11.51,-0.08,0.0,0.9575489543621255,1.6356344334844508,0.0,0.0,2.0,0.45,0.6,1.2,100.0,1.0,0.18,0.024913306025960757,0.2,1.0,-160.0,0,1,0,calibrating,0,0,0,0,0,0.0
0.8840392869988136,89,134.11,91.9,4.3,-22.6,-1.47,0.64,-0.71,0.0,0.93,-0.12,-165.1,433.3,197.0,-0.08,-12.1,-0.16,0.0,0.937709976485267,1.7534537347760277,0.0,0.0,2.0,0.45,0.6,1.2,100.0,1.0,0.18,0.04385723822476284,0.2,1.0,-160.0,0,1,0,calibrating,0,0,0,0,0,0.0
0.8955866599990259,90,134.12,91.7,4.2,-22.7,-1.68,0.42,-0.55,-0.01,0.9,-0.12,-160.6,459.4,213.0,-0.21,-12.71,-0.04,0.0,0.9080198235721508,1.8169479904499193,0.0,0.0,2.0,0.45,0.6,1.2,100.0,1.0,0.18,0.07207644331512142,0.2,1.0,-160.0,0,1,0,calibrating,0,0,0,0,0,0.0
0.9040453279994836,91,134.13,91.6,4.2,-22.7,-1.7,0.17,-0.36,-0.01,0.88,-0.12,-155.9,474.2,171.0,-0.34,-13.1,-0.07,0.0,0.8882004278314664,1.7459954180924988,0.0,0.0,2.0,0.45,0.6,1.2,100.0,1.0,0.18,0.09005792227468978,0.2,1.0,-160.0,0,1,0,calibrating,0,0,0,0,0,0.0
0.9154988819991559,92,134.14,91.4,4.1,-22.7,-1.57,-0.08,-0.18,-0.01,0.85,-0.12,-151.1,493.0,188.0,-0.47,-13.64,0.13,0.0,0.85848704125339,1.5823084402227021,0.0,0.0,2.0,0.45,0.6,1.2,100.0,1.0,0.18,0.11737588267571075,0.2,1.0,-160.0,0,1,0,calibrating,0,0,0,0,0,0.0
0.9240052209988789,93,134.15,91.2,4.1,-22.7,-1.36,-0.31,0.0,-0.01,0.85,-0.13,-146.0,517.1,254.0,-0.61,-14.43,-0.1,0.0,0.8599418584997476,1.3948835076808388,0.0,0.0,2.0,0.45,0.6,1.2,100.0,1.0,0.18,0.11360264412076615,0.2,1.0,-160.0,0,1,0,calibrating,0,0,0,0,0,0.0
0.9360590719988977,94,134.16,91.1,4.1,-22.7,-1.13,-0.52,0.16,0.0,0.86,-0.13,-140.6,538.9,184.0,-0.76,-14.8,-0.11,0.0,0.8697700845625814,1.254153100701824,0.0,0.0,2.0,0.45,0.6,1.2,100.0,1.0,0.18,0.10169892969677363,0.2,1.0,-160.0,0,1,0,calibrating,0,0,0,0,0,0.0
0.9440696759993443,95,134.17,91.0,4.2,-22.6,-0.94,-0.68,0.29,0.0,0.87,-0.14,-135.1,559.7,220.0,-0.91,-15.48,-0.13,0.0,0.8811923740024081,1.195867885679685,0.0,0.0,2.0,0.45,0.6,1.2,100.0,1.0,0.18,0.08847110745180797,0.2,1.0,-160.0,0,1,0,calibrating,0,0,0,0,0,0.0
0.9556161319997045,96,134.18,91.0,4.2,-22.5,-0.68,-0.85,0.38,0.0,0.88,-0.14,-129.4,572.8,164.0,-1.07,-15.84,-0.17,0.0,0.8910667763978185,1.1529527310345382,0.0,0.0,2.0,0.45,0.6,1.2,100.0,1.0,0.18,0.0770247709552696,0.2,1.0,-160.0,0,1,0,calibrating,0,0,0,0,0,0.0
0.9640005210003437,97,134.19,90.9,4.2,-22.4,-0.57,-0.96,0.45,0.0,0.89,-0.15,-123.5,598.0,191.0,-1.23,-16.38,-0.05,0.0,0.9025519375637061,1.2037441588643327,0.0,0.0,2.0,0.45,0.6,1.2,100.0,1.0,0.18,0.06422881759359433,0.2,1.0,-160.0,0,1,0,calibrating,0,0,0,0,0,0.0
0.9756157979991258,98,134.2,90.9,4.3,-22.3,-0.58,-1.03,0.54,-0.01,0.88,-0.14,-117.5,606.8,139.0,-1.4,-16.7,0.08,0.0,0.8911228871485682,1.2995768542106312,0.0,0.0,2.0,0.45,0.6,1.2,100.0,1.0,0.18,0.07414471064855743,0.2,1.0,-160.0,0,1,0,calibrating,0,0,0,0,0,0.0
0.9837121759992442,99,134.21,90.8,4.3,-22.2,-0.43,-1.16,0.65,-0.01,0.86,-0.13,-111.3,623.5,184.0,-1.57,-17.28,-0.11,0.0,0.8698275691193054,1.3974977638622539,0.0,0.0,2.0,0.45,0.6,1.2,100.0,1.0,0.18,0.09353122810426406,0.2,1.0,-160.0,0,1,0,calibrating,0,0,0,0,0,0.0
0.9959279929989862,100,134.22,90.8,4.4,-22.1,0.0,-1.36,0.8,-0.01,0.84,-0.13,-104.9,645.4,146.0,-1.74,-17.59,0.0,0.0,0.8500588214941364,1.5778466338652817,0.0,0.0,2.0,0.45,0.6,1.2,100.0,1.0,0.18,0.11103397621484445,0.2,1.0,-160.0,0,1,0,calibrating,0,0,0,0,0,0.0
1.003947908000555,101,134.23,90.8,4.5,-21.9,0.56,-1.55,0.88,0.0,0.83,-0.12,-98.4,657.2,159.0,-1.92,-18.05,0.02,0.0,0.8386298349093001,1.8682879863661277,0.0,0.0,2.0,0.45,0.6,1.2,100.0,1.0,0.18,0.12001370354368712,0.2,1.0,-160.0,0,1,0,calibrating,0,0,0,0,0,0.0
1.0157072940000944,102,134.24,90.9,4.6,-21.8,1.12,-1.67,0.89,0.04,0.86,-0.13,-91.7,660.0,73.0,-2.1,-18.08,0.1,0.0,0.8706893820416096,2.198954296932976,0.0,0.0,2.0,0.45,0.6,1.2,100.0,1.0,0.18,0.08619507328315013,0.2,1.0,-160.0,0,1,0,calibrating,0,0,0,0,0,0.0
1.0240429879995645,103,134.25,91.1,4.7,-21.6,1.4,-1.68,0.83,0.07,0.88,-0.15,-85.1,663.1,-70.0,-2.28,-17.63,0.22,0.0,0.8954328562209453,2.3390810161257773,0.0,0.0,2.0,0.45,0.6,1.2,100.0,1.0,0.18,0.060222567121738124,0.2,1.0,-160.0,0,1,0,calibrating,0,0,0,0,0,0.0
1.0356410770000366,104,134.26,91.2,4.7,-21.4,1.44,-1.54,0.75,0.06,0.91,-0.18,-78.7,619.6,-403.0,-2.45,-15.99,0.52,0.0,0.9295697929687691,2.2377890874700412,0.0,0.0,2.0,0.45,0.6,1.2,100.0,1.0,0.18,0.025563917766436073,0.2,1.0,-160.0,0,1,0,calibrating,0,0,0,0,0,0.0
1.04406218099939,105,134.27,91.4,4.8,-21.3,1.17,-1.34,0.7,0.02,0.93,-0.21,-73.1,529.2,-861.0,-2.59,-12.87,0.82,0.0,0.9536246641105713,1.911674658512792,0.0,0.0,2.0,0.45,0.6,1.2,100.0,1.0,0.18,0.0014788656921411736,0.2,1.0,-160.0,0,1,0,calibrating,0,0,0,0,0,0.0
1.055626329000006,106,134.28,91.5,4.9,-21.2,0.83,-1.26,0.71,0.0,0.96,-0.22,-68.9,371.8,-1528.0,-2.68,-7.59,0.81,0.0,0.9848857801796105,1.6675131183891776,0.0,0.0,2.0,0.45,0.6,1.2,100.0,1.0,0.18,0.02918660536936002,0.2,1.0,-160.0,0,1,0,calibrating,0,0,0,0,0,0.0
1.0640084429996932,107,134.29,91.6,4.9,-21.0,0.76,-1.4,0.68,0.07,0.96,-0.19,-66.6,163.6,-1898.0,-2.72,-1.88,0.94,0.0,0.9811218069128828,1.7320508075688772,0.0,0.0,2.0,0.45,0.6,1.2,100.0,1.0,0.18,0.02491417946057961,0.2,1.0,-160.0,0,1,0,calibrating,0,0,0,0,0,0.0
1.0756714809995174,108,134.3,91.7,5.0,-20.9,1.32,-1.69,0.37,0.17,1.01,-0.18,-66.3,-25.1,-1663.0,-2.71,2.15,0.25,0.0,1.0399038417084534,2.1760974242896385,0.0,0.0,2.0,0.45,0.6,1.2,100.0,1.0,0.18,0.08202228997102723,0.2,1.0,-160.0,0,1,0,calibrating,0,0,0,0,0,0.0
1.0839153060005629,109,134.31,91.9,5.0,-20.7,1.67,-1.89,-0.12,0.37,1.07,-0.17,-67.2,-112.4,-983.0,-2.67,3.72,0.12,0.0,1.1448580698060349,2.5249554451514586,0.0,0.0,2.0,0.45,0.6,1.2,100.0,1.0,0.18,0.1832369877072365,0.2,1.0,-160.0,0,1,0,calibrating,0,0,0,0,0,0.0
1.0956859979996807,110,134.32,92.1,4.9,-20.5,1.45,-1.2,-0.62,0.39,1.17,-0.22,-68.7,-162.7,-647.0,-2.63,4.98,0.25,0.0,1.2527569596693526,1.9816407343411166,0.0,0.0,2.0,0.45,0.6,1.2,100.0,1.0,0.18,0.2853131600191432,0.2,1.0,-160.0,0,1,0,calibrating,0,0,0,0,0,0.0
1.104050844000085,111,134.33,92.1,4.9,-20.5,0.45,-0.22,-0.94,0.26,1.09,-0.18,-70.7,-208.7,-537.0,-2.57,6.28,0.16,0.0,1.134944932584837,1.0651291001564083,0.0,0.0,2.0,0.45,0.6,1.2,100.0,1.0,0.18,0.1641511102759351,0.2,1.0,-160.0,0,1,0,calibrating,0,0,0,0,0,0.0
1.115640447998885,112,134.34,92.2,4.8,-20.5,0.48,0.43,-1.02,0.09,1.04,-0.14,-73.1,-256.8,-481.0,-2.5,7.49,0.14,0.0,1.0532331175955303,1.2065239326262864,0.0,0.0,2.0,0.45,0.6,1.2,100.0,1.0,0.18,0.08079050938089571,0.2,1.0,-160.0,0,1,0,calibrating,0,0,0,0,0,0.0
1.1238738499996543,113,134.35,92.3,4.7,-20.5,1.58,0.27,-0.84,0.04,0.94,-0.04,-75.9,-294.8,-389.0,-2.42,8.4,0.11,0.0,0.9417005893594843,1.8096684779262748,0.0,0.0,2.0,0.45,0.6,1.2,100.0,1.0,0.18,0.030127178478047356,0.2,1.0,-160.0,0,1,0,calibrating,0,0,0,0,0,0.0
1.1357802399998036,114,134.36,92.6,4.6,-20.5,3.49,-0.43,-0.78,0.04,0.93,-0.04,-79.1,-323.9,-294.0,-2.33,9.05,-0.05,0.0,0.9317188417113825,3.6018606302854086,0.0,0.0,2.0,0.45,0.6,1.2,100.0,1.0,0.18,0.03930674760362618,0.2,1.0,-160.0,0,1,0,calibrating,0,0,0,0,0,0.0
1.143984640999406,115,134.37,93.0,4.5,-20.4,5.06,-1.03,-1.15,0.11,1.08,-0.08,-82.4,-339.2,-179.0,-2.23,9.36,-0.07,0.0,1.0885311203635843,5.290274094978444,0.0,0.0,2.0,0.45,0.6,1.2,100.0,1.0,0.18,0.11515542042760418,0.2,1.0,-160.0,0,1,0,calibrating,0,0,0,0,0,0.0
1.1554781920003734,116,134.38,93.6,4.3,-20.3,5.09,-0.96,-1.58,0.18,1.27,-0.13,-85.9,-346.8,-93.0,-2.14,9.46,-0.06,0.0,1.2892633555639437,5.4153577905804156,0.0,0.0,2.0,0.45,0.6,1.2,100.0,1.0,0.18,0.3095699025154043,0.2,1.0,-160.0,0,1,0,calibrating,0,0,0,0,0,0.0
1.1639951889992517,117,134.39,94.1,4.2,-20.3,4.19,-0.52,-2.16,0.19,1.39,-0.08,-89.3,-341.3,61.0,-2.05,9.02,0.1,0.0,1.4052046114356442,4.742583684027094,0.0,0.0,2.0,0.45,0.6,1.2,100.0,1.0,0.18,0.41700093521936277,0.2,1.0,-160.0,0,1,0,calibrating,0,0,0,0,0,0.0
1.175693371998932,118,134.4,94.4,4.0,-20.3,2.88,-0.06,-2.82,0.15,1.36,-0.05,-92.6,-315.4,214.0,-1.96,8.2,0.03,0.0,1.3691603266235843,4.031178487737798,0.0,0.0,2.0,0.45,0.6,1.2,100.0,1.0,0.18,0.37333751739915677,0.2,1.0,-160.0,0,1,0,calibrating,0,0,0,0,0,0.0
1.1840286259994173,119,134.41,94.6,3.7,-20.3,2.28,0.41,-3.43,0.1,1.35,-0.05,-95.5,-287.3,251.0,-1.89,7.47,-0.04,0.0,1.3546217184144067,4.139009543356961,0.0,0.0,2.0,0.45,0.6,1.2,100.0,1.0,0.18,0.3516229310061796,0.2,1.0,-160.0,0,1,0,calibrating,0,0,0,0,0,0.0
1.195686029999706,120,134.42,94.8,3.3,-20.4,2.17,0.7,-3.61,0.04,1.37,-0.02,-98.2,-257.6,296.0,-1.82,6.59,-0.2,0.0,1.370729732660673,4.269777511768031,0.0,0.0,2.0,0.45,0.6,1.2,100.0,1.0,0.18,0.36037632634739714,0.2,1.0,-160.0,0,1,0,calibrating,0,0,0,0,0,0.0
1.2040182199998526,121,134.43,95.0,3.0,-20.5,1.8,0.77,-3.32,-0.06,1.39,0.0,-100.6,-223.5,329.0,-1.76,5.64,0.02,0.0,1.3912943613772033,3.8542573863197043,0.0,0.0,2.0,0.45,0.6,1.2,100.0,1.0,0.18,0.37332213596264885,0.2,1.0,-160.0,0,1,0,calibrating,0,0,0,0,0,0.0
1.2156108059989492,122,134.44,95.1,2.7,-20.6,1.09,0.51,-2.66,-0.19,1.39,0.04,-102.6,-189.6,333.0,-1.71,4.74,-0.19,0.0,1.4034956359034394,2.9195547605756604,0.0,0.0,2.0,0.45,0.6,1.2,100.0,1.0,0.18,0.3778129422791072,0.2,1.0,-160.0,0,1,0,calibrating,0,0,0,0,0,0.0
1.223735752999346,123,134.45,95.2,2.4,-20.6,0.39,-0.1,-1.82,-0.28,1.35,0.11,-104.2,-157.3,324.0,-1.67,3.89,-0.11,0.0,1.3831124321616086,1.8640010729610648,0.0,0.0,2.0,0.45,0.6,1.2,100.0,1.0,0.18,0.35028114376653097,0.2,1.0,-160.0,0,1,0,calibrating,0,0,0,0,0,0.0
1.2357831119988987,124,134.46,95.2,2.3,-20.6,0.09,-1.05,-0.96,-0.36,1.27,0.14,-105.6,-127.2,296.0,-1.63,3.12,-0.17,0.0,1.3274411474713295,1.4255525244620066,0.0,0.0,2.0,0.45,0.6,1.2,100.0,1.0,0.18,0.2887176618947267,0.2,1.0,-160.0,0,1,0,calibrating,0,0,0,0,0,0.0
1.244132919000549,125,134.47,95.2,2.2,-20.4,0.14,-2.22,-0.27,-0.37,1.19,0.18,-106.7,-100.4,269.0,-1.61,2.43,0.13,0.0,1.259126681474108,2.2407364860688106,0.0,0.0,2.0,0.45,0.6,1.2,100.0,1.0,0.18,0.21599513197955522,0.2,1.0,-160.0,0,1,0,calibrating,0,0,0,0,0,0.0
1.2556839589997253,126,134.48,95.2,2.2,-20.1,0.14,-3.5,0.22,-0.33,1.13,0.22,-107.5,-78.1,228.0,-1.58,1.87,0.07,0.0,1.1975808949711915,3.5097008419522027,0.0,0.0,2.0,0.45,0.6,1.2,100.0,1.0,0.18,0.15136035856710595,0.2,1.0,-160.0,0,1,0,calibrating,0,0,0,0,0,0.0
1.2640269749990694,127,134.49,95.3,2.2,-19.7,-0.14,-4.62,0.5,-0.25,1.07,0.27,-108.2,-58.6,207.0,-1.57,1.35,0.14,0.0,1.1315034246523517,4.649085931664417,0.0,0.0,2.0,0.45,0.6,1.2,100.0,1.0,0.18,0.0835772304833009,0.2,1.0,-160.0,0,1,0,calibrating,0,0,0,0,0,0.0
1.2756908589999512,128,134.5,95.2,2.2,-19.2,-0.63,-5.53,0.52,-0.16,1.0,0.28,-108.6,-42.3,174.0,-1.56,0.94,-0.07,0.0,1.0507140429250958,5.590008944536672,0.0,0.0,2.0,0.45,0.6,1.2,100.0,1.0,0.18,0.0027320917809241507,0.2,1.0,-160.0,0,1,0,calibrating,0,0,0,0,0,0.0
1.2840029109993338,129,134.51,95.2,2.2,-18.6,-1.04,-6.4,0.39,-0.08,0.92,0.25,-108.9,-25.3,181.0,-1.55,0.45,-0.08,0.0,0.9567131231461184,6.495667787071627,0.0,0.0,2.0,0.45,0.6,1.2,100.0,1.0,0.18,0.08944345143809229,0.2,1.0,-160.0,0,1,0,calibrating,0,0,0,0,0,0.0
1.295686186000239,130,134.52,95.1,2.2,-17.9,-1.26,-6.93,0.09,-0.01,0.83,0.18,-109.1,-6.2,182.0,-1.55,-0.04,0.0,0.0,0.8493526947034429,7.044189094565818,0.0,0.0,2.0,0.45,0.6,1.2,100.0,1.0,0.18,0.19286780228315248,0.2,1.0,-160.0,0,1,0,calibrating,0,0,0,0,0,0.0
1.3040917529997387,131,134.53,95.0,2.1,-17.2,-1.31,-7.04,-0.21,0.04,0.77,0.11,-109.0,4.1,85.0,-1.55,-0.09,0.15,0.0,0.7788452991448301,7.163923506012609,0.0,0.0,2.0,0.45,0.6,1.2,100.0,1.0,0.18,0.25810769388492993,0.2,1.0,-160.0,0,1,0,calibrating,0,0,0,0,0,0.0
1.315637916999549,132,134.54,94.9,2.0,-16.5,-1.2,-7.0,-0.46,0.1,0.74,0.05,-109.0,2.3,15.0,-1.55,-0.03,0.09,0.0,0.7483982896827063,7.116993747362716,0.0,0.0,2.0,0.45,0.6,1.2,100.0,1.0,0.18,0.2827836092801127,0.2,1.0,-160.0,0,1,0,calibrating,0,0,0,0,0,0.0
1.3237362740001117,133,134.55,94.8,1.9,-15.9,-1.12,-6.67,-0.61,0.16,0.76,0.0,-109.0,1.6,10.0,-1.55,-0.06,0.07,0.0,0.776659513557904,6.79083205505776,0.0,0.0,2.0,0.45,0.6,1.2,100.0,1.0,0.18,0.24943193769681682,0.2,1.0,-160.0,0,1,0,calibrating,0,0,0,0,0,0.0
1.3358863920002477,134,134.56,94.7,1.8,-15.2,-1.04,-6.08,-0.65,0.21,0.79,-0.05,-109.0,2.8,14.0,-1.55,-0.1,-0.07,0.0,0.8189627586160436,6.202459189708547,0.0,0.0,2.0,0.45,0.6,1.2,100.0,1.0,0.18,0.20298611878590356,0.2,1.0,-160.0,0,1,0,calibrating,0,0,0,0,0,0.0
1.3439490439996007,135,134.57,94.6,1.7,-14.7,-0.9,-5.35,-0.55,0.24,0.84,-0.08,-108.9,5.2,14.0,-1.56,-0.15,-0.1,0.0,0.8772684879784522,5.452980836203259,0.0,0.0,2.0,0.45,0.6,1.2,100.0,1.0,0.18,0.14178678163502512,0.2,1.0,-160.0,0,1,0,calibrating,0,0,0,0,0,0.0
1.3557179639992682,136,134.58,94.6,1.6,-14.2,-0.74,-4.53,-0.38,0.26,0.89,-0.1,-108.9,4.4,-7.0,-1.56,-0.08,-0.03,0.0,0.9325770745627409,4.605746410735181,0.0,0.0,2.0,0.45,0.6,1.2,100.0,1.0,0.18,0.08474863114972186,0.2,1.0,-160.0,0,1,0,calibrating,0,0,0,0,0,0.0
1.3639112130003923,137,134.59,94.5,1.5,-13.8,-0.69,-3.68,-0.19,0.25,0.95,-0.11,-108.9,0.8,-27.0,-1.56,0.01,0.06,0.0,0.9884836872705588,3.748946518690284,0.0,0.0,2.0,0.45,0.6,1.2,100.0,1.0,0.18,0.028265178073065944,0.2,1.0,-160.0,0,1,0,calibrating,0,0,0,0,0,0.0
1.3758478549989377,138,134.6,94.4,1.5,-13.5,-0.6,-2.87,0.01,0.23,1.01,-0.11,-108.9,-0.3,-6.0,-1.56,0.0,-0.13,0.0,1.0416813332300814,2.932064119353463,0.0,0.0,2.0,0.45,0.6,1.2,100.0,1.0,0.18,0.024433818528727613,0.2,1.0,-160.0,0,1,0,calibrating,0,0,0,0,0,0.0
1.3839625790005812,139,134.61,94.4,1.5,-13.2,-0.58,-2.16,0.27,0.2,1.07,-0.1,-108.9,0.0,-4.0,-1.56,0.0,-0.12,0.0,1.0931148155614763,2.252753870266346,0.0,0.0,2.0,0.45,0.6,1.2,100.0,1.0,0.18,0.07434995484292006,0.2,1.0,-160.0,0,1,0,calibrating,0,0,0,0,0,0.0
1.3957477570002084,140,134.62,94.3,1.5,-13.0,-0.63,-1.66,0.55,0.17,1.1,-0.07,-108.9,-0.1,-1.0,-1.56,0.0,0.06,0.0,1.1152578177264663,1.8587630295441107,0.0,0.0,2.0,0.45,0.6,1.2,100.0,1.0,0.18,0.09456309786775208,0.2,1.0,-160.0,0,1,0,calibrating,0,0,0,0,0,0.0
1.404041056999631,141,134.63,94.3,1.7,-12.9,-0.76,-1.37,0.76,0.15,1.09,-0.06,-108.9,-0.3,-3.0,-1.56,0.01,-0.11,0.0,1.1019074371289088,1.7412926233117743,0.0,0.0,2.0,0.45,0.6,1.2,100.0,1.0,0.18,0.07958846292479049,0.2,1.0,-160.0,0,1,0,calibrating,0,0,0,0,0,0.0
1.415640421999342,142,134.64,94.2,1.8,-12.7,-0.93,-1.22,0.84,0.13,1.06,-0.06,-108.9,-1.2,-1.0,-1.56,0.02,0.06,0.0,1.0696261028976435,1.7489711261195824,0.0,0.0,2.0,0.45,0.6,1.2,100.0,1.0,0.18,0.04636098611965456,0.2,1.0,-160.0,0,1,0,calibrating,0,0,0,0,0,0.0
1.423856760999115,143,134.65,94.1,1.9,-12.6,-1.07,-1.15,0.82,0.11,1.02,-0.06,-108.9,-0.5,0.0,-1.56,0.02,-0.06,0.0,1.0276672613253768,1.771948080503489,0.0,0.0,2.0,0.45,0.6,1.2,100.0,1.0,0.18,0.004314101656440084,0.2,1.0,-160.0,0,1,0,calibrating,0,0,0,0,0,0.0
1.4357694259997515,144,134.66,94.0,2.0,-12.5,-1.11,-1.09,0.78,0.09,0.98,-0.07,-108.9,-2.3,-14.0,-1.56,0.09,0.06,0.0,0.986610358753647,1.740287332597695,0.0,0.0,2.0,0.45,0.6,1.2,100.0,1.0,0.18,0.03600794489698389,0.2,1.0,-160.0,0,1,0,calibrating,0,0,0,0,0,0.0
1.444070133000423,145,134.67,93.9,2.1,-12.4,-1.02,-1.08,0.75,0.08,0.97,-0.08,-108.9,-3.3,-9.0,-1.56,0.1,0.13,0.0,0.9765756499114648,1.6641213898030396,0.0,0.0,2.0,0.45,0.6,1.2,100.0,1.0,0.18,0.04512180066438276,0.2,1.0,-160.0,0,1,0,calibrating,0,0,0,0,0,0.0
1.4556224019997899,146,134.68,93.8,2.2,-12.3,-0.89,-1.1,0.79,0.08,0.99,-0.09,-109.0,-4.4,-19.0,-1.55,0.16,0.0,0.0,0.9972963451251589,1.620555460328341,0.0,0.0,2.0,0.45,0.6,1.2,100.0,1.0,0.18,0.023913083341674968,0.2,1.0,-160.0,0,1,0,calibrating,0,0,0,0,0,0.0
1.4637809899995773,147,134.69,93.7,2.3,-12.1,-0.87,-1.14,0.87,0.09,1.02,-0.1,-109.0,-8.8,-42.0,-1.55,0.32,-0.18,0.0,1.0288342918079665,1.6773192898193234,0.0,0.0,2.0,0.45,0.6,1.2,100.0,1.0,0.18,0.0074723660743099,0.2,1.0,-160.0,0,1,0,calibrating,0,0,0,0,0,0.0
1.4758168009993824,148,134.7,93.7,2.4,-12.0,-0.94,-1.14,0.96,0.1,1.02,-0.11,-109.2,-16.2,-70.0,-1.55,0.55,0.11,0.0,1.0307764064044151,1.7620442673213406,0.0,0.0,2.0,0.45,0.6,1.2,100.0,1.0,0.18,0.009226191057343458,0.2,1.0,-160.0,0,1,0,calibrating,0,0,0,0,0,0.0
1.4840098019994912,149,134.71,93.6,2.6,-11.9,-1.16,-1.1,1.05,0.11,1.01,-0.13,-109.4,-27.7,-99.0,-1.54,0.86,0.09,0.0,1.0242558274181308,1.9126160095534075,0.0,0.0,2.0,0.45,0.6,1.2,100.0,1.0,0.18,0.00265149982963786,0.2,1.0,-160.0,0,1,0,calibrating,0,0,0,0,0,0.0
1.4957240109997656,150,134.72,93.5,2.7,-11.8,-1.31,-1.04,1.17,0.12,0.98,-0.14,-109.8,-36.7,-91.0,-1.53,1.11,-0.11,0.0,0.9971960689854327,2.041225122322376,0.0,0.0,2.0,0.45,0.6,1.2,100.0,1.0,0.18,0.02392009343099899,0.2,1.0,-160.0,0,1,0,calibrating,0,0,0,0,0,0.0
1.5040800440001476,151,134.73,93.4,2.8,-11.7,-1.29,-0.95,1.31,0.14,0.95,-0.14,-110.2,-44.5,-80.0,-1.52,1.29,0.16,0.0,0.9704122835166504,2.0694685308068834,0.0,0.0,2.0,0.45,0.6,1.2,100.0,1.0,0.18,0.04968980132178569,0.2,1.0,-160.0,0,1,0,calibrating,0,0,0,0,0,0.0
1.515644451999833,152,134.74,93.2,3.0,-11.6,-1.22,-0.86,1.43,0.16,0.92,-0.15,-110.7,-52.4,-85.0,-1.5,1.54,-0.1,0.0,0.9457801012920498,2.0670994170576313,0.0,0.0,2.0,0.45,0.6,1.2,100.0,1.0,0.18,0.07283554387545854,0.2,1.0,-160.0,0,1,0,calibrating,0,0,0,0,0,0.0
1.523906213000373,153,134.75,93.1,3.1,-11.5,-1.01,-0.76,1.51,0.17,0.9,-0.14,-111.3,-59.7,-61.0,-1.48,1.66,-0.1,0.0,0.9265527507918802,1.9692130407855826,0.0,0.0,2.0,0.45,0.6,1.2,100.0,1.0,0.18,0.09022163648811554,0.2,1.0,-160.0,0,1,0,calibrating,0,0,0,0,0,0.0
1.535702721999769,154,134.76,93.1,3.2,-11.4,-0.85,-0.64,1.54,0.19,0.87,-0.15,-111.9,-60.8,-22.0,-1.47,1.65,0.11,0.0,0.9030503861911582,1.8718172987767796,0.0,0.0,2.0,0.45,0.6,1.2,100.0,1.0,0.18,0.11144952106706085,0.2,1.0,-160.0,0,1,0,calibrating,0,0,0,0,0,0.0
1.5440832189997309,155,134.77,93.0,3.4,-11.3,-0.77,-0.52,1.5,0.21,0.86,-0.16,-112.5,-61.8,-13.0,-1.45,1.68,0.3,0.0,0.8996110270555825,1.7644545899512403,0.0,0.0,2.0,0.45,0.6,1.2,100.0,1.0,0.18,0.11259110259858385,0.2,1.0,-160.0,0,1,0,calibrating,0,0,0,0,0,0.0
1.5556522909992054,156,134.78,92.9,3.5,-11.3,-0.8,-0.38,1.35,0.22,0.83,-0.16,-113.1,-61.5,-5.0,-1.43,1.68,-0.03,0.0,0.8734414691323054,1.61458973117012,0.0,0.0,2.0,0.45,0.6,1.2,100.0,1.0,0.18,0.1359854473114237,0.2,1.0,-160.0,0,1,0,calibrating,0,0,0,0,0,0.0
1.5637893530001747,157,134.79,92.8,3.7,-11.3,-0.91,-0.27,1.09,0.24,0.8,-0.16,-113.7,-62.9,-9.0,-1.42,1.71,0.05,0.0,0.850411665018772,1.4453719244540486,0.0,0.0,2.0,0.45,0.6,1.2,100.0,1.0,0.18,0.155834946396458,0.2,1.0,-160.0,0,1,0,calibrating,0,0,0,0,0,0.0
1.5758329130003403,158,134.8,92.7,3.7,-11.2,-1.04,-0.16,0.71,0.26,0.75,-0.17,-114.3,-59.9,30.0,-1.4,1.55,-0.12,0.0,0.8117881497040962,1.2693699224418389,0.0,0.0,2.0,0.45,0.6,1.2,100.0,1.0,0.18,0.19056929247691112,0.2,1.0,-160.0,0,1,0,calibrating,0,0,0,0,0,0.0
1.5841228329991281,159,134.81,92.6,3.8,-11.2,-1.17,0.0,0.22,0.27,0.7,-0.2,-114.9,-55.0,33.0,-1.39,1.46,-0.03,0.0,0.7764663547121665,1.190504094911059,0.0,0.0,2.0,0.45,0.6,1.2,100.0,1.0,0.18,0.22137326571946392,0.2,1.0,-160.0,0,1,0,calibrating,0,0,0,0,0,0.0
1.5957882049988257,160,134.82,92.5,3.8,-11.2,-1.24,0.27,-0.2,0.29,0.7,-0.22,-115.4,-51.5,34.0,-1.37,1.36,-0.07,0.0,0.788986691902975,1.2847178678604887,0.0,0.0,2.0,0.45,0.6,1.2,100.0,1.0,0.18,0.2046758699580823,0.2,1.0,-160.0,0,1,0,calibrating,0,0,0,0,0,0.0
1.604072307000024,161,134.83,92.4,3.8,-11.3,-1.11,0.88,-0.46,0.28,0.73,-0.23,-115.9,-47.7,33.0,-1.36,1.26,-0.04,0.0,0.8149846624323674,1.4893287078412205,0.0,0.0,2.0,0.45,0.6,1.2,100.0,1.0,0.18,0.175104341440116,0.2,1.0,-160.0,0,1,0,calibrating,0,0,0,0,0,0.0
1.6155607450000389,162,134.84,92.3,3.7,-11.4,-0.62,1.26,-0.42,0.26,0.79,-0.2,-116.4,-44.4,33.0,-1.35,1.16,-0.07,0.0,0.8553946457629953,1.46574213284602,0.0,0.0,2.0,0.45,0.6,1.2,100.0,1.0,0.18,0.1320004709472984,0.2,1.0,-160.0,0,1,0,calibrating,0,0,0,0,0,0.0
1.6241021719997661,163,134.85,92.2,3.7,-11.6,-0.31,1.63,-0.31,0.23,0.83,-0.18,-116.8,-40.0,35.0,-1.34,1.06,0.0,0.0,0.8798863562983574,1.6879277235711247,0.0,0.0,2.0,0.45,0.6,1.2,100.0,1.0,0.18,0.10535858520369756,0.2,1.0,-160.0,0,1,0,calibrating,0,0,0,0,0,0.0
1.6355878399990615,164,134.86,92.2,3.7,-11.7,-0.16,1.9,-0.25,0.19,0.84,-0.17,-117.2,-37.2,23.0,-1.33,1.01,0.03,0.0,0.8778382538941898,1.9230444612644815,0.0,0.0,2.0,0.45,0.6,1.2,100.0,1.0,0.18,0.10525855385570793,0.2,1.0,-160.0,0,1,0,calibrating,0,0,0,0,0,0.0
1.644039912000153,165,134.87,92.2,3.6,-11.9,0.01,2.08,-0.27,0.15,0.84,-0.16,-117.5,-37.3,2.0,-1.32,1.02,-0.11,0.0,0.8681589716175258,2.097474672075923,0.0,0.0,2.0,0.45,0.6,1.2,100.0,1.0,0.18,0.11263907940972451,0.2,1.0,-160.0,0,1,0,calibrating,0,0,0,0,0,0.0
1.655734656000277,166,134.88,92.2,3.6,-12.2,0.23,2.2,-0.32,0.11,0.81,-0.15,-117.9,-39.8,-17.0,-1.31,1.12,0.02,0.0,0.8310836299675263,2.235016778460511,0.0,0.0,2.0,0.45,0.6,1.2,100.0,1.0,0.18,0.14672013263852957,0.2,1.0,-160.0,0,1,0,calibrating,0,0,0,0,0,0.0
1.6640004199998657,167,134.89,92.2,3.6,-12.4,0.52,2.16,-0.31,0.08,0.82,-0.14,-118.3,-43.9,-44.0,-1.29,1.28,-0.05,0.0,0.835703296631047,2.2432342722060934,0.0,0.0,2.0,0.45,0.6,1.2,100.0,1.0,0.18,0.1392584566555085,0.2,1.0,-160.0,0,1,0,calibrating,0,0,0,0,0,0.0
1.6758520860003046,168,134.9,92.3,3.6,-12.6,0.81,2.02,-0.2,0.05,0.86,-0.1,-118.8,-52.2,-78.0,-1.28,1.55,0.02,0.0,0.8672369918309527,2.185520532962342,0.0,0.0,2.0,0.45,0.6,1.2,100.0,1.0,0.18,0.1055702662264909,0.2,1.0,-160.0,0,1,0,calibrating,0,0,0,0,0,0.0
1.6838890409999294,169,134.91,92.4,3.6,-12.8,1.02,1.66,-0.04,0.03,0.91,-0.05,-119.4,-62.4,-101.0,-1.26,1.85,0.23,0.0,0.9118662182579197,1.9487431847218863,0.0,0.0,2.0,0.45,0.6,1.2,100.0,1.0,0.18,0.05972221900353347,0.2,1.0,-160.0,0,1,0,calibrating,0,0,0,0,0,0.0
1.695777184999315,170,134.92,92.5,3.6,-12.9,1.09,1.16,0.12,0.02,0.98,-0.03,-120.2,-77.0,-138.0,-1.24,2.28,0.17,0.0,0.9806630410084801,1.5962769183321546,0.0,0.0,2.0,0.45,0.6,1.2,100.0,1.0,0.18,0.008893111672086396,0.2,1.0,-160.0,0,1,0,calibrating,0,0,0,0,0,0.0
1.703820275999533,171,134.93,92.6,3.6,-13.0,0.95,0.56,0.27,0.03,1.0,-0.06,-121.0,-92.6,-155.0,-1.21,2.73,0.14,0.0,1.0022474744293446,1.1353413583587977,0.0,0.0,2.0,0.45,0.6,1.2,100.0,1.0,0.18,0.029867994191091873,0.2,1.0,-160.0,0,1,0,calibrating,0,0,0,0,0,0.0
1.7157778719993075,172,134.94,92.7,3.6,-13.0,0.88,0.06,0.34,0.04,1.0,-0.11,-122.1,-109.9,-165.0,-1.18,3.2,0.28,0.0,1.0068266980965492,0.9453041838477179,0.0,0.0,2.0,0.45,0.6,1.2,100.0,1.0,0.18,0.03375827350113059,0.2,1.0,-160.0,0,1,0,calibrating,0,0,0,0,0,0.0
1.7241356559989072,173,134.95,92.9,3.6,-13.0,0.94,-0.29,0.39,0.06,1.0,-0.18,-123.3,-127.7,-175.0,-1.15,3.7,0.29,0.0,1.0178408519999578,1.0582060290888538,0.0,0.0,2.0,0.45,0.6,1.2,100.0,1.0,0.18,0.04387697885644837,0.2,1.0,-160.0,0,1,0,calibrating,0,0,0,0,0,0.0
1.7356920660004107,174,134.96,93.0,3.7,-13.0,1.21,-0.47,0.51,0.09,1.0,-0.23,-124.7,-147.2,-194.0,-1.11,4.25,0.19,0.0,1.030048542545447,1.394668419374297,0.0,0.0,2.0,0.45,0.6,1.2,100.0,1.0,0.18,0.05496297601389888,0.2,1.0,-160.0,0,1,0,calibrating,0,0,0,0,0,0.0
1.7440551269992284,175,134.97,93.1,3.7,-12.9,1.62,-0.4,0.66,0.15,1.04,-0.26,-126.3,-167.9,-204.0,-1.06,4.82,0.23,0.0,1.0824509226750192,1.7944358444926363,0.0,0.0,2.0,0.45,0.6,1.2,100.0,1.0,0.18,0.10521804902060161,0.2,1.0,-160.0,0,1,0,calibrating,0,0,0,0,0,0.0
1.7557162630000676,176,134.98,93.3,3.8,-12.9,1.86,0.0,1.07,0.17,1.13,-0.23,-128.2,-190.0,-215.0,-1.01,5.42,0.12,0.0,1.1656328753085166,2.145809870421888,0.0,0.0,2.0,0.45,0.6,1.2,100.0,1.0,0.18,0.184632001621017,0.2,1.0,-160.0,0,1,0,calibrating,0,0,0,0,0,0.0
1.763992906000567,177,134.99,93.5,3.9,-12.9,1.87,0.44,1.46,0.15,1.15,-0.19,-130.2,-213.2,-237.0,-0.95,6.12,0.19,0.0,1.1752021102772066,2.4129028161117474,0.0,0.0,2.0,0.45,0.6,1.2,100.0,1.0,0.18,0.19031721185791284,0.2,1.0,-160.0,0,1,0,calibrating,0,0,0,0,0,0.0
1.775764366999283,178,135.0,93.5,3.9,-12.9,1.87,0.44,1.46,0.15,1.15,-0.19,-131.9,-233.2,-306.0,-0.88,6.97,0.1,0.0,1.1752021102772066,2.4129028161117474,0.0,0.0,2.0,0.45,0.6,1.2,100.0,1.0,0.18,0.18651086762075453,0.2,1.0,-160.0,0,1,0,calibrating,0,0,0,0,0,0.0
1.783982308999839,179,135.01,93.9,4.4,-13.0,1.98,1.0,2.29,0.12,1.31,-0.12,-135.4,-270.5,-302.0,-0.8,7.65,0.03,0.0,1.3209466302617983,3.188181299738144,0.0,0.0,2.0,0.45,0.6,1.2,100.0,1.0,0.18,0.3256102798532393,0.2,1.0,-160.0,0,1,0,calibrating,0,0,0,0,0,0.0
1.7959307759992953,180,135.02,94.1,4.6,-13.1,1.89,1.04,2.88,0.09,1.43,-0.03,-138.3,-293.8,-253.0,-0.72,8.27,0.02,0.0,1.4331433982682962,3.598346842648718,0.0,0.0,2.0,0.45,0.6,1.2,100.0,1.0,0.18,0.42905090690254233,0.2,1.0,-160.0,0,1,0,calibrating,0,0,0,0,0,0.0
1.8038454149991594,181,135.03,94.2,4.9,-13.2,1.47,0.99,3.54,0.08,1.54,0.04,-141.4,-317.6,-248.0,-0.63,8.93,0.0,0.0,1.542595215861893,3.9588634732710855,0.0,0.0,2.0,0.45,0.6,1.2,100.0,1.0,0.18,0.5277326700062166,0.2,1.0,-160.0,0,1,0,calibrating,0,0,0,0,0,0.0
1.8159081789999618,182,135.04,94.3,5.3,-13.3,0.84,0.88,4.07,0.08,1.61,0.08,-144.7,-339.0,-200.0,-0.54,9.39,-0.02,0.0,1.6139702599490489,4.24792890712639,0.0,0.0,2.0,0.45,0.6,1.2,100.0,1.0,0.18,0.587125559811505,0.2,1.0,-160.0,0,1,0,calibrating,0,0,0,0,0,0.0
1.8240938519993506,183,135.05,94.3,5.7,-13.3,-0.27,0.75,4.1,0.09,1.5,0.09,-148.2,-348.5,-117.0,-0.45,9.56,0.03,0.0,1.5053903148353256,4.176769086267519,0.0,0.0,2.0,0.45,0.6,1.2,100.0,1.0,0.18,0.468974702403826,0.2,1.0,-160.0,0,1,0,calibrating,0,0,0,0,0,0.0
1.8358180539999012,184,135.06,94.2,6.1,-13.3,-0.92,0.47,3.52,0.13,1.3,0.07,-151.7,-355.7,-83.0,-0.35,9.74,-0.17,0.0,1.3083577492413916,3.6684737970987333,0.0,0.0,2.0,0.45,0.6,1.2,100.0,1.0,0.18,0.26650329407369444,0.2,1.0,-160.0,0,1,0,calibrating,0,0,0,0,0,0.0
1.843832847000158,185,135.07,94.1,6.4,-13.3,-0.8,0.22,2.55,0.22,1.14,0.06,-155.3,-358.9,-34.0,-0.25,9.75,-0.01,0.0,1.1625833303466895,2.6815853519886326,0.0,0.0,2.0,0.45,0.6,1.2,100.0,1.0,0.18,0.11831429767541257,0.2,1.0,-160.0,0,1,0,calibrating,0,0,0,0,0,0.0
1.855988224999237,186,135.08,94.1,6.6,-13.3,-0.22,0.16,1.66,0.33,1.04,0.03,-158.9,-359.5,-28.0,-0.15,9.82,0.1,0.0,1.091512711790385,1.6821414922651423,0.0,0.0,2.0,0.45,0.6,1.2,100.0,1.0,0.18,0.04629880553672594,0.2,1.0,-160.0,0,1,0,calibrating,0,0,0,0,0,0.0
1.863960466998833,187,135.09,94.1,6.8,-13.4,0.65,0.54,0.89,0.39,1.03,0.01,-162.5,-361.0,0.0,-0.05,9.76,-0.12,0.0,1.1014081895464551,1.227273400673216,0.0,0.0,2.0,0.45,0.6,1.2,100.0,1.0,0.18,0.05507039762693999,0.2,1.0,-160.0,0,1,0,calibrating,0,0,0,0,0,0.0
1.875939905999985,188,135.1,94.2,6.8,-13.5,1.04,1.17,0.3,0.4,1.08,-0.01,-166.1,-353.4,57.0,0.03,9.52,-0.02,0.0,1.1517378173872732,1.5938946012832842,0.0,0.0,2.0,0.45,0.6,1.2,100.0,1.0,0.18,0.10329202495840306,0.2,1.0,-160.0,0,1,0,calibrating,0,0,0,0,0,0.0
1.8840708219995577,189,135.11,94.3,6.8,-13.6,0.96,2.2,-0.19,0.35,1.13,0.0,-169.6,-351.7,0.0,0.13,9.62,0.16,0.0,1.1829623831720093,2.4078413569004087,0.0,0.0,2.0,0.45,0.6,1.2,100.0,1.0,0.18,0.13182625892827615,0.2,1.0,-160.0,0,1,0,calibrating,0,0,0,0,0,0.0
1.8959053819999099,190,135.12,94.3,6.8,-13.9,0.28,3.12,-0.51,0.27,1.13,0.0,-173.1,-354.4,-2.0,0.22,9.62,-0.02,0.0,1.1618089343777658,3.173783231413261,0.0,0.0,2.0,0.45,0.6,1.2,100.0,1.0,0.18,0.10845935393135187,0.2,1.0,-160.0,0,1,0,calibrating,0,0,0,0,0,0.0
1.9038785369994002,191,135.13,94.2,6.8,-14.3,-0.67,4.08,-0.78,0.15,1.05,0.0,-176.7,-354.9,-16.0,0.32,9.7,-0.16,0.0,1.0606601717798212,4.207576499601641,0.0,0.0,2.0,0.45,0.6,1.2,100.0,1.0,0.18,0.007164379506739094,0.2,1.0,-160.0,0,1,0,calibrating,0,0,0,0,0,0.0
1.9159147430000303,192,135.14,94.0,6.7,-14.7,-1.35,4.77,-0.94,0.07,0.98,0.06,-180.2,-357.8,-5.0,0.42,9.68,-0.06,0.0,0.9843271813782245,5.045691231139694,0.0,0.0,2.0,0.45,0.6,1.2,100.0,1.0,0.18,0.06778523867696062,0.2,1.0,-160.0,0,1,0,calibrating,0,0,0,0,0,0.0
1.9241187749994424,193,135.15,93.8,6.7,-15.3,-1.69,5.1,-0.96,0.02,0.91,0.11,-183.8,-347.0,116.0,0.51,9.16,-0.03,0.0,0.9168424073961675,5.457810916475578,0.0,0.0,2.0,0.45,0.6,1.2,100.0,1.0,0.18,0.13256461240583717,0.2,1.0,-160.0,0,1,0,calibrating,0,0,0,0,0,0.0
1.9359160080002766,194,135.16,93.6,6.6,-15.8,-1.67,5.21,-0.95,0.02,0.86,0.13,-187.1,-323.1,202.0,0.6,8.48,0.03,0.0,0.87,5.55297217713181,0.0,0.0,2.0,0.45,0.6,1.2,100.0,1.0,0.18,0.17581887940596463,0.2,1.0,-160.0,0,1,0,calibrating,0,0,0,0,0,0.0
1.9440618640001048,195,135.17,93.4,6.6,-16.3,-1.59,5.3,-0.94,0.02,0.82,0.13,-190.1,-295.2,272.0,0.68,7.62,-0.33,0.0,0.8304817878797824,5.612637526154704,0.0,0.0,2.0,0.45,0.6,1.2,100.0,1.0,0.18,0.2110303496956586,0.2,1.0,-160.0,0,1,0,calibrating,0,0,0,0,0,0.0
1.9560027349998563,196,135.18,93.1,6.5,-16.9,-1.46,5.31,-0.89,0.02,0.8,0.14,-192.8,-259.7,336.0,0.75,6.6,-0.01,0.0,0.812403840463596,5.578512346495255,0.0,0.0,2.0,0.45,0.6,1.2,100.0,1.0,0.18,0.22452613116960796,0.2,1.0,-160.0,0,1,0,calibrating,0,0,0,0,0,0.0
1.9641386669991334,197,135.19,92.9,6.4,-17.4,-1.16,5.2,-0.83,0.01,0.78,0.16,-195.1,-220.3,381.0,0.8,5.49,0.01,0.0,0.7963039620647382,5.392077521697922,0.0,0.0,2.0,0.45,0.6,1.2,100.0,1.0,0.18,0.23581348937709645,0.2,1.0,-160.0,0,1,0,calibrating,0,0,0,0,0,0.0
1.9756634099994699,198,135.2,92.8,6.4,-17.9,-0.73,4.89,-0.84,0.0,0.78,0.16,-197.1,-179.0,404.0,0.85,4.34,-0.29,0.0,0.7962411694957753,5.015037387697125,0.0,0.0,2.0,0.45,0.6,1.2,100.0,1.0,0.18,0.23115875630713834,0.2,1.0,-160.0,0,1,0,calibrating,0,0,0,0,0,0.0
1.9838827319999837,199,135.21,92.7,6.3,-18.4,-0.34,4.44,-0.88,0.0,0.81,0.15,-198.5,-134.9,439.0,0.89,3.08,-0.27,0.0,0.8237718130647589,4.539118857223283,0.0,0.0,2.0,0.45,0.6,1.2,100.0,1.0,0.18,0.19955555048339169,0.2,1.0,-160.0,0,1,0,calibrating,0,0,0,0,0,0.0
1.9962382829999115,200,135.22,92.6,6.2,-18.8,-0.05,3.99,-0.98,-0.02,0.85,0.12,-199.6,-88.5,454.0,0.91,1.84,0.1,0.0,0.8586617494683223,4.108892794902296,0.0,0.0,2.0,0.45,0.6,1.2,100.0,1.0,0.18,0.1613723017982317,0.2,1.0,-160.0,0,1,0,calibrating,0,0,0,0,0,0.0
2.003960752999774,201,135.23,92.6,6.2,-19.2,-0.04,3.63,-1.14,-0.05,0.86,0.09,-200.1,-42.0,463.0,0.92,0.57,-0.14,0.0,0.8661408661412991,3.8050098554405873,0.0,0.0,2.0,0.45,0.6,1.2,100.0,1.0,0.18,0.15081532142274978,0.2,1.0,-160.0,0,1,0,calibrating,0,0,0,0,0,0.0
2.0158670420005365,202,135.24,92.5,6.0,-19.5,-0.08,3.29,-1.33,-0.08,0.87,0.07,-200.3,1.7,418.0,0.92,-0.48,-0.28,0.0,0.8764701934464172,3.5495633534281366,0.0,0.0,2.0,0.45,0.6,1.2,100.0,1.0,0.18,0.13767627423527906,0.2,1.0,-160.0,0,1,0,calibrating,0,0,0,0,0,0.0
2.0240972350002266,203,135.25,92.5,5.9,-19.9,-0.06,2.9,-1.49,-0.09,0.88,0.05,-200.0,34.2,333.0,0.91,-1.25,0.06,0.0,0.8860022573334675,3.2609354486098003,0.0,0.0,2.0,0.45,0.6,1.2,100.0,1.0,0.18,0.12558132614126427,0.2,1.0,-160.0,0,1,0,calibrating,0,0,0,0,0,0.0
2.035871963000318,204,135.26,92.5,5.8,-20.1,-0.12,2.52,-1.56,-0.09,0.9,0.04,-199.5,60.3,282.0,0.89,-1.95,-0.19,0.0,0.9053728513711906,2.966209702633986,0.0,0.0,2.0,0.45,0.6,1.2,100.0,1.0,0.18,0.10408651746147035,0.2,1.0,-160.0,0,1,0,calibrating,0,0,0,0,0,0.0
2.044087385000239,205,135.27,92.4,5.6,-20.4,-0.36,2.23,-1.53,-0.08,0.93,0.03,-198.7,85.9,264.0,0.86,-2.64,-0.15,0.0,0.9339164844888435,2.728259518447613,0.0,0.0,2.0,0.45,0.6,1.2,100.0,1.0,0.18,0.0740320266569412,0.2,1.0,-160.0,0,1,0,calibrating,0,0,0,0,0,0.0
2.0559465669994097,206,135.28,92.3,5.5,-20.6,-0.67,2.08,-1.39,-0.05,0.96,0.01,-197.7,109.2,240.0,0.83,-3.25,-0.03,0.0,0.9613532129243653,2.589864861339294,0.0,0.0,2.0,0.45,0.6,1.2,100.0,1.0,0.18,0.04566339225699101,0.2,1.0,-160.0,0,1,0,calibrating,0,0,0,0,0,0.0
2.06408659599947,207,135.29,92.2,5.4,-20.8,-0.95,2.05,-1.21,-0.03,0.98,0.0,-196.4,131.9,228.0,0.8,-3.86,-0.06,0.0,0.9804590761474953,2.5630255558616657,0.0,0.0,2.0,0.45,0.6,1.2,100.0,1.0,0.18,0.026026378453183674,0.2,1.0,-160.0,0,1,0,calibrating,0,0,0,0,0,0.0
2.0759178409989545,208,135.3,92.1,5.2,-21.0,-1.19,2.07,-1.02,0.0,1.01,0.0,-194.9,154.4,227.0,0.75,-4.48,0.07,0.0,1.01,2.5964206130748537,0.0,0.0,2.0,0.45,0.6,1.2,100.0,1.0,0.18,0.003444254491334675,0.2,1.0,-160.0,0,1,0,calibrating,0,0,0,0,0,0.0
2.0839398249991063,209,135.31,91.9,5.1,-21.2,-1.43,2.09,-0.85,0.01,1.01,-0.01,-193.2,176.9,222.0,0.7,-5.06,-0.05,0.0,1.010099005048515,2.671235669123935,0.0,0.0,2.0,0.45,0.6,1.2,100.0,1.0,0.18,0.0034723943490526654,0.2,1.0,-160.0,0,1,0,calibrating,0,0,0,0,0,0.0
2.0959776629988482,210,135.32,91.7,5.0,-21.5,-1.62,2.13,-0.72,0.03,1.01,-0.02,-191.3,198.6,217.0,0.65,-5.66,0.01,0.0,1.010643359449811,2.771227164993877,0.0,0.0,2.0,0.45,0.6,1.2,100.0,1.0,0.18,0.003936413775341929,0.2,1.0,-160.0,0,1,0,calibrating,0,0,0,0,0,0.0
2.103943750000326,211,135.33,91.6,4.9,-21.7,-1.72,2.1,-0.63,0.04,0.99,-0.03,-189.2,220.1,218.0,0.59,-6.25,-0.1,0.0,0.9912618221237011,2.7866287876213436,0.0,0.0,2.0,0.45,0.6,1.2,100.0,1.0,0.18,0.015136221079752765,0.2,1.0,-160.0,0,1,0,calibrating,0,0,0,0,0,0.0
2.115854945999672,212,135.34,91.4,4.8,-21.9,-1.74,2.07,-0.58,0.05,0.98,-0.03,-186.8,241.2,213.0,0.52,-6.82,-0.21,0.0,0.9817331613019904,2.7656644771193775,0.0,0.0,2.0,0.45,0.6,1.2,100.0,1.0,0.18,0.024171584263434243,0.2,1.0,-160.0,0,1,0,calibrating,0,0,0,0,0,0.0
2.1240948229988135,213,135.35,91.2,4.8,-22.1,-1.69,1.94,-0.56,0.05,0.97,-0.03,-184.3,263.4,224.0,0.45,-7.45,0.02,0.0,0.9717509969122748,2.6331160247888814,0.0,0.0,2.0,0.45,0.6,1.2,100.0,1.0,0.18,0.033470673680086716,0.2,1.0,-160.0,0,1,0,calibrating,0,0,0,0,0,0.0
2.1358749819992227,214,135.36,91.0,4.7,-22.3,-1.53,1.8,-0.58,0.05,0.96,-0.03,-181.5,288.0,237.0,0.37,-8.11,-0.03,0.0,0.9617692030835672,2.4325501022589444,0.0,0.0,2.0,0.45,0.6,1.2,100.0,1.0,0.18,0.042583418158618436,0.2,1.0,-160.0,0,1,0,calibrating,0,0,0,0,0,0.0
2.143886379999458,215,135.37,90.9,4.6,-22.4,-1.37,1.67,-0.61,0.05,0.95,-0.04,-178.4,309.1,204.0,0.29,-8.61,-0.07,0.0,0.9521554494934112,2.2445266761613683,0.0,0.0,2.0,0.45,0.6,1.2,100.0,1.0,0.18,0.05115322831379898,0.2,1.0,-160.0,0,1,0,calibrating,0,0,0,0,0,0.0
2.155615866999142,216,135.38,90.8,4.5,-22.6,-1.16,1.54,-0.65,0.05,0.94,-0.05,-175.2,328.0,209.0,0.2,-9.2,0.0,0.0,0.9426558226627574,2.03462527262393,0.0,0.0,2.0,0.45,0.6,1.2,100.0,1.0,0.18,0.05943979804156385,0.2,1.0,-160.0,0,1,0,calibrating,0,0,0,0,0,0.0
2.163390415998947,217,135.39,90.7,4.5,-22.7,-0.88,1.41,-0.67,0.04,0.94,-0.06,-171.8,353.2,234.0,0.1,-9.88,-0.04,0.0,0.942761899951414,1.7920379460268132,0.0,0.0,2.0,0.45,0.6,1.2,100.0,1.0,0.18,0.05814704633784906,0.2,1.0,-160.0,0,1,0,calibrating,0,0,0,0,0,0.0
2.1756260540005314,218,135.4,90.6,4.4,-22.9,-0.52,1.27,-0.69,0.04,0.95,-0.08,-168.1,371.0,175.0,0.0,-10.26,-0.01,0.0,0.95420123663722,1.536033853793594,0.0,0.0,2.0,0.45,0.6,1.2,100.0,1.0,0.18,0.04577355545900219,0.2,1.0,-160.0,0,1,0,calibrating,0,0,0,0,0,0.0
2.183677449998868,219,135.41,90.6,4.3,-23.0,-0.27,1.13,-0.68,0.04,0.97,-0.1,-164.3,390.7,230.0,-0.1,-10.98,0.01,0.0,0.9759610647971567,1.346179779969971,0.0,0.0,2.0,0.45,0.6,1.2,100.0,1.0,0.18,0.02353345275308416,0.2,1.0,-160.0,0,1,0,calibrating,0,0,0,0,0,0.0
2.196397984000214,220,135.42,90.7,4.2,-23.1,-0.22,1.05,-0.67,0.04,0.97,-0.12,-160.2,415.2,203.0,-0.21,-11.46,-0.03,0.0,0.9782126558167197,1.2648320046551638,0.0,0.0,2.0,0.45,0.6,1.2,100.0,1.0,0.18,0.02085622449885083,0.2,1.0,-160.0,0,1,0,calibrating,0,0,0,0,0,0.0
2.2039347869995254,221,135.43,90.6,4.1,-23.2,-0.36,1.02,-0.65,0.04,0.97,-0.13,-155.9,430.7,183.0,-0.33,-11.94,-0.21,0.0,0.9794896630388705,1.2619429464123963,0.0,0.0,2.0,0.45,0.6,1.2,100.0,1.0,0.18,0.0191876329311661,0.2,1.0,-160.0,0,1,0,calibrating,0,0,0,0,0,0.0
2.215853720999803,222,135.44,90.6,4.1,-23.3,-0.54,0.99,-0.62,0.03,0.96,-0.13,-151.5,451.1,197.0,-0.45,-12.51,-0.02,0.0,0.9692264957170744,1.2868954891520912,0.0,0.0,2.0,0.45,0.6,1.2,100.0,1.0,0.18,0.028861784247902866,0.2,1.0,-160.0,0,1,0,calibrating,0,0,0,0,0,0.0
2.22408772199924,223,135.45,90.5,4.0,-23.4,-0.77,1.0,-0.56,0.02,0.96,-0.13,-146.8,473.8,243.0,-0.58,-13.25,-0.05,0.0,0.9689685237405805,1.3807606599262596,0.0,0.0,2.0,0.45,0.6,1.2,100.0,1.0,0.18,0.028537361099908787,0.2,1.0,-160.0,0,1,0,calibrating,0,0,0,0,0,0.0
2.2359062350005843,224,135.46,90.4,4.0,-23.5,-1.0,0.98,-0.45,0.0,0.95,-0.12,-141.9,499.2,207.0,-0.72,-13.74,-0.04,0.0,0.9575489543621255,1.4706801147768334,0.0,0.0,2.0,0.45,0.6,1.2,100.0,1.0,0.18,0.03915779186879653,0.2,1.0,-160.0,0,1,0,calibrating,0,0,0,0,0,0.0
2.244121190000442,225,135.47,90.3,3.9,-23.6,-1.19,0.89,-0.29,-0.01,0.94,-0.11,-136.8,517.3,223.0,-0.86,-14.38,0.0,0.0,0.9464671151181112,1.5140343457134648,0.0,0.0,2.0,0.45,0.6,1.2,100.0,1.0,0.18,0.049234838490554655,0.2,1.0,-160.0,0,1,0,calibrating,0,0,0,0,0,0.0
2.255924437999056,226,135.48,90.1,3.9,-23.7,-1.34,0.74,-0.09,-0.02,0.94,-0.1,-131.5,534.9,133.0,-1.01,-14.58,0.01,0.0,0.945515732285825,1.5333949262991582,0.0,0.0,2.0,0.45,0.6,1.2,100.0,1.0,0.18,0.0491824968963841,0.2,1.0,-160.0,0,1,0,calibrating,0,0,0,0,0,0.0
2.264129220000541,227,135.49,90.0,3.9,-23.8,-1.53,0.52,0.1,-0.03,0.94,-0.09,-126.0,550.5,197.0,-1.16,-15.26,-0.08,0.0,0.9447751055145346,1.6190429271640698,0.0,0.0,2.0,0.45,0.6,1.2,100.0,1.0,0.18,0.04892466119432104,0.2,1.0,-160.0,0,1,0,calibrating,0,0,0,0,0,0.0
2.2756872219997604,228,135.5,89.8,3.9,-23.8,-1.71,0.28,0.32,-0.03,0.92,-0.09,-120.4,563.9,110.0,-1.31,-15.4,-0.04,0.0,0.9248783703817492,1.7620726432244498,0.0,0.0,2.0,0.45,0.6,1.2,100.0,1.0,0.18,0.06744496840056424,0.2,1.0,-160.0,0,1,0,calibrating,0,0,0,0,0,0.0
2.2840244639992306,229,135.51,89.7,4.0,-23.8,-1.71,-0.01,0.5,-0.04,0.9,-0.09,-114.7,574.9,130.0,-1.47,-15.8,-0.06,0.0,0.9053728513711906,1.7816284685646444,0.0,0.0,2.0,0.45,0.6,1.2,100.0,1.0,0.18,0.08521147766290038,0.2,1.0,-160.0,0,1,0,calibrating,0,0,0,0,0,0.0
2.2959838599999784,230,135.52,89.5,4.0,-23.8,-1.62,-0.33,0.64,-0.06,0.89,-0.1,-108.8,595.7,218.0,-1.63,-16.53,0.02,0.0,0.8976079322287654,1.7728226081590908,0.0,0.0,2.0,0.45,0.6,1.2,100.0,1.0,0.18,0.09111686886921899,0.2,1.0,-160.0,0,1,0,calibrating,0,0,0,0,0,0.0
2.304059127000073,231,135.53,89.3,4.1,-23.7,-1.46,-0.65,0.76,-0.07,0.89,-0.09,-102.7,611.7,137.0,-1.8,-16.76,0.03,0.0,0.8972736483370054,1.769660984482621,0.0,0.0,2.0,0.45,0.6,1.2,100.0,1.0,0.18,0.08962212970575945,0.2,1.0,-160.0,0,1,0,calibrating,0,0,0,0,0,0.0
2.3159382459998596,232,135.54,89.2,4.2,-23.7,-1.28,-0.97,0.89,-0.06,0.88,-0.08,-96.5,625.8,110.0,-1.97,-17.01,-0.11,0.0,0.8856635930193811,1.8361372497719226,0.0,0.0,2.0,0.45,0.6,1.2,100.0,1.0,0.18,0.09920754132291609,0.2,1.0,-160.0,0,1,0,calibrating,0,0,0,0,0,0.0
2.324078683999687,233,135.55,89.1,4.3,-23.5,-1.04,-1.27,1.02,-0.05,0.87,-0.09,-90.2,628.7,109.0,-2.14,-17.31,-0.15,0.0,0.8760707733967615,1.9325889371514058,0.0,0.0,2.0,0.45,0.6,1.2,100.0,1.0,0.18,0.10662435372662482,0.2,1.0,-160.0,0,1,0,calibrating,0,0,0,0,0,0.0
2.335943366999345,234,135.56,89.0,4.4,-23.4,-0.69,-1.56,1.13,-0.05,0.87,-0.09,-83.9,628.6,-78.0,-2.31,-16.75,0.33,0.0,0.8760707733967615,2.0461182761512102,0.0,0.0,2.0,0.45,0.6,1.2,100.0,1.0,0.18,0.10449186665209231,0.2,1.0,-160.0,0,1,0,calibrating,0,0,0,0,0,0.0
2.3439084389992786,235,135.57,89.0,4.5,-23.2,-0.28,-1.84,1.2,-0.06,0.88,-0.1,-77.9,594.2,-311.0,-2.47,-15.52,0.37,0.0,0.8876936408468858,2.2144976857066254,0.0,0.0,2.0,0.45,0.6,1.2,100.0,1.0,0.18,0.09101161921792877,0.2,1.0,-160.0,0,1,0,calibrating,0,0,0,0,0,0.0
2.355990029000168,236,135.58,89.0,4.7,-23.0,-0.15,-2.08,1.3,-0.07,0.9,-0.1,-72.3,532.4,-583.0,-2.61,-13.48,0.43,0.0,0.9082400563727632,2.4574173434726143,0.0,0.0,2.0,0.45,0.6,1.2,100.0,1.0,0.18,0.06905589961821046,0.2,1.0,-160.0,0,1,0,calibrating,0,0,0,0,0,0.0
2.363885675000347,237,135.59,89.0,4.8,-22.8,-0.05,-2.33,1.4,-0.06,0.92,-0.1,-67.7,428.4,-1014.0,-2.72,-10.0,0.57,0.0,0.9273618495495705,2.71871293078177,0.0,0.0,2.0,0.45,0.6,1.2,100.0,1.0,0.18,0.04893542431257514,0.2,1.0,-160.0,0,1,0,calibrating,0,0,0,0,0,0.0
2.37591605399939,238,135.6,89.0,4.9,-22.6,0.23,-2.62,1.35,0.0,0.92,-0.09,-64.3,293.9,-1228.0,-2.8,-6.35,0.62,0.0,0.9243916918709298,2.95631527412081,0.0,0.0,2.0,0.45,0.6,1.2,100.0,1.0,0.18,0.050867470351391386,0.2,1.0,-160.0,0,1,0,calibrating,0,0,0,0,0,0.0
2.384049533000507,239,135.61,89.1,5.1,-22.3,0.82,-2.77,1.13,0.1,0.95,-0.11,-62.3,157.6,-1317.0,-2.84,-2.63,0.54,0.0,0.9615612304996495,3.1019671178141137,0.0,0.0,2.0,0.45,0.6,1.2,100.0,1.0,0.18,0.0134239730882183,0.2,1.0,-160.0,0,1,0,calibrating,0,0,0,0,0,0.0
2.3959718400001293,240,135.62,89.2,5.2,-22.0,0.78,-2.64,0.83,0.19,0.97,-0.17,-61.6,29.3,-1225.0,-2.84,0.5,0.45,0.0,1.0029456615390486,2.875221730580096,0.0,0.0,2.0,0.45,0.6,1.2,100.0,1.0,0.18,0.027401248792157218,0.2,1.0,-160.0,0,1,0,calibrating,0,0,0,0,0,0.0
2.404044425000393,241,135.63,89.3,5.2,-21.8,0.44,-2.11,0.55,0.24,0.99,-0.23,-61.9,-45.8,-752.0,-2.83,1.73,0.01,0.0,1.044317959244214,2.224454989429995,0.0,0.0,2.0,0.45,0.6,1.2,100.0,1.0,0.18,0.06739807556737609,0.2,1.0,-160.0,0,1,0,calibrating,0,0,0,0,0,0.0
2.4158427080001275,242,135.64,89.3,5.3,-21.6,-0.27,-1.42,0.61,0.18,0.98,-0.26,-62.7,-83.8,-503.0,-2.8,2.73,0.12,0.0,1.0297572529484802,1.5688849543545251,0.0,0.0,2.0,0.45,0.6,1.2,100.0,1.0,0.18,0.051780621886209466,0.2,1.0,-160.0,0,1,0,calibrating,0,0,0,0,0,0.0
2.4240057679999154,243,135.65,89.3,5.4,-21.5,-0.47,-0.99,0.84,0.09,0.9,-0.21,-63.8,-122.4,-433.0,-2.77,3.81,0.07,0.0,0.9285472524325298,1.3807968713753664,0.0,0.0,2.0,0.45,0.6,1.2,100.0,1.0,0.18,0.04844079105714616,0.2,1.0,-160.0,0,1,0,calibrating,0,0,0,0,0,0.0
2.435917053999219,244,135.66,89.3,5.5,-21.4,0.32,-1.11,1.01,0.04,0.86,-0.15,-65.3,-162.6,-409.0,-2.72,4.89,0.21,0.0,0.8738993077008357,1.5344705927452635,0.0,0.0,2.0,0.45,0.6,1.2,100.0,1.0,0.18,0.10102696107306341,0.2,1.0,-160.0,0,1,0,calibrating,0,0,0,0,0,0.0
2.443950560000303,245,135.67,89.4,5.6,-21.2,1.72,-1.58,0.93,0.1,0.9,-0.09,-67.2,-200.2,-377.0,-2.66,5.87,0.12,0.0,0.91,2.513901350490906,0.0,0.0,2.0,0.45,0.6,1.2,100.0,1.0,0.18,0.06362774339842103,0.2,1.0,-160.0,0,1,0,calibrating,0,0,0,0,0,0.0
2.4560274399991613,246,135.68,89.7,5.7,-21.1,3.11,-1.94,0.52,0.14,0.98,-0.1,-69.4,-235.3,-360.0,-2.6,6.83,0.08,0.0,0.9949874371066199,3.7021750363806407,0.0,0.0,2.0,0.45,0.6,1.2,100.0,1.0,0.18,0.02093249983403478,0.2,1.0,-160.0,0,1,0,calibrating,0,0,0,0,0,0.0
2.4641560340005526,247,135.69,90.1,5.7,-20.9,3.45,-2.06,0.0,0.13,1.07,-0.09,-72.0,-270.2,-343.0,-2.52,7.72,0.04,0.0,1.0816191566350883,4.018220999397619,0.0,0.0,2.0,0.45,0.6,1.2,100.0,1.0,0.18,0.10541293497525317,0.2,1.0,-160.0,0,1,0,calibrating,0,0,0,0,0,0.0
2.4759460069999477,248,135.7,90.5,5.7,-20.6,3.24,-2.17,-0.54,0.13,1.12,-0.1,-74.9,-300.5,-302.0,-2.44,8.49,0.16,0.0,1.1319452283569202,3.9367626293694675,0.0,0.0,2.0,0.45,0.6,1.2,100.0,1.0,0.18,0.15262422656314334,0.2,1.0,-160.0,0,1,0,calibrating,0,0,0,0,0,0.0
2.4839956300002086,249,135.71,90.9,5.6,-20.4,3.21,-2.24,-0.96,0.15,1.12,-0.08,-78.1,-324.1,-239.0,-2.35,9.03,-0.12,0.0,1.1328283188550683,4.030297755749568,0.0,0.0,2.0,0.45,0.6,1.2,100.0,1.0,0.18,0.15043717072006557,0.2,1.0,-160.0,0,1,0,calibrating,0,0,0,0,0,0.0
2.4959984500001156,250,135.72,91.3,5.5,-20.2,3.77,-2.32,-1.33,0.19,1.11,-0.07,-81.4,-337.8,-138.0,-2.26,9.23,0.11,0.0,1.1283173312503891,4.622142360421193,0.0,0.0,2.0,0.45,0.6,1.2,100.0,1.0,0.18,0.1430076594530787,0.2,1.0,-160.0,0,1,0,calibrating,0,0,0,0,0,0.0
2.504117664999285,251,135.73,91.8,5.4,-20.0,4.13,-2.21,-1.69,0.22,1.14,-0.07,-84.9,-342.3,-67.0,-2.17,9.32,0.0,0.0,1.1631422956801114,4.979668663676329,0.0,0.0,2.0,0.45,0.6,1.2,100.0,1.0,0.18,0.17427597140514495,0.2,1.0,-160.0,0,1,0,calibrating,0,0,0,0,0,0.0
2.515872263998972,252,135.74,92.2,5.3,-19.8,4.1,-1.77,-1.99,0.24,1.2,-0.06,-88.3,-340.4,26.0,-2.08,9.09,-0.04,0.0,1.2252346713997282,4.889069441110445,0.0,0.0,2.0,0.45,0.6,1.2,100.0,1.0,0.18,0.23164098018226653,0.2,1.0,-160.0,0,1,0,calibrating,0,0,0,0,0,0.0
2.524134031000358,253,135.75,92.6,5.1,-19.6,3.66,-1.16,-2.22,0.19,1.2,-0.03,-91.6,-319.1,194.0,-1.99,8.29,-0.21,0.0,1.2153188881935473,4.435042277137841,0.0,0.0,2.0,0.45,0.6,1.2,100.0,1.0,0.18,0.2172906930365639,0.2,1.0,-160.0,0,1,0,calibrating,0,0,0,0,0,0.0
2.535927282000557,254,135.76,93.0,4.9,-19.6,3.79,-0.65,-2.6,0.12,1.18,0.0,-94.5,-287.6,270.0,-1.91,7.45,-0.13,0.0,1.186086000254619,4.641831535073198,0.0,0.0,2.0,0.45,0.6,1.2,100.0,1.0,0.18,0.18429664899568277,0.2,1.0,-160.0,0,1,0,calibrating,0,0,0,0,0,0.0
2.54393477099984,255,135.77,93.4,4.6,-19.5,4.51,-0.29,-3.02,0.13,1.28,0.0,-97.2,-256.0,307.0,-1.84,6.54,-0.39,0.0,1.2865846260545786,5.435494457728754,0.0,0.0,2.0,0.45,0.6,1.2,100.0,1.0,0.18,0.27909936929972945,0.2,1.0,-160.0,0,1,0,calibrating,0,0,0,0,0,0.0
2.5559358299997257,256,135.78,93.8,4.3,-19.5,4.1,0.17,-3.06,0.15,1.44,0.01,-99.5,-220.4,345.0,-1.79,5.54,0.04,0.0,1.447825956391168,5.118837758710467,0.0,0.0,2.0,0.45,0.6,1.2,100.0,1.0,0.18,0.4315338856435924,0.2,1.0,-160.0,0,1,0,calibrating,0,0,0,0,0,0.0
2.564099297998837,257,135.79,94.0,4.0,-19.6,2.51,0.49,-2.66,0.0,1.46,0.05,-101.5,-184.3,353.0,-1.74,4.58,0.01,0.0,1.4608559134972894,3.6899593493695835,0.0,0.0,2.0,0.45,0.6,1.2,100.0,1.0,0.18,0.4356725658947196,0.2,1.0,-160.0,0,1,0,calibrating,0,0,0,0,0,0.0
2.575985072000549,258,135.8,94.2,3.8,-19.7,1.2,0.14,-1.95,-0.18,1.39,0.12,-103.1,-151.0,322.0,-1.7,3.75,-0.1,0.0,1.406733805664739,2.293926764306132,0.0,0.0,2.0,0.45,0.6,1.2,100.0,1.0,0.18,0.37391944890092566,0.2,1.0,-160.0,0,1,0,calibrating,0,0,0,0,0,0.0
2.583982529000423,259,135.81,94.3,3.7,-19.6,0.57,-0.81,-1.1,-0.33,1.29,0.21,-104.4,-123.0,278.0,-1.66,3.06,-0.06,0.0,1.3479985163196584,1.4802026888233923,0.0,0.0,2.0,0.45,0.6,1.2,100.0,1.0,0.18,0.30888047636472815,0.2,1.0,-160.0,0,1,0,calibrating,0,0,0,0,0,0.0
2.5962310830000206,260,135.82,94.3,3.6,-19.5,0.43,-2.2,-0.42,-0.38,1.17,0.29,-105.5,-102.1,216.0,-1.64,2.57,0.08,0.0,1.263882905968745,2.2806358762415364,0.0,0.0,2.0,0.45,0.6,1.2,100.0,1.0,0.18,0.22026956869353853,0.2,1.0,-160.0,0,1,0,calibrating,0,0,0,0,0,0.0
2.6040531839989853,261,135.83,94.4,3.5,-19.2,0.39,-3.71,0.03,-0.35,1.09,0.33,-106.4,-87.7,161.0,-1.61,2.22,0.12,0.0,1.1914277149705728,3.7305629601978305,0.0,0.0,2.0,0.45,0.6,1.2,100.0,1.0,0.18,0.1448580901414589,0.2,1.0,-160.0,0,1,0,calibrating,0,0,0,0,0,0.0
2.615957336000065,262,135.84,94.5,3.5,-18.7,0.24,-5.13,0.31,-0.27,1.03,0.33,-107.2,-74.4,135.0,-1.59,1.88,0.03,0.0,1.11476454913134,5.144958697599039,0.0,0.0,2.0,0.45,0.6,1.2,100.0,1.0,0.18,0.06683102581618172,0.2,1.0,-160.0,0,1,0,calibrating,0,0,0,0,0,0.0
2.623989015999541,263,135.85,94.5,3.5,-18.2,0.01,-6.21,0.35,-0.19,0.97,0.31,-107.8,-63.3,117.0,-1.58,1.59,-0.12,0.0,1.035905401086412,6.21986334255022,0.0,0.0,2.0,0.45,0.6,1.2,100.0,1.0,0.18,0.011787559784171453,0.2,1.0,-160.0,0,1,0,calibrating,0,0,0,0,0,0.0
2.6359604249992117,264,135.86,94.6,3.5,-17.5,-0.01,-7.06,0.1,-0.08,0.92,0.29,-108.4,-52.1,119.0,-1.56,1.25,-0.04,0.0,0.9679359482941007,7.0607152612182285,0.0,0.0,2.0,0.45,0.6,1.2,100.0,1.0,0.18,0.07816187232495286,0.2,1.0,-160.0,0,1,0,calibrating,0,0,0,0,0,0.0
2.6440571370003454,265,135.87,94.6,3.4,-16.8,-0.2,-7.57,-0.3,0.04,0.88,0.21,-108.8,-37.6,146.0,-1.55,0.81,-0.21,0.0,0.9055937278934744,7.5785816614984105,0.0,0.0,2.0,0.45,0.6,1.2,100.0,1.0,0.18,0.1376940108710678,0.2,1.0,-160.0,0,1,0,calibrating,0,0,0,0,0,0.0
2.6559534419993724,266,135.88,94.6,3.3,-16.0,-0.69,-7.44,-0.8,0.13,0.87,0.1,-109.1,-17.8,186.0,-1.55,0.22,-0.16,0.0,0.8853247991556545,7.514632392871923,0.0,0.0,2.0,0.45,0.6,1.2,100.0,1.0,0.18,0.1548036808167097,0.2,1.0,-160.0,0,1,0,calibrating,0,0,0,0,0,0.0
2.664127140000346,267,135.89,94.5,3.1,-15.3,-1.21,-6.77,-1.17,0.19,0.87,0.01,-109.1,1.4,162.0,-1.55,-0.16,0.08,0.0,0.8905616205518853,6.976094896143543,0.0,0.0,2.0,0.45,0.6,1.2,100.0,1.0,0.18,0.14657552223206938,0.2,1.0,-160.0,0,1,0,calibrating,0,0,0,0,0,0.0
2.675906505999592,268,135.9,94.4,3.0,-14.7,-1.26,-5.93,-1.24,0.22,0.89,-0.01,-109.0,4.6,45.0,-1.55,-0.08,-0.15,0.0,0.9168424073961675,6.1878994820536635,0.0,0.0,2.0,0.45,0.6,1.2,100.0,1.0,0.18,0.11788884068003147,0.2,1.0,-160.0,0,1,0,calibrating,0,0,0,0,0,0.0
2.683859601000222,269,135.91,94.3,2.8,-14.1,-1.02,-5.04,-1.02,0.26,0.91,-0.02,-109.0,1.5,-2.0,-1.55,-0.01,0.07,0.0,0.9466255859631093,5.242365878112667,0.0,0.0,2.0,0.45,0.6,1.2,100.0,1.0,0.18,0.08634354887082785,0.2,1.0,-160.0,0,1,0,calibrating,0,0,0,0,0,0.0
2.6959782659996563,270,135.92,94.3,2.7,-13.7,-0.78,-4.11,-0.67,0.27,0.93,-0.04,-109.0,-0.2,-9.0,-1.55,0.01,0.07,0.0,0.9692264957170744,4.236673223178772,0.0,0.0,2.0,0.45,0.6,1.2,100.0,1.0,0.18,0.062467786334525544,0.2,1.0,-160.0,0,1,0,calibrating,0,0,0,0,0,0.0
2.7041019959997357,271,135.93,94.2,2.6,-13.3,-0.58,-3.25,-0.37,0.25,0.94,-0.05,-109.0,-0.7,0.0,-1.55,0.0,-0.29,0.0,0.9739609848448756,3.32201745931595,0.0,0.0,2.0,0.45,0.6,1.2,100.0,1.0,0.18,0.056578631262589996,0.2,1.0,-160.0,0,1,0,calibrating,0,0,0,0,0,0.0
2.7159177609992184,272,135.94,94.2,2.6,-13.1,-0.56,-2.5,-0.16,0.22,0.97,-0.07,-109.0,0.4,7.0,-1.55,-0.02,0.0,0.0,0.9970957827611147,2.566943707992055,0.0,0.0,2.0,0.45,0.6,1.2,100.0,1.0,0.18,0.03277495667942398,0.2,1.0,-160.0,0,1,0,calibrating,0,0,0,0,0,0.0
2.724089780000213,273,135.95,94.1,2.5,-12.8,-0.56,-1.82,0.04,0.18,1.01,-0.06,-109.0,0.0,-8.0,-1.55,0.03,0.07,0.0,1.0276672613253768,1.9046259475288054,0.0,0.0,2.0,0.45,0.6,1.2,100.0,1.0,0.18,0.002159408552858677,0.2,1.0,-160.0,0,1,0,calibrating,0,0,0,0,0,0.0
2.735887716000434,274,135.96,94.1,2.6,-12.7,-0.57,-1.36,0.27,0.15,1.02,-0.04,-109.0,-0.5,-1.0,-1.55,0.01,0.0,0.0,1.031746092796091,1.4991330828182001,0.0,0.0,2.0,0.45,0.6,1.2,100.0,1.0,0.18,0.0018810344594986095,0.2,1.0,-160.0,0,1,0,calibrating,0,0,0,0,0,0.0
2.744049396000264,275,135.97,94.0,2.7,-12.6,-0.57,-1.16,0.46,0.12,1.0,-0.02,-109.0,-1.3,-11.0,-1.55,0.06,0.0,0.0,1.0073728207570423,1.37189649755366,0.0,0.0,2.0,0.45,0.6,1.2,100.0,1.0,0.18,0.022042392827959167,0.2,1.0,-160.0,0,1,0,calibrating,0,0,0,0,0,0.0
2.7558546399995976,276,135.98,93.9,2.7,-12.5,-0.52,-1.13,0.56,0.1,0.98,-0.02,-109.1,-2.6,-12.0,-1.55,0.09,0.17,0.0,0.985291834940288,1.364148085803004,0.0,0.0,2.0,0.45,0.6,1.2,100.0,1.0,0.18,0.043240911071819155,0.2,1.0,-160.0,0,1,0,calibrating,0,0,0,0,0,0.0
2.7640801279994776,277,135.99,93.9,2.8,-12.3,-0.51,-1.14,0.57,0.1,0.96,-0.03,-109.1,-4.9,-19.0,-1.55,0.15,-0.18,0.0,0.9656603957913983,1.3728073426377059,0.0,0.0,2.0,0.45,0.6,1.2,100.0,1.0,0.18,0.0616149032162947,0.2,1.0,-160.0,0,1,0,calibrating,0,0,0,0,0,0.0
2.7765370739998616,278,136.0,93.9,2.8,-12.3,-0.51,-1.14,0.57,0.1,0.96,-0.03,-109.1,-6.3,-30.0,-1.55,0.25,-0.07,0.0,0.9656603957913983,1.3728073426377059,0.0,0.0,2.0,0.45,0.6,1.2,100.0,1.0,0.18,0.060382605151968916,0.2,1.0,-160.0,0,1,0,calibrating,0,0,0,0,0,0.0
2.786437415999899,279,136.01,93.8,3.0,-12.1,-0.49,-1.03,0.52,0.13,0.98,-0.05,-109.3,-16.1,-84.0,-1.54,0.57,-0.08,0.0,0.9898484732523458,1.2535549449465706,0.0,0.0,2.0,0.45,0.6,1.2,100.0,1.0,0.18,0.03547063713720089,0.2,1.0,-160.0,0,1,0,calibrating,0,0,0,0,0,0.0
2.7960230049993697,280,136.02,93.7,3.1,-12.0,-0.45,-0.9,0.5,0.14,1.0,-0.06,-109.5,-23.7,-63.0,-1.54,0.69,-0.05,0.0,1.0115334893121435,1.1236102527122116,0.0,0.0,2.0,0.45,0.6,1.2,100.0,1.0,0.18,0.013509908655855218,0.2,1.0,-160.0,0,1,0,calibrating,0,0,0,0,0,0.0
2.806473571999959,281,136.03,93.7,3.2,-11.9,-0.55,-0.72,0.48,0.15,1.01,-0.08,-109.8,-27.6,-50.0,-1.53,0.8,-0.03,0.0,1.0242070103255494,1.025329215423027,0.0,0.0,2.0,0.45,0.6,1.2,100.0,1.0,0.18,0.0008196598896004215,0.2,1.0,-160.0,0,1,0,calibrating,0,0,0,0,0,0.0
2.8159212930004287,282,136.04,93.6,3.3,-11.9,-0.76,-0.41,0.48,0.16,1.01,-0.1,-110.1,-30.8,-35.0,-1.52,0.87,0.07,0.0,1.0274726273726225,0.9879777325425912,0.0,0.0,2.0,0.45,0.6,1.2,100.0,1.0,0.18,0.0023970380143232273,0.2,1.0,-160.0,0,1,0,calibrating,0,0,0,0,0,0.0
2.826555981999263,283,136.05,93.6,3.4,-11.8,-0.92,-0.12,0.54,0.14,1.0,-0.11,-110.4,-35.3,-38.0,-1.51,0.99,0.12,0.0,1.0157263410978372,1.0734989520255713,0.0,0.0,2.0,0.45,0.6,1.2,100.0,1.0,0.18,0.009162263295252826,0.2,1.0,-160.0,0,1,0,calibrating,0,0,0,0,0,0.0
2.8360776629997417,284,136.06,93.5,3.5,-11.8,-0.99,0.12,0.65,0.14,0.99,-0.12,-110.8,-40.2,-53.0,-1.5,1.16,-0.09,0.0,1.0070253224224304,1.1903780911962385,0.0,0.0,2.0,0.45,0.6,1.2,100.0,1.0,0.18,0.017506016331246377,0.2,1.0,-160.0,0,1,0,calibrating,0,0,0,0,0,0.0
2.846337594999568,285,136.07,93.4,3.6,-11.8,-1.02,0.31,0.81,0.13,0.97,-0.11,-111.2,-44.9,-39.0,-1.49,1.24,-0.02,0.0,0.9848350115628506,1.3388801290630914,0.0,0.0,2.0,0.45,0.6,1.2,100.0,1.0,0.18,0.03890240064700956,0.2,1.0,-160.0,0,1,0,calibrating,0,0,0,0,0,0.0
2.8558803039995837,286,136.08,93.4,3.7,-11.9,-1.04,0.45,0.95,0.12,0.95,-0.11,-111.7,-46.1,-17.0,-1.47,1.26,0.15,0.0,0.9638464608017192,1.4787156589419075,0.0,0.0,2.0,0.45,0.6,1.2,100.0,1.0,0.18,0.0586931323799782,0.2,1.0,-160.0,0,1,0,calibrating,0,0,0,0,0,0.0
2.8665412989994365,287,136.09,93.3,3.9,-11.9,-1.08,0.51,1.03,0.12,0.93,-0.11,-112.2,-47.3,-13.0,-1.46,1.31,-0.06,0.0,0.9441398201537736,1.5771493271088823,0.0,0.0,2.0,0.45,0.6,1.2,100.0,1.0,0.18,0.07683177756736526,0.2,1.0,-160.0,0,1,0,calibrating,0,0,0,0,0,0.0
2.8760331939993193,288,136.1,93.2,4.0,-12.0,-1.16,0.52,1.04,0.12,0.92,-0.11,-112.7,-49.0,-9.0,-1.45,1.32,0.05,0.0,0.9342911751697112,1.6424372134118248,0.0,0.0,2.0,0.45,0.6,1.2,100.0,1.0,0.18,0.08494681410039906,0.2,1.0,-160.0,0,1,0,calibrating,0,0,0,0,0,0.0
2.886438568999438,289,136.11,93.1,4.2,-12.0,-1.19,0.47,1.02,0.13,0.89,-0.11,-113.1,-48.6,-5.0,-1.43,1.34,-0.12,0.0,0.9061456836513652,1.636276260293475,0.0,0.0,2.0,0.45,0.6,1.2,100.0,1.0,0.18,0.11083045950637016,0.2,1.0,-160.0,0,1,0,calibrating,0,0,0,0,0,0.0
2.8959736699998757,290,136.12,93.0,4.3,-12.0,-1.22,0.31,0.89,0.14,0.85,-0.12,-113.6,-49.9,-12.0,-1.42,1.38,-0.03,0.0,0.8697700845625813,1.5416225218904918,0.0,0.0,2.0,0.45,0.6,1.2,100.0,1.0,0.18,0.14426193742325089,0.2,1.0,-160.0,0,1,0,calibrating,0,0,0,0,0,0.0
2.9064796999991813,291,136.13,92.9,4.4,-12.1,-1.29,0.17,0.63,0.16,0.8,-0.14,-114.1,-49.8,6.0,-1.41,1.31,0.0,0.0,0.8277680834629951,1.445648643343188,0.0,0.0,2.0,0.45,0.6,1.2,100.0,1.0,0.18,0.18253865975238048,0.2,1.0,-160.0,0,1,0,calibrating,0,0,0,0,0,0.0
2.9160140690000844,292,136.14,92.8,4.4,-12.1,-1.36,0.07,0.27,0.18,0.74,-0.16,-114.6,-46.6,22.0,-1.4,1.23,-0.06,0.0,0.7782030583337487,1.3883083231040576,0.0,0.0,2.0,0.45,0.6,1.2,100.0,1.0,0.18,0.22746161118399444,0.2,1.0,-160.0,0,1,0,calibrating,0,0,0,0,0,0.0
2.9262888279990875,293,136.15,92.6,4.4,-12.1,-1.43,0.06,-0.12,0.21,0.72,-0.19,-115.1,-44.2,27.0,-1.38,1.14,-0.15,0.0,0.773692445355388,1.4362799170078233,0.0,0.0,2.0,0.45,0.6,1.2,100.0,1.0,0.18,0.22733277967910803,0.2,1.0,-160.0,0,1,0,calibrating,0,0,0,0,0,0.0
2.936076531999788,294,136.16,92.5,4.4,-12.1,-1.28,0.39,-0.37,0.23,0.72,-0.21,-115.5,-42.5,17.0,-1.37,1.12,-0.17,0.0,0.7844743462982074,1.3883083231040576,0.0,0.0,2.0,0.45,0.6,1.2,100.0,1.0,0.18,0.21221986116156277,0.2,1.0,-160.0,0,1,0,calibrating,0,0,0,0,0,0.0
2.946518881999509,295,136.17,92.4,4.3,-12.2,-0.84,0.82,-0.45,0.22,0.75,-0.19,-115.9,-40.2,17.0,-1.36,1.09,0.05,0.0,0.8043631020876082,1.2571793825862718,0.0,0.0,2.0,0.45,0.6,1.2,100.0,1.0,0.18,0.18848448326471878,0.2,1.0,-160.0,0,1,0,calibrating,0,0,0,0,0,0.0
2.9720174239992048,297,136.19,92.3,4.3,-12.4,0.03,1.4,-0.28,0.18,0.83,-0.15,-116.7,-36.7,20.0,-1.34,0.98,-0.11,0.0,0.8624384035976134,1.428040615668896,0.0,0.0,2.0,0.45,0.6,1.2,100.0,1.0,0.18,0.1278009981196193,0.2,1.0,-160.0,0,1,0,calibrating,0,0,0,0,0,0.0
2.980201766000391,298,136.2,92.3,4.3,-12.5,0.18,1.58,-0.28,0.15,0.85,-0.15,-117.0,-36.4,8.0,-1.33,0.98,0.01,0.0,0.8760707733967615,1.6146826313551528,0.0,0.0,2.0,0.45,0.6,1.2,100.0,1.0,0.18,0.11188525575406172,0.2,1.0,-160.0,0,1,0,calibrating,0,0,0,0,0,0.0
2.9880092759995023,299,136.21,92.3,4.2,-12.7,0.3,1.7,-0.36,0.12,0.82,-0.15,-117.4,-36.1,3.0,-1.32,0.98,0.09,0.0,0.8421995013059553,1.7634057956125695,0.0,0.0,2.0,0.45,0.6,1.2,100.0,1.0,0.18,0.14284139728797052,0.2,1.0,-160.0,0,1,0,calibrating,0,0,0,0,0,0.0
2.996199733999674,300,136.22,92.3,4.2,-12.9,0.52,1.73,-0.49,0.12,0.81,-0.15,-117.8,-38.1,-20.0,-1.31,1.08,0.06,0.0,0.8324662155306966,1.8717371610351705,0.0,0.0,2.0,0.45,0.6,1.2,100.0,1.0,0.18,0.14952318940196474,0.2,1.0,-160.0,0,1,0,calibrating,0,0,0,0,0,0.0
3.0065778459993453,301,136.23,92.4,4.1,-13.1,0.8,1.72,-0.52,0.12,0.83,-0.14,-118.2,-43.1,-47.0,-1.3,1.26,-0.18,0.0,0.850235261559999,1.9669265365030795,0.0,0.0,2.0,0.45,0.6,1.2,100.0,1.0,0.18,0.12911906050520894,0.2,1.0,-160.0,0,1,0,calibrating,0,0,0,0,0,0.0
3.01616349699907,302,136.24,92.4,4.1,-13.2,1.11,1.7,-0.42,0.11,0.88,-0.12,-118.7,-53.3,-93.0,-1.28,1.6,-0.04,0.0,0.8949301648732151,2.0732824216685963,0.0,0.0,2.0,0.45,0.6,1.2,100.0,1.0,0.18,0.08273567404815307,0.2,1.0,-160.0,0,1,0,calibrating,0,0,0,0,0,0.0
3.02651921100005,303,136.25,92.6,4.1,-13.4,1.27,1.63,-0.21,0.09,0.95,-0.07,-119.3,-64.3,-101.0,-1.27,1.88,0.07,0.0,0.9568176419778223,2.0769930187653496,0.0,0.0,2.0,0.45,0.6,1.2,100.0,1.0,0.18,0.020431233004674976,0.2,1.0,-160.0,0,1,0,calibrating,0,0,0,0,0,0.0
3.0361521009999706,304,136.26,92.7,4.1,-13.6,1.23,1.36,0.0,0.07,1.0,-0.05,-120.0,-76.6,-124.0,-1.24,2.25,0.13,0.0,1.0036931802099682,1.833712082089225,0.0,0.0,2.0,0.45,0.6,1.2,100.0,1.0,0.18,0.025915419122921834,0.2,1.0,-160.0,0,1,0,calibrating,0,0,0,0,0,0.0
3.0465974969993113,305,136.27,92.8,4.1,-13.7,1.02,0.91,0.18,0.05,1.02,-0.06,-120.9,-91.9,-149.0,-1.22,2.7,-0.03,0.0,1.022985825903761,1.3787313008704778,0.0,0.0,2.0,0.45,0.6,1.2,100.0,1.0,0.18,0.04430390352038005,0.2,1.0,-160.0,0,1,0,calibrating,0,0,0,0,0,0.0
3.0561296029991354,306,136.28,92.9,4.1,-13.7,0.79,0.48,0.22,0.03,0.97,-0.14,-121.9,-107.7,-146.0,-1.19,3.09,0.34,0.0,0.9805100713404222,0.9502105029939418,0.0,0.0,2.0,0.45,0.6,1.2,100.0,1.0,0.18,0.0017915859779005228,0.2,1.0,-160.0,0,1,0,calibrating,0,0,0,0,0,0.0
3.066363507999995,307,136.29,93.0,4.1,-13.8,0.84,0.11,0.14,0.05,0.96,-0.2,-123.1,-123.0,-157.0,-1.15,3.54,0.26,0.0,0.9818859404228171,0.8586617494683223,0.0,0.0,2.0,0.45,0.6,1.2,100.0,1.0,0.18,0.003104105959089498,0.2,1.0,-160.0,0,1,0,calibrating,0,0,0,0,0,0.0
3.0761994360000244,308,136.3,93.1,4.2,-13.8,0.95,0.0,0.21,0.08,0.99,-0.23,-124.5,-139.8,-158.0,-1.12,3.99,0.05,0.0,1.0195096860746344,0.9729337079164233,0.0,0.0,2.0,0.45,0.6,1.2,100.0,1.0,0.18,0.03991329457868875,0.2,1.0,-160.0,0,1,0,calibrating,0,0,0,0,0,0.0
3.0865278410001338,309,136.31,93.2,4.2,-13.8,1.22,0.11,0.29,0.11,1.01,-0.25,-126.0,-154.7,-150.0,-1.07,4.38,-0.01,0.0,1.046279121458514,1.2588089608832629,0.0,0.0,2.0,0.45,0.6,1.2,100.0,1.0,0.18,0.06534907536331702,0.2,1.0,-160.0,0,1,0,calibrating,0,0,0,0,0,0.0
3.095990410000013,310,136.32,93.4,4.2,-13.8,1.52,0.46,0.52,0.14,1.12,-0.24,-127.6,-170.8,-160.0,-1.03,4.84,0.03,0.0,1.1539497389401328,1.6710475756243448,0.0,0.0,2.0,0.45,0.6,1.2,100.0,1.0,0.18,0.1695592989880368,0.2,1.0,-160.0,0,1,0,calibrating,0,0,0,0,0,0.0
3.106608314999903,311,136.33,93.5,4.3,-13.9,1.54,0.87,0.96,0.14,1.17,-0.21,-129.4,-186.7,-165.0,-0.97,5.29,0.15,0.0,1.1969126952288542,2.012486024796197,0.0,0.0,2.0,0.45,0.6,1.2,100.0,1.0,0.18,0.20827181017122331,0.2,1.0,-160.0,0,1,0,calibrating,0,0,0,0,0,0.0
3.1161728560000483,312,136.34,93.7,4.4,-13.9,1.53,1.1,1.31,0.12,1.15,-0.18,-131.4,-206.5,-202.0,-0.92,5.9,0.09,0.0,1.1701709276853531,2.2949945533704432,0.0,0.0,2.0,0.45,0.6,1.2,100.0,1.0,0.18,0.1778994417751678,0.2,1.0,-160.0,0,1,0,calibrating,0,0,0,0,0,0.0
3.1263920979999966,313,136.35,93.9,4.6,-14.1,1.68,1.2,1.64,0.12,1.19,-0.17,-133.7,-231.4,-236.0,-0.85,6.6,0.1,0.0,1.2080562900792329,2.6366645596283194,0.0,0.0,2.0,0.45,0.6,1.2,100.0,1.0,0.18,0.21146910808566677,0.2,1.0,-160.0,0,1,0,calibrating,0,0,0,0,0,0.0
3.1361442119996354,314,136.36,94.1,4.8,-14.2,1.84,1.42,2.06,0.11,1.28,-0.12,-136.2,-257.0,-245.0,-0.78,7.28,0.04,0.0,1.2903100402616419,3.1057366275973886,0.0,0.0,2.0,0.45,0.6,1.2,100.0,1.0,0.18,0.28784840110271404,0.2,1.0,-160.0,0,1,0,calibrating,0,0,0,0,0,0.0
3.146623921000355,315,136.37,94.3,5.1,-14.3,1.68,1.56,2.67,0.06,1.42,-0.02,-138.9,-279.6,-228.0,-0.71,7.87,0.04,0.0,1.421407752898513,3.5192186632830875,0.0,0.0,2.0,0.45,0.6,1.2,100.0,1.0,0.18,0.4105671914647935,0.2,1.0,-160.0,0,1,0,calibrating,0,0,0,0,0,0.0
3.15613958799986,316,136.38,94.4,5.4,-14.4,1.13,1.55,3.28,0.02,1.51,0.02,-141.8,-302.9,-231.0,-0.62,8.49,-0.07,0.0,1.510264877430446,3.7997105152892896,0.0,0.0,2.0,0.45,0.6,1.2,100.0,1.0,0.18,0.489435829676792,0.2,1.0,-160.0,0,1,0,calibrating,0,0,0,0,0,0.0
3.1666202519991202,317,136.39,94.4,5.7,-14.6,0.42,1.47,3.73,0.02,1.58,0.07,-145.0,-322.7,-185.0,-0.53,8.93,0.04,0.0,1.5816763259276534,4.031153681019864,0.0,0.0,2.0,0.45,0.6,1.2,100.0,1.0,0.18,0.5496303326105194,0.2,1.0,-160.0,0,1,0,calibrating,0,0,0,0,0,0.0
3.1761346949988365,318,136.4,94.4,6.1,-14.7,-0.64,1.13,4.07,0.02,1.51,0.12,-148.3,-332.0,-112.0,-0.44,9.11,0.01,0.0,1.514892735476674,4.272165727122486,0.0,0.0,2.0,0.45,0.6,1.2,100.0,1.0,0.18,0.4731898073163492,0.2,1.0,-160.0,0,1,0,calibrating,0,0,0,0,0,0.0
3.186536305000118,319,136.41,94.3,6.5,-14.7,-1.19,0.83,3.8,0.05,1.27,0.09,-151.7,-341.3,-103.0,-0.35,9.38,-0.13,0.0,1.2741663941573722,4.067554547882548,0.0,0.0,2.0,0.45,0.6,1.2,100.0,1.0,0.18,0.22781419667710656,0.2,1.0,-160.0,0,1,0,calibrating,0,0,0,0,0,0.0
3.1960031729995535,320,136.42,94.2,6.9,-14.8,-0.75,0.21,3.1,0.13,1.05,0.1,-155.2,-348.7,-78.0,-0.26,9.55,0.11,0.0,1.0627323275406653,3.196341658834362,0.0,0.0,2.0,0.45,0.6,1.2,100.0,1.0,0.18,0.016052527459191612,0.2,1.0,-160.0,0,1,0,calibrating,0,0,0,0,0,0.0
3.2066836209996836,321,136.43,94.2,7.1,-14.7,0.19,-0.12,2.35,0.28,0.94,0.05,-158.7,-356.2,-86.0,-0.16,9.81,-0.09,0.0,0.982089608946149,2.360720229082642,0.0,0.0,2.0,0.45,0.6,1.2,100.0,1.0,0.18,0.06329838731261805,0.2,1.0,-160.0,0,1,0,calibrating,0,0,0,0,0,0.0
3.2162151640004595,322,136.44,94.2,7.3,-14.7,1.28,0.07,1.66,0.4,0.94,0.03,-162.3,-365.4,-74.0,-0.06,9.98,-0.06,0.0,1.0220078277586724,2.0973554777385734,0.0,0.0,2.0,0.45,0.6,1.2,100.0,1.0,0.18,0.022912565130092766,0.2,1.0,-160.0,0,1,0,calibrating,0,0,0,0,0,0.0
3.226315784999315,323,136.45,94.4,7.5,-14.7,1.89,0.58,1.02,0.47,1.0,0.0,-166.0,-364.7,-7.0,0.03,9.89,-0.06,0.0,1.104943437466371,2.2246123257772354,0.0,0.0,2.0,0.45,0.6,1.2,100.0,1.0,0.18,0.05882258368605364,0.2,1.0,-160.0,0,1,0,calibrating,0,0,0,0,0,0.0
3.2361280900004203,324,136.46,94.6,7.5,-14.8,1.91,1.55,0.36,0.46,1.06,-0.02,-169.6,-367.7,-46.0,0.13,10.08,0.18,0.0,1.1556816170554933,2.486000804505099,0.0,0.0,2.0,0.45,0.6,1.2,100.0,1.0,0.18,0.10736954800967258,0.2,1.0,-160.0,0,1,0,calibrating,0,0,0,0,0,0.0
3.2465434610003285,325,136.47,94.7,7.6,-15.1,1.32,2.69,-0.22,0.41,1.11,0.0,-173.4,-371.2,-12.0,0.23,10.06,-0.02,0.0,1.1833004690272035,3.0044799882841624,0.0,0.0,2.0,0.45,0.6,1.2,100.0,1.0,0.18,0.1322886319817551,0.2,1.0,-160.0,0,1,0,calibrating,0,0,0,0,0,0.0
3.256123003000539,326,136.48,94.8,7.5,-15.4,0.45,3.61,-0.56,0.32,1.09,0.0,-177.1,-369.5,-9.0,0.33,10.09,-0.02,0.0,1.136001760562016,3.680787959119623,0.0,0.0,2.0,0.45,0.6,1.2,100.0,1.0,0.18,0.08329012504623634,0.2,1.0,-160.0,0,1,0,calibrating,0,0,0,0,0,0.0
3.266597195999566,327,136.49,94.7,7.5,-15.8,-0.25,4.37,-0.75,0.18,1.01,0.01,-180.8,-375.1,-37.0,0.43,10.23,0.14,0.0,1.0259629622944486,4.440934586323019,0.0,0.0,2.0,0.45,0.6,1.2,100.0,1.0,0.18,0.026213699756904463,0.2,1.0,-160.0,0,1,0,calibrating,0,0,0,0,0,0.0
3.2761917329989956,328,136.5,94.6,7.5,-16.3,-0.75,4.92,-0.87,0.04,0.92,0.04,-184.5,-371.8,33.0,0.54,10.01,0.06,0.0,0.9217374897442331,5.052306404009955,0.0,0.0,2.0,0.45,0.6,1.2,100.0,1.0,0.18,0.12783038886097775,0.2,1.0,-160.0,0,1,0,calibrating,0,0,0,0,0,0.0
3.2865182669993374,329,136.51,94.4,7.4,-16.8,-0.89,5.09,-0.88,-0.03,0.88,0.09,-188.2,-364.6,61.0,0.63,9.79,-0.09,0.0,0.8850988645343525,5.241621886401193,0.0,0.0,2.0,0.45,0.6,1.2,100.0,1.0,0.18,0.1611796337894411,0.2,1.0,-160.0,0,1,0,calibrating,0,0,0,0,0,0.0
3.2959634910002933,330,136.52,94.3,7.4,-17.3,-0.8,4.98,-0.89,-0.05,0.83,0.11,-191.8,-350.3,146.0,0.73,9.25,-0.11,0.0,0.8387490685538792,5.1217672731196995,0.0,0.0,2.0,0.45,0.6,1.2,100.0,1.0,0.18,0.2033788411745161,0.2,1.0,-160.0,0,1,0,calibrating,0,0,0,0,0,0.0
3.306694626000535,331,136.53,94.1,7.3,-17.8,-0.66,4.86,-1.01,-0.05,0.8,0.11,-194.8,-328.6,218.0,0.82,8.52,-0.22,0.0,0.8090735442467515,5.0075243384331145,0.0,0.0,2.0,0.45,0.6,1.2,100.0,1.0,0.18,0.22839327817201094,0.2,1.0,-160.0,0,1,0,calibrating,0,0,0,0,0,0.0
3.3161826630002906,332,136.54,94.0,7.2,-18.3,-0.61,4.8,-1.04,-0.03,0.82,0.11,-198.2,-296.3,287.0,0.9,7.64,-0.11,0.0,0.8278888814327681,4.949111031286326,0.0,0.0,2.0,0.45,0.6,1.2,100.0,1.0,0.18,0.20538638216627447,0.2,1.0,-160.0,0,1,0,calibrating,0,0,0,0,0,0.0
3.3265180479993433,333,136.55,93.9,7.2,-18.8,-0.61,4.71,-1.01,-0.02,0.84,0.12,-200.9,-258.6,365.0,0.96,6.51,-0.07,0.0,0.8487638069569177,4.855543223986375,0.0,0.0,2.0,0.45,0.6,1.2,100.0,1.0,0.18,0.1808212275092823,0.2,1.0,-160.0,0,1,0,calibrating,0,0,0,0,0,0.0
3.3361960940001154,334,136.56,93.8,7.1,-19.3,-0.58,4.53,-0.92,-0.02,0.85,0.12,-203.1,-215.4,412.0,1.02,5.31,-0.19,0.0,0.8586617494683223,4.658723000995015,0.0,0.0,2.0,0.45,0.6,1.2,100.0,1.0,0.18,0.16750481929792016,0.2,1.0,-160.0,0,1,0,calibrating,0,0,0,0,0,0.0
3.3466352350005764,335,136.57,93.7,7.1,-19.7,-0.52,4.23,-0.84,-0.02,0.87,0.12,-205.0,-172.0,428.0,1.07,4.13,-0.22,0.0,0.8784645695758025,4.3438347114042,0.0,0.0,2.0,0.45,0.6,1.2,100.0,1.0,0.18,0.14474795920663108,0.2,1.0,-160.0,0,1,0,calibrating,0,0,0,0,0,0.0
3.356180332999429,336,136.58,93.5,7.0,-20.1,-0.47,3.91,-0.78,-0.03,0.88,0.11,-206.4,-127.2,448.0,1.1,2.89,-0.18,0.0,0.8873556220591606,4.014648178857022,0.0,0.0,2.0,0.45,0.6,1.2,100.0,1.0,0.18,0.1331397685888075,0.2,1.0,-160.0,0,1,0,calibrating,0,0,0,0,0,0.0
3.366424277999613,337,136.59,93.5,6.9,-20.5,-0.23,3.51,-0.76,-0.04,0.89,0.08,-207.4,-80.5,463.0,1.12,1.6,-0.17,0.0,0.8944830909525344,3.598694207625871,0.0,0.0,2.0,0.45,0.6,1.2,100.0,1.0,0.18,0.12349205370152505,0.2,1.0,-160.0,0,1,0,calibrating,0,0,0,0,0,0.0
3.3760542109994276,338,136.6,93.4,6.9,-20.8,0.1,3.13,-0.8,-0.06,0.91,0.06,-207.8,-32.8,469.0,1.13,0.32,-0.01,0.0,0.9139474820797966,3.232166456109586,0.0,0.0,2.0,0.45,0.6,1.2,100.0,1.0,0.18,0.10194710932277773,0.2,1.0,-160.0,0,1,0,calibrating,0,0,0,0,0,0.0
3.386327488999086,339,136.61,93.4,6.8,-21.1,0.33,2.74,-0.88,-0.07,0.94,0.04,-207.9,10.0,412.0,1.12,-0.69,-0.26,0.0,0.9434511116109833,2.896705024678903,0.0,0.0,2.0,0.45,0.6,1.2,100.0,1.0,0.18,0.07099461019575926,0.2,1.0,-160.0,0,1,0,calibrating,0,0,0,0,0,0.0
3.3960944840000593,340,136.62,93.4,6.7,-21.4,0.31,2.36,-0.95,-0.06,0.98,0.03,-207.5,40.1,328.0,1.11,-1.44,-0.11,0.0,0.9822932352408826,2.562849976100825,0.0,0.0,2.0,0.45,0.6,1.2,100.0,1.0,0.18,0.03150943683454266,0.2,1.0,-160.0,0,1,0,calibrating,0,0,0,0,0,0.0
3.4065500340002473,341,136.63,93.4,6.7,-21.6,-0.03,2.09,-0.96,-0.04,1.01,0.0,-207.0,66.9,281.0,1.09,-2.12,-0.03,0.0,1.0107917688624102,2.3001304310842894,0.0,0.0,2.0,0.45,0.6,1.2,100.0,1.0,0.18,0.002950685148754628,0.2,1.0,-160.0,0,1,0,calibrating,0,0,0,0,0,0.0
3.4161877679998724,342,136.64,93.4,6.6,-21.8,-0.43,1.93,-0.94,-0.02,1.01,0.0,-206.1,93.1,273.0,1.06,-2.86,-0.09,0.0,1.010198000393982,2.189383474862273,0.0,0.0,2.0,0.45,0.6,1.2,100.0,1.0,0.18,0.0034735645448389363,0.2,1.0,-160.0,0,1,0,calibrating,0,0,0,0,0,0.0
3.426520901999538,343,136.65,93.3,6.5,-22.0,-0.7,1.83,-0.87,0.0,1.0,-0.01,-205.0,118.8,255.0,1.03,-3.53,-0.06,0.0,1.0000499987500624,2.1437817053049035,0.0,0.0,2.0,0.45,0.6,1.2,100.0,1.0,0.18,0.013349134864983458,0.2,1.0,-160.0,0,1,0,calibrating,0,0,0,0,0,0.0
3.4359558679989277,344,136.66,93.2,6.4,-22.2,-0.74,1.73,-0.79,0.01,1.0,-0.02,-203.6,143.2,250.0,0.99,-4.2,-0.12,0.0,1.0002499687578101,2.0407351616513103,0.0,0.0,2.0,0.45,0.6,1.2,100.0,1.0,0.18,0.012886181560090915,0.2,1.0,-160.0,0,1,0,calibrating,0,0,0,0,0,0.0
3.4465490559996397,345,136.67,93.1,6.3,-22.4,-0.73,1.67,-0.7,0.03,1.0,-0.03,-202.0,166.9,241.0,0.94,-4.83,0.0,0.0,1.0008995953640905,1.952383159116058,0.0,0.0,2.0,0.45,0.6,1.2,100.0,1.0,0.18,0.011991823854734296,0.2,1.0,-160.0,0,1,0,calibrating,0,0,0,0,0,0.0
3.4562075220001134,346,136.68,93.0,6.2,-22.6,-0.76,1.65,-0.65,0.04,1.01,-0.04,-200.2,191.7,246.0,0.89,-5.52,0.04,0.0,1.011582918005242,1.9294040530692371,0.0,0.0,2.0,0.45,0.6,1.2,100.0,1.0,0.18,0.0012823311893110922,0.2,1.0,-160.0,0,1,0,calibrating,0,0,0,0,0,0.0
3.4664779489994544,347,136.69,92.8,6.1,-22.7,-0.87,1.65,-0.58,0.04,1.01,-0.04,-198.1,215.8,234.0,0.83,-6.13,-0.09,0.0,1.011582918005242,1.9534072796014659,0.0,0.0,2.0,0.45,0.6,1.2,100.0,1.0,0.18,0.001256684565524857,0.2,1.0,-160.0,0,1,0,calibrating,0,0,0,0,0,0.0
3.476143783000225,348,136.7,92.7,6.0,-22.9,-1.0,1.59,-0.54,0.04,1.0,-0.04,-195.8,236.9,215.0,0.77,-6.69,-0.16,0.0,1.001598722043913,1.9544052803858263,0.0,0.0,2.0,0.45,0.6,1.2,100.0,1.0,0.18,0.011016062916316738,0.2,1.0,-160.0,0,1,0,calibrating,0,0,0,0,0,0.0
3.4865517519992864,349,136.71,92.6,5.9,-23.1,-1.09,1.46,-0.52,0.03,0.98,-0.05,-193.3,256.5,201.0,0.7,-7.21,-0.03,0.0,0.9817331613019904,1.8947559209565754,0.0,0.0,2.0,0.45,0.6,1.2,100.0,1.0,0.18,0.030263991185074612,0.2,1.0,-160.0,0,1,0,calibrating,0,0,0,0,0,0.0
3.4961631890000717,350,136.72,92.5,5.8,-23.2,-1.1,1.34,-0.54,0.02,0.95,-0.05,-190.6,276.8,205.0,0.62,-7.78,-0.05,0.0,0.9515250916292223,1.8158193742770783,0.0,0.0,2.0,0.45,0.6,1.2,100.0,1.0,0.18,0.0592626196406858,0.2,1.0,-160.0,0,1,0,calibrating,0,0,0,0,0,0.0
3.506606111999645,351,136.73,92.4,5.7,-23.3,-1.05,1.16,-0.58,0.01,0.93,-0.05,-187.7,298.9,215.0,0.54,-8.38,0.04,0.0,0.931396800509858,1.6686821147240718,0.0,0.0,2.0,0.45,0.6,1.2,100.0,1.0,0.18,0.0778030925448493,0.2,1.0,-160.0,0,1,0,calibrating,0,0,0,0,0,0.0
3.5162266499992256,352,136.74,92.3,5.6,-23.4,-0.95,1.0,-0.66,0.01,0.92,-0.06,-184.5,320.9,224.0,0.45,-9.01,0.04,0.0,0.9220086767487604,1.5290846935340108,0.0,0.0,2.0,0.45,0.6,1.2,100.0,1.0,0.18,0.08544739197982787,0.2,1.0,-160.0,0,1,0,calibrating,0,0,0,0,0,0.0
3.526596375999361,353,136.75,92.2,5.5,-23.5,-0.79,0.83,-0.72,0.01,0.92,-0.07,-181.1,346.6,240.0,0.35,-9.69,-0.11,0.0,0.9227133899537819,1.3532922818075923,0.0,0.0,2.0,0.45,0.6,1.2,100.0,1.0,0.18,0.0830478251993102,0.2,1.0,-160.0,0,1,0,calibrating,0,0,0,0,0,0.0
3.53602581099949,354,136.76,92.2,5.4,-23.6,-0.67,0.68,-0.76,0.01,0.92,-0.08,-177.5,366.4,194.0,0.25,-10.15,-0.01,0.0,0.9235258523723091,1.2202049008260867,0.0,0.0,2.0,0.45,0.6,1.2,100.0,1.0,0.18,0.08059065552516742,0.2,1.0,-160.0,0,1,0,calibrating,0,0,0,0,0,0.0
3.546498617999532,355,136.77,92.1,5.3,-23.7,-0.56,0.55,-0.81,0.01,0.92,-0.09,-173.7,386.3,217.0,0.15,-10.8,-0.18,0.0,0.9244457799135654,1.127918436767482,0.0,0.0,2.0,0.45,0.6,1.2,100.0,1.0,0.18,0.07807731342423285,0.2,1.0,-160.0,0,1,0,calibrating,0,0,0,0,0,0.0
3.556186981999417,356,136.78,92.0,5.2,-23.7,-0.55,0.46,-0.84,0.01,0.93,-0.11,-169.7,408.9,194.0,0.04,-11.29,-0.16,0.0,0.9365361712181757,1.1044002897500524,0.0,0.0,2.0,0.45,0.6,1.2,100.0,1.0,0.18,0.06466718367723012,0.2,1.0,-160.0,0,1,0,calibrating,0,0,0,0,0,0.0
3.566471353000452,357,136.79,92.0,5.1,-23.8,-0.62,0.46,-0.83,0.02,0.93,-0.13,-165.5,424.3,195.0,-0.07,-11.84,-0.08,0.0,0.9392550239418472,1.1335342959081565,0.0,0.0,2.0,0.45,0.6,1.2,100.0,1.0,0.18,0.06070936433448737,0.2,1.0,-160.0,0,1,0,calibrating,0,0,0,0,0,0.0
3.5761233550001634,358,136.8,91.9,5.0,-23.8,-0.82,0.47,-0.75,0.02,0.93,-0.14,-161.1,450.2,218.0,-0.19,-12.46,-0.1,0.0,0.9406912352095134,1.206565373280702,0.0,0.0,2.0,0.45,0.6,1.2,100.0,1.0,0.18,0.05808769000548475,0.2,1.0,-160.0,0,1,0,calibrating,0,0,0,0,0,0.0
3.5865837799992732,359,136.81,91.8,5.0,-23.9,-0.95,0.45,-0.62,0.02,0.93,-0.14,-156.5,465.0,169.0,-0.32,-12.84,-0.09,0.0,0.9406912352095134,1.220409767250328,0.0,0.0,2.0,0.45,0.6,1.2,100.0,1.0,0.18,0.056925936205375005,0.2,1.0,-160.0,0,1,0,calibrating,0,0,0,0,0,0.0
3.596129536999797,360,136.82,91.7,4.9,-23.9,-1.08,0.38,-0.44,0.01,0.92,-0.14,-151.7,485.2,202.0,-0.45,-13.45,-0.09,0.0,0.9306449376641985,1.2265398485169572,0.0,0.0,2.0,0.45,0.6,1.2,100.0,1.0,0.18,0.06563278907567605,0.2,1.0,-160.0,0,1,0,calibrating,0,0,0,0,0,0.0
3.6064647620005417,361,136.83,91.6,4.9,-23.9,-1.2,0.32,-0.23,0.0,0.91,-0.14,-147.2,506.0,243.0,-0.59,-14.23,-0.2,0.0,0.9207062506576134,1.263051859584554,0.0,0.0,2.0,0.45,0.6,1.2,100.0,1.0,0.18,0.07406004656061616,0.2,1.0,-160.0,0,1,0,calibrating,0,0,0,0,0,0.0
3.616169302998969,362,136.84,91.5,4.9,-24.0,-1.22,0.2,-0.01,-0.01,0.9,-0.12,-141.4,533.5,197.0,-0.74,-14.64,-0.1,0.0,0.9080198235721508,1.236325199937298,0.0,0.0,2.0,0.45,0.6,1.2,100.0,1.0,0.18,0.08501154417315715,0.2,1.0,-160.0,0,1,0,calibrating,0,0,0,0,0,0.0
3.6266214520001085,363,136.85,91.3,4.9,-24.0,-1.11,0.03,0.22,0.0,0.9,-0.11,-136.0,553.1,231.0,-0.89,-15.36,-0.01,0.0,0.906697303403953,1.1319893992436503,0.0,0.0,2.0,0.45,0.6,1.2,100.0,1.0,0.18,0.08460738305452786,0.2,1.0,-160.0,0,1,0,calibrating,0,0,0,0,0,0.0
3.6360577340001328,364,136.86,91.2,4.9,-24.0,-1.03,-0.12,0.46,0.0,0.91,-0.11,-130.3,567.5,136.0,-1.04,-15.56,0.05,0.0,0.916624241442479,1.1344161493913951,0.0,0.0,2.0,0.45,0.6,1.2,100.0,1.0,0.18,0.07318683611568189,0.2,1.0,-160.0,0,1,0,calibrating,0,0,0,0,0,0.0
3.646419163000246,365,136.87,91.1,5.0,-24.0,-1.01,-0.29,0.67,0.0,0.9,-0.11,-124.5,588.0,194.0,-1.2,-16.19,-0.04,0.0,0.906697303403953,1.2462343278854102,0.0,0.0,2.0,0.45,0.6,1.2,100.0,1.0,0.18,0.08145149867112367,0.2,1.0,-160.0,0,1,0,calibrating,0,0,0,0,0,0.0
3.6561221800002386,366,136.88,91.0,5.1,-23.9,-0.9,-0.52,0.83,0.0,0.89,-0.11,-118.5,597.9,120.0,-1.37,-16.39,-0.15,0.0,0.8967719888578144,1.3301503674397117,0.0,0.0,2.0,0.45,0.6,1.2,100.0,1.0,0.18,0.08954927695291703,0.2,1.0,-160.0,0,1,0,calibrating,0,0,0,0,0,0.0
3.666388342000573,367,136.89,91.0,5.2,-23.9,-0.7,-0.71,0.95,-0.01,0.9,-0.11,-112.5,609.5,130.0,-1.53,-16.78,-0.13,0.0,0.9067524469225324,1.377171013345837,0.0,0.0,2.0,0.45,0.6,1.2,100.0,1.0,0.18,0.07797744251043504,0.2,1.0,-160.0,0,1,0,calibrating,0,0,0,0,0,0.0
3.676063818998955,368,136.9,90.9,5.3,-23.8,-0.61,-0.92,1.04,-0.01,0.89,-0.1,-106.2,631.9,172.0,-1.71,-17.3,-0.03,0.0,0.8956561840349231,1.5166080574756289,0.0,0.0,2.0,0.45,0.6,1.2,100.0,1.0,0.18,0.08729223129008346,0.2,1.0,-160.0,0,1,0,calibrating,0,0,0,0,0,0.0
3.686417254999469,369,136.91,90.9,5.4,-23.7,-0.44,-1.13,1.11,-0.02,0.89,-0.1,-99.9,639.7,117.0,-1.88,-17.53,0.0,0.0,0.8958236433584459,1.643958636949239,0.0,0.0,2.0,0.45,0.6,1.2,100.0,1.0,0.18,0.0853822765272294,0.2,1.0,-160.0,0,1,0,calibrating,0,0,0,0,0,0.0
3.696140269999887,370,136.92,90.8,5.5,-23.5,-0.27,-1.37,1.19,-0.02,0.88,-0.11,-93.5,637.0,-45.0,-2.05,-17.14,-0.09,0.0,0.8870738413458036,1.8346389290538887,0.0,0.0,2.0,0.45,0.6,1.2,100.0,1.0,0.18,0.09224943696907428,0.2,1.0,-160.0,0,1,0,calibrating,0,0,0,0,0,0.0
3.7064564729989797,371,136.93,90.8,5.6,-23.4,0.03,-1.6,1.23,-0.03,0.87,-0.11,-87.2,624.5,-157.0,-2.22,-16.51,0.22,0.0,0.8774394566008529,2.0183656754909403,0.0,0.0,2.0,0.45,0.6,1.2,100.0,1.0,0.18,0.09984614527974445,0.2,1.0,-160.0,0,1,0,calibrating,0,0,0,0,0,0.0
3.7160474709999107,372,136.94,90.9,5.7,-23.2,0.33,-1.79,1.28,-0.03,0.88,-0.12,-81.3,564.4,-562.0,-2.37,-14.3,0.33,0.0,0.8886506625215558,2.2251741504880016,0.0,0.0,2.0,0.45,0.6,1.2,100.0,1.0,0.18,0.08686224057186076,0.2,1.0,-160.0,0,1,0,calibrating,0,0,0,0,0,0.0
3.726650647000497,373,136.95,90.9,5.8,-23.0,0.45,-2.0,1.36,-0.02,0.9,-0.13,-76.3,463.4,-957.0,-2.49,-11.05,0.62,0.0,0.9095603333479314,2.460101623917191,0.0,0.0,2.0,0.45,0.6,1.2,100.0,1.0,0.18,0.0646335183505754,0.2,1.0,-160.0,0,1,0,calibrating,0,0,0,0,0,0.0
3.7361020569987886,374,136.96,91.0,6.0,-22.8,0.55,-2.21,1.38,0.04,0.9,-0.14,-72.6,335.8,-1189.0,-2.58,-7.49,0.44,0.0,0.9117017056033185,2.662893163459623,0.0,0.0,2.0,0.45,0.6,1.2,100.0,1.0,0.18,0.061242303173284496,0.2,1.0,-160.0,0,1,0,calibrating,0,0,0,0,0,0.0
3.7464065499989374,375,136.97,91.1,6.1,-22.6,1.1,-2.23,1.21,0.15,0.92,-0.16,-70.2,196.2,-1354.0,-2.63,-3.54,0.55,0.0,0.9457801012920498,2.7653209578636617,0.0,0.0,2.0,0.45,0.6,1.2,100.0,1.0,0.18,0.0266206293348622,0.2,1.0,-160.0,0,1,0,calibrating,0,0,0,0,0,0.0
3.756200509998962,376,136.98,91.3,6.2,-22.3,1.27,-2.04,0.94,0.24,0.94,-0.2,-69.2,55.1,-1332.0,-2.64,0.0,0.37,0.0,0.9905553997631833,2.5803294363317253,0.0,0.0,2.0,0.45,0.6,1.2,100.0,1.0,0.18,0.01779157575354584,0.2,1.0,-160.0,0,1,0,calibrating,0,0,0,0,0,0.0
3.7666475200003333,377,136.99,91.4,6.3,-22.2,1.1,-1.49,0.6,0.29,0.97,-0.23,-69.3,-38.1,-893.0,-2.62,1.67,0.14,0.0,1.0382196299434912,1.946817916498613,0.0,0.0,2.0,0.45,0.6,1.2,100.0,1.0,0.18,0.0641466898151768,0.2,1.0,-160.0,0,1,0,calibrating,0,0,0,0,0,0.0
3.7759683200001746,378,137.0,91.4,6.3,-22.2,1.1,-1.49,0.6,0.29,0.97,-0.23,-69.8,-72.4,-813.0,-2.6,3.15,0.25,0.0,1.0382196299434912,1.946817916498613,0.0,0.0,2.0,0.45,0.6,1.2,100.0,1.0,0.18,0.06286375601887328,0.2,1.0,-160.0,0,1,0,calibrating,0,0,0,0,0,0.0
3.7864034499998525,379,137.01,91.6,6.4,-22.0,0.36,-0.31,0.38,0.16,1.01,-0.2,-71.4,-143.7,-669.0,-2.56,4.5,0.25,0.0,1.0419692893746917,0.6083584469702052,0.0,0.0,2.0,0.45,0.6,1.2,100.0,1.0,0.18,0.06528114714107214,0.2,1.0,-160.0,0,1,0,calibrating,0,0,0,0,0,0.0
3.796103676999337,380,137.02,91.6,6.4,-22.0,0.98,-0.2,0.29,0.16,1.02,-0.12,-73.1,-186.6,-480.0,-2.5,5.5,0.14,0.0,1.0394229168149027,1.0413932974625868,0.0,0.0,2.0,0.45,0.6,1.2,100.0,1.0,0.18,0.06148007908965747,0.2,1.0,-160.0,0,1,0,calibrating,0,0,0,0,0,0.0
3.80634986899895,381,137.03,91.8,6.4,-22.0,1.94,-0.33,0.05,0.14,1.06,-0.09,-75.2,-221.7,-390.0,-2.44,6.43,0.01,0.0,1.07298648640139,1.9685019685029528,0.0,0.0,2.0,0.45,0.6,1.2,100.0,1.0,0.18,0.09314277570262186,0.2,1.0,-160.0,0,1,0,calibrating,0,0,0,0,0,0.0
3.816094683999836,382,137.04,92.1,6.4,-21.9,2.09,-0.31,-0.29,0.1,1.12,-0.12,-77.7,-257.7,-382.0,-2.37,7.49,0.1,0.0,1.1308403954581743,2.132674377395668,0.0,0.0,2.0,0.45,0.6,1.2,100.0,1.0,0.18,0.14797675106421793,0.2,1.0,-160.0,0,1,0,calibrating,0,0,0,0,0,0.0
3.826486894999107,383,137.05,92.3,6.4,-21.9,1.86,-0.34,-0.58,0.07,1.13,-0.08,-80.5,-291.6,-320.0,-2.29,8.23,-0.03,0.0,1.1349889867307081,1.9777765293379332,0.0,0.0,2.0,0.45,0.6,1.2,100.0,1.0,0.18,0.14908283549001677,0.2,1.0,-160.0,0,1,0,calibrating,0,0,0,0,0,0.0
3.836144491999221,384,137.06,92.5,6.3,-21.8,2.35,-0.65,-0.9,0.08,1.08,-0.06,-83.6,-311.1,-202.0,-2.21,8.59,-0.1,0.0,1.0846197490365,2.5990382836734054,0.0,0.0,2.0,0.45,0.6,1.2,100.0,1.0,0.18,0.09673932583989242,0.2,1.0,-160.0,0,1,0,calibrating,0,0,0,0,0,0.0
3.846480786000029,385,137.07,92.8,6.1,-21.7,3.43,-1.15,-1.32,0.13,1.07,-0.06,-86.8,-319.1,-93.0,-2.12,8.67,0.08,0.0,1.0795369377654476,3.85094793524919,0.0,0.0,2.0,0.45,0.6,1.2,100.0,1.0,0.18,0.08982338427746328,0.2,1.0,-160.0,0,1,0,calibrating,0,0,0,0,0,0.0
3.856160450999596,386,137.08,93.3,6.0,-21.6,4.11,-1.36,-1.72,0.18,1.16,-0.11,-89.9,-314.5,37.0,-2.03,8.36,-0.06,0.0,1.1790250209389113,4.65833661299825,0.0,0.0,2.0,0.45,0.6,1.2,100.0,1.0,0.18,0.18552523810190846,0.2,1.0,-160.0,0,1,0,calibrating,0,0,0,0,0,0.0
3.8666658980000648,387,137.09,93.7,5.8,-21.5,3.96,-1.19,-1.96,0.18,1.23,-0.1,-93.0,-294.8,160.0,-1.95,7.73,0.0,0.0,1.2471166745737945,4.575947989214912,0.0,0.0,2.0,0.45,0.6,1.2,100.0,1.0,0.18,0.24854455390205588,0.2,1.0,-160.0,0,1,0,calibrating,0,0,0,0,0,0.0
3.875942339998801,388,137.1,94.1,5.6,-21.4,3.63,-0.92,-2.3,0.13,1.25,-0.08,-95.7,-271.7,208.0,-1.88,7.09,-0.03,0.0,1.2592855117089214,4.394689977688984,0.0,0.0,2.0,0.45,0.6,1.2,100.0,1.0,0.18,0.2554991232164392,0.2,1.0,-160.0,0,1,0,calibrating,0,0,0,0,0,0.0
3.8867360490003193,389,137.11,94.4,5.4,-21.3,3.41,-0.66,-2.56,0.07,1.33,-0.05,-98.3,-245.0,269.0,-1.82,6.26,-0.13,0.0,1.332779051456017,4.314776935138131,0.0,0.0,2.0,0.45,0.6,1.2,100.0,1.0,0.18,0.322412809704264,0.2,1.0,-160.0,0,1,0,calibrating,0,0,0,0,0,0.0
3.896024679999755,390,137.12,94.7,5.1,-21.3,2.92,-0.47,-2.47,0.0,1.4,-0.02,-100.5,-212.0,314.0,-1.76,5.34,-0.26,0.0,1.4001428498549708,3.8533362168385983,0.0,0.0,2.0,0.45,0.6,1.2,100.0,1.0,0.18,0.3819810759411535,0.2,1.0,-160.0,0,1,0,calibrating,0,0,0,0,0,0.0
3.906327909000538,391,137.13,95.0,4.8,-21.3,2.45,-0.62,-2.06,-0.09,1.41,0.01,-102.4,-179.0,320.0,-1.71,4.47,0.0,0.0,1.4129048092493703,3.2604447549375837,0.0,0.0,2.0,0.45,0.6,1.2,100.0,1.0,0.18,0.3868481746288419,0.2,1.0,-160.0,0,1,0,calibrating,0,0,0,0,0,0.0
3.9158923760005564,392,137.14,95.2,4.7,-21.2,1.81,-1.1,-1.39,-0.21,1.4,0.05,-104.0,-148.3,296.0,-1.67,3.71,-0.11,0.0,1.4165450928226746,2.5334166652960977,0.0,0.0,2.0,0.45,0.6,1.2,100.0,1.0,0.18,0.3826786890381033,0.2,1.0,-160.0,0,1,0,calibrating,0,0,0,0,0,0.0
3.9266031549996114,393,137.15,95.4,4.5,-21.1,1.26,-1.79,-0.61,-0.3,1.36,0.11,-105.3,-123.1,257.0,-1.64,3.06,0.04,0.0,1.3970325694127537,2.272399612744202,0.0,0.0,2.0,0.45,0.6,1.2,100.0,1.0,0.18,0.35590284231561875,0.2,1.0,-160.0,0,1,0,calibrating,0,0,0,0,0,0.0
3.9360699609987932,394,137.16,95.5,4.5,-20.9,1.03,-2.7,0.03,-0.34,1.25,0.15,-106.4,-102.7,212.0,-1.61,2.56,-0.21,0.0,1.3040705502387515,2.8899480964197264,0.0,0.0,2.0,0.45,0.6,1.2,100.0,1.0,0.18,0.25768200667878416,0.2,1.0,-160.0,0,1,0,calibrating,0,0,0,0,0,0.0
3.946395646999008,395,137.17,95.6,4.5,-20.5,1.07,-3.84,0.33,-0.32,1.14,0.18,-107.3,-86.7,163.0,-1.59,2.2,0.05,0.0,1.1976643937263893,3.9999249992968617,0.0,0.0,2.0,0.45,0.6,1.2,100.0,1.0,0.18,0.14825033316309355,0.2,1.0,-160.0,0,1,0,calibrating,0,0,0,0,0,0.0
3.9560960220005654,396,137.18,95.8,4.5,-20.1,1.03,-4.94,0.34,-0.22,1.08,0.18,-108.1,-75.3,125.0,-1.57,1.92,0.0,0.0,1.1167810886650973,5.057677332531209,0.0,0.0,2.0,0.45,0.6,1.2,100.0,1.0,0.18,0.06601968753976539,0.2,1.0,-160.0,0,1,0,calibrating,0,0,0,0,0,0.0
3.966452937998838,397,137.19,95.9,4.5,-19.5,0.54,-5.77,0.27,-0.11,1.05,0.2,-108.7,-65.6,105.0,-1.55,1.66,-0.23,0.0,1.074523150053083,5.80149980608463,0.0,0.0,2.0,0.45,0.6,1.2,100.0,1.0,0.18,0.023286513949196008,0.2,1.0,-160.0,0,1,0,calibrating,0,0,0,0,0,0.0
3.9759092869990127,398,137.2,96.0,4.4,-18.9,-0.09,-6.44,0.15,-0.01,1.0,0.23,-109.3,-56.2,91.0,-1.54,1.42,0.03,0.0,1.0261578825892241,6.442375338336009,0.0,0.0,2.0,0.45,0.6,1.2,100.0,1.0,0.18,0.024577178444369574,0.2,1.0,-160.0,0,1,0,calibrating,0,0,0,0,0,0.0
3.9865256709999812,399,137.21,96.0,4.4,-18.2,-0.7,-6.9,0.0,0.06,0.93,0.21,-109.8,-47.8,94.0,-1.53,1.15,-0.12,0.0,0.9553009996854396,6.935416353759881,0.0,0.0,2.0,0.45,0.6,1.2,100.0,1.0,0.18,0.09352538012119116,0.2,1.0,-160.0,0,1,0,calibrating,0,0,0,0,0,0.0
3.9960780999990675,400,137.22,95.9,4.3,-17.5,-1.23,-7.1,-0.24,0.1,0.87,0.18,-110.2,-35.7,116.0,-1.52,0.81,0.0,0.0,0.8940357934669059,7.2097503424182445,0.0,0.0,2.0,0.45,0.6,1.2,100.0,1.0,0.18,0.15169477461293024,0.2,1.0,-160.0,0,1,0,calibrating,0,0,0,0,0,0.0
4.006609271000343,401,137.23,95.8,4.2,-16.8,-1.48,-7.03,-0.54,0.11,0.8,0.14,-110.5,-20.1,163.0,-1.51,0.29,-0.16,0.0,0.8195730595865143,7.2043667313650825,0.0,0.0,2.0,0.45,0.6,1.2,100.0,1.0,0.18,0.22163435832345535,0.2,1.0,-160.0,0,1,0,calibrating,0,0,0,0,0,0.0
4.016067688000476,402,137.24,95.7,4.0,-16.1,-1.51,-6.82,-0.78,0.12,0.77,0.06,-110.6,-3.3,143.0,-1.51,-0.05,0.07,0.0,0.7816009211867653,7.028577380949861,0.0,0.0,2.0,0.45,0.6,1.2,100.0,1.0,0.18,0.2544143667887403,0.2,1.0,-160.0,0,1,0,calibrating,0,0,0,0,0,0.0
4.026494289999391,403,137.25,95.6,3.9,-15.5,-1.43,-6.33,-0.85,0.14,0.78,-0.01,-110.5,2.8,63.0,-1.51,-0.07,-0.06,0.0,0.7925276020429824,6.544944613974972,0.0,0.0,2.0,0.45,0.6,1.2,100.0,1.0,0.18,0.23861793221387262,0.2,1.0,-160.0,0,1,0,calibrating,0,0,0,0,0,0.0
4.036080698999285,404,137.26,95.6,3.7,-14.9,-1.1,-5.66,-0.66,0.17,0.84,-0.05,-110.5,2.7,18.0,-1.51,-0.06,0.17,0.0,0.85848704125339,5.8035506373253956,0.0,0.0,2.0,0.45,0.6,1.2,100.0,1.0,0.18,0.16920532314339587,0.2,1.0,-160.0,0,1,0,calibrating,0,0,0,0,0,0.0
4.046292425999127,405,137.27,95.5,3.6,-14.4,-0.8,-4.98,-0.34,0.21,0.88,-0.07,-110.5,1.6,0.0,-1.51,-0.03,0.2,0.0,0.9074139077620532,5.0552942545414705,0.0,0.0,2.0,0.45,0.6,1.2,100.0,1.0,0.18,0.11787288750203795,0.2,1.0,-160.0,0,1,0,calibrating,0,0,0,0,0,0.0
4.056023142999038,406,137.28,95.5,3.6,-13.9,-0.63,-4.31,-0.08,0.22,0.92,-0.07,-110.5,1.9,3.0,-1.51,-0.06,0.06,0.0,0.948525170989152,4.356535320641851,0.0,0.0,2.0,0.45,0.6,1.2,100.0,1.0,0.18,0.07522639178944046,0.2,1.0,-160.0,0,1,0,calibrating,0,0,0,0,0,0.0
4.066477416999987,407,137.29,95.4,3.5,-13.5,-0.62,-3.63,0.05,0.21,0.96,-0.09,-110.5,2.6,1.0,-1.51,-0.05,0.26,0.0,0.9868130522039116,3.6829064609354387,0.0,0.0,2.0,0.45,0.6,1.2,100.0,1.0,0.18,0.036199740363187294,0.2,1.0,-160.0,0,1,0,calibrating,0,0,0,0,0,0.0
4.076019820000511,408,137.3,95.4,3.5,-13.2,-0.67,-2.96,0.17,0.19,1.0,-0.1,-110.4,-0.1,-23.0,-1.51,0.04,-0.04,0.0,1.0227903010881556,3.0396381363576817,0.0,0.0,2.0,0.45,0.6,1.2,100.0,1.0,0.18,0.00021804164936445325,0.2,1.0,-160.0,0,1,0,calibrating,0,0,0,0,0,0.0
4.086166097000387,409,137.31,95.3,3.6,-12.9,-0.62,-2.44,0.37,0.16,1.03,-0.09,-110.5,-0.8,-3.0,-1.51,0.01,0.1,0.0,1.0462313319720453,2.54458248048673,0.0,0.0,2.0,0.45,0.6,1.2,100.0,1.0,0.18,0.022758529449834697,0.2,1.0,-160.0,0,1,0,calibrating,0,0,0,0,0,0.0
4.096081589999812,410,137.32,95.3,3.7,-12.7,-0.56,-2.14,0.6,0.14,1.04,-0.07,-110.5,-1.1,-8.0,-1.51,0.04,0.02,0.0,1.0517128885774862,2.291986038351892,0.0,0.0,2.0,0.45,0.6,1.2,100.0,1.0,0.18,0.027675284334170103,0.2,1.0,-160.0,0,1,0,calibrating,0,0,0,0,0,0.0
4.106341036000231,411,137.33,95.2,3.8,-12.5,-0.56,-2.02,0.74,0.13,1.02,-0.06,-110.5,-2.9,-19.0,-1.51,0.11,-0.06,0.0,1.03,2.2229709849658406,0.0,0.0,2.0,0.45,0.6,1.2,100.0,1.0,0.18,0.005843147841550156,0.2,1.0,-160.0,0,1,0,calibrating,0,0,0,0,0,0.0
4.11579461600013,412,137.34,95.2,3.8,-12.3,-0.66,-2.0,0.75,0.13,1.0,-0.06,-110.5,-8.2,-58.0,-1.51,0.35,0.03,0.0,1.010198000393982,2.235643084215367,0.0,0.0,2.0,0.45,0.6,1.2,100.0,1.0,0.18,0.013679674729178304,0.2,1.0,-160.0,0,1,0,calibrating,0,0,0,0,0,0.0
4.126620486998945,413,137.35,95.1,3.9,-12.1,-0.8,-1.97,0.68,0.13,0.97,-0.07,-110.7,-19.5,-107.0,-1.5,0.71,0.29,0.0,0.981172767661231,2.232330620674276,0.0,0.0,2.0,0.45,0.6,1.2,100.0,1.0,0.18,0.041850809312690807,0.2,1.0,-160.0,0,1,0,calibrating,0,0,0,0,0,0.0
4.135992334000548,414,137.36,95.0,4.0,-11.9,-0.85,-1.94,0.6,0.14,0.96,-0.08,-111.0,-32.8,-114.0,-1.49,1.02,0.43,0.0,0.9734474818910366,2.201385927092294,0.0,0.0,2.0,0.45,0.6,1.2,100.0,1.0,0.18,0.04858457318122755,0.2,1.0,-160.0,0,1,0,calibrating,0,0,0,0,0,0.0
4.146550260000367,415,137.37,94.9,4.1,-11.7,-0.77,-1.88,0.55,0.14,0.96,-0.09,-111.4,-42.1,-85.0,-1.48,1.2,0.05,0.0,0.9743202758846805,2.1047090060148457,0.0,0.0,2.0,0.45,0.6,1.2,100.0,1.0,0.18,0.046757543603831886,0.2,1.0,-160.0,0,1,0,calibrating,0,0,0,0,0,0.0
4.1560114240000985,416,137.38,94.9,4.2,-11.5,-0.65,-1.74,0.52,0.15,0.96,-0.1,-111.9,-47.7,-65.0,-1.47,1.35,0.09,0.0,0.9767804256842988,1.9288597668052492,0.0,0.0,2.0,0.45,0.6,1.2,100.0,1.0,0.18,0.04341144592812929,0.2,1.0,-160.0,0,1,0,calibrating,0,0,0,0,0,0.0
4.166264596999099,417,137.39,94.9,4.3,-11.3,-0.56,-1.56,0.54,0.17,0.98,-0.12,-112.4,-53.8,-69.0,-1.45,1.55,0.01,0.0,1.0018482919085105,1.7432154198491936,0.0,0.0,2.0,0.45,0.6,1.2,100.0,1.0,0.18,0.017976708109839423,0.2,1.0,-160.0,0,1,0,calibrating,0,0,0,0,0,0.0
4.175259143999938,418,137.4,94.8,4.4,-11.2,-0.56,-1.3,0.58,0.18,0.99,-0.14,-112.9,-58.5,-39.0,-1.44,1.6,0.0,0.0,1.0159232254457027,1.5297058540778354,0.0,0.0,2.0,0.45,0.6,1.2,100.0,1.0,0.18,0.003823739081194155,0.2,1.0,-160.0,0,1,0,calibrating,0,0,0,0,0,0.0
4.186228012000356,419,137.41,94.8,4.4,-11.1,-0.69,-0.91,0.64,0.18,0.99,-0.15,-113.5,-60.1,-27.0,-1.42,1.67,-0.01,0.0,1.0173494974687902,1.3091218430688565,0.0,0.0,2.0,0.45,0.6,1.2,100.0,1.0,0.18,0.0023495177169445824,0.2,1.0,-160.0,0,1,0,calibrating,0,0,0,0,0,0.0
4.1960965910002415,420,137.42,94.7,4.5,-11.0,-0.89,-0.58,0.74,0.17,0.98,-0.16,-114.2,-60.4,2.0,-1.41,1.6,0.06,0.0,1.007422453591342,1.2946428078817724,0.0,0.0,2.0,0.45,0.6,1.2,100.0,1.0,0.18,0.012031030362504858,0.2,1.0,-160.0,0,1,0,calibrating,0,0,0,0,0,0.0
4.206620441000268,421,137.43,94.6,4.5,-11.0,-1.04,-0.25,0.83,0.16,0.96,-0.15,-114.7,-57.4,12.0,-1.39,1.56,-0.04,0.0,0.984733466477097,1.3538833036861044,0.0,0.0,2.0,0.45,0.6,1.2,100.0,1.0,0.18,0.03402561712721486,0.2,1.0,-160.0,0,1,0,calibrating,0,0,0,0,0,0.0
4.220098366999082,422,137.44,94.5,4.6,-10.9,-1.07,-0.08,0.91,0.16,0.94,-0.15,-115.3,-56.1,8.0,-1.38,1.54,-0.14,0.0,0.9652460826131334,1.4069115110766561,0.0,0.0,2.0,0.45,0.6,1.2,100.0,1.0,0.18,0.05244274097135493,0.2,1.0,-160.0,0,1,0,calibrating,0,0,0,0,0,0.0
4.228077640000265,423,137.45,94.4,4.7,-10.9,-1.14,0.06,0.96,0.17,0.92,-0.14,-115.9,-54.1,15.0,-1.36,1.47,-0.01,0.0,0.9459915433025815,1.4915763473587265,0.0,0.0,2.0,0.45,0.6,1.2,100.0,1.0,0.18,0.07026333467626877,0.2,1.0,-160.0,0,1,0,calibrating,0,0,0,0,0,0.0
4.2360276079998584,424,137.46,94.3,4.8,-10.9,-1.16,0.19,0.96,0.18,0.9,-0.14,-116.4,-53.4,9.0,-1.35,1.43,0.09,0.0,0.9284395510748128,1.5176626766182266,0.0,0.0,2.0,0.45,0.6,1.2,100.0,1.0,0.18,0.08605902036595658,0.2,1.0,-160.0,0,1,0,calibrating,0,0,0,0,0,0.0
4.246564700999443,425,137.47,94.2,4.9,-10.9,-1.22,0.27,0.87,0.19,0.88,-0.13,-116.9,-49.9,36.0,-1.33,1.28,-0.07,0.0,0.9096153033013462,1.5225636275702898,0.0,0.0,2.0,0.45,0.6,1.2,100.0,1.0,0.18,0.10278560277663484,0.2,1.0,-160.0,0,1,0,calibrating,0,0,0,0,0,0.0
4.256003935999615,426,137.48,94.0,5.0,-11.0,-1.37,0.37,0.71,0.2,0.84,-0.14,-117.4,-44.7,50.0,-1.32,1.13,-0.06,0.0,0.8747571091451615,1.5867892109539943,0.0,0.0,2.0,0.45,0.6,1.2,100.0,1.0,0.18,0.13489092099416322,0.2,1.0,-160.0,0,1,0,calibrating,0,0,0,0,0,0.0
4.2663047930000175,427,137.49,93.9,5.1,-11.0,-1.53,0.48,0.44,0.21,0.8,-0.15,-117.8,-39.9,49.0,-1.31,1.01,-0.15,0.0,0.8405950273467004,1.662798845320744,0.0,0.0,2.0,0.45,0.6,1.2,100.0,1.0,0.18,0.16567194273677166,0.2,1.0,-160.0,0,1,0,calibrating,0,0,0,0,0,0.0
4.276445399000295,428,137.5,93.7,5.1,-11.1,-1.58,0.58,0.11,0.22,0.76,-0.15,-118.1,-34.6,51.0,-1.3,0.87,0.1,0.0,0.8052949770115296,1.6866831356244718,0.0,0.0,2.0,0.45,0.6,1.2,100.0,1.0,0.18,0.19695255321050364,0.2,1.0,-160.0,0,1,0,calibrating,0,0,0,0,0,0.0
4.286622636000175,429,137.51,93.5,5.1,-11.1,-1.64,0.74,-0.3,0.22,0.72,-0.16,-118.5,-31.2,25.0,-1.29,0.85,-0.11,0.0,0.7696752561957543,1.8240614024752564,0.0,0.0,2.0,0.45,0.6,1.2,100.0,1.0,0.18,0.22792082854575346,0.2,1.0,-160.0,0,1,0,calibrating,0,0,0,0,0,0.0
4.296070622000116,430,137.52,93.4,5.0,-11.2,-1.48,0.89,-0.6,0.23,0.73,-0.19,-118.8,-29.2,26.0,-1.28,0.77,-0.13,0.0,0.7886063656856949,1.8282505298782221,0.0,0.0,2.0,0.45,0.6,1.2,100.0,1.0,0.18,0.2048099246746966,0.2,1.0,-160.0,0,1,0,calibrating,0,0,0,0,0,0.0
4.306226929000331,431,137.53,93.2,5.0,-11.3,-1.27,1.23,-0.75,0.22,0.75,-0.18,-119.0,-26.7,31.0,-1.28,0.66,-0.03,0.0,0.8020598481410225,1.9204947279281972,0.0,0.0,2.0,0.45,0.6,1.2,100.0,1.0,0.18,0.18752931337498158,0.2,1.0,-160.0,0,1,0,calibrating,0,0,0,0,0,0.0
4.31601401899934,432,137.54,93.1,4.9,-11.5,-0.85,1.45,-0.7,0.2,0.81,-0.18,-119.3,-21.6,36.0,-1.27,0.56,0.02,0.0,0.8535221145348257,1.8207141456033125,0.0,0.0,2.0,0.45,0.6,1.2,100.0,1.0,0.18,0.1333457060415547,0.2,1.0,-160.0,0,1,0,calibrating,0,0,0,0,0,0.0
4.326535324998986,433,137.55,93.0,4.9,-11.6,-0.5,1.62,-0.58,0.17,0.86,-0.17,-119.5,-18.7,33.0,-1.27,0.47,0.07,0.0,0.892972563968233,1.7918705310373293,0.0,0.0,2.0,0.45,0.6,1.2,100.0,1.0,0.18,0.09201735147598455,0.2,1.0,-160.0,0,1,0,calibrating,0,0,0,0,0,0.0
4.336096462000569,434,137.56,93.0,4.8,-11.8,-0.38,1.73,-0.51,0.14,0.9,-0.16,-119.6,-13.3,47.0,-1.26,0.31,0.09,0.0,0.9247702417357513,1.8432037326351094,0.0,0.0,2.0,0.45,0.6,1.2,100.0,1.0,0.18,0.05901528023429681,0.2,1.0,-160.0,0,1,0,calibrating,0,0,0,0,0,0.0
4.346347540000352,435,137.57,92.9,4.8,-12.0,-0.49,1.8,-0.54,0.11,0.9,-0.15,-119.7,-14.0,-11.0,-1.26,0.45,-0.27,0.0,0.9190212184710427,1.942086506827129,0.0,0.0,2.0,0.45,0.6,1.2,100.0,1.0,0.18,0.06346901742902544,0.2,1.0,-160.0,0,1,0,calibrating,0,0,0,0,0,0.0
4.356024253998839,436,137.58,92.9,4.7,-12.2,-0.51,1.84,-0.63,0.09,0.87,-0.15,-119.9,-19.9,-44.0,-1.25,0.61,0.02,0.0,0.8874119674649424,2.0106217943710845,0.0,0.0,2.0,0.45,0.6,1.2,100.0,1.0,0.18,0.09317670306642312,0.2,1.0,-160.0,0,1,0,calibrating,0,0,0,0,0,0.0
4.366690179000216,437,137.59,92.9,4.7,-12.3,-0.32,1.78,-0.7,0.08,0.85,-0.13,-120.2,-25.9,-57.0,-1.25,0.79,0.07,0.0,0.8635971282953643,1.939278216244384,0.0,0.0,2.0,0.45,0.6,1.2,100.0,1.0,0.18,0.11465171139128127,0.2,1.0,-160.0,0,1,0,calibrating,0,0,0,0,0,0.0
4.376024384999255,438,137.6,92.9,4.6,-12.5,0.03,1.64,-0.71,0.08,0.86,-0.1,-120.5,-33.7,-75.0,-1.24,1.04,0.17,0.0,0.8694826047713663,1.7873443988218944,0.0,0.0,2.0,0.45,0.6,1.2,100.0,1.0,0.18,0.10659091021697364,0.2,1.0,-160.0,0,1,0,calibrating,0,0,0,0,0,0.0
4.386451378999482,439,137.61,92.9,4.6,-12.7,0.35,1.44,-0.61,0.07,0.91,-0.07,-120.9,-44.8,-112.0,-1.22,1.39,0.17,0.0,0.9153687781435415,1.6025604512778917,0.0,0.0,2.0,0.45,0.6,1.2,100.0,1.0,0.18,0.05949064210790256,0.2,1.0,-160.0,0,1,0,calibrating,0,0,0,0,0,0.0
4.395993624999392,440,137.62,93.0,4.5,-12.8,0.57,1.15,-0.5,0.05,0.97,-0.05,-121.4,-60.1,-143.0,-1.21,1.83,0.03,0.0,0.9725739046468396,1.3774614332169157,0.0,0.0,2.0,0.45,0.6,1.2,100.0,1.0,0.18,0.0022398052925122203,0.2,1.0,-160.0,0,1,0,calibrating,0,0,0,0,0,0.0
4.406714486000055,441,137.63,93.0,4.4,-12.9,0.56,0.76,-0.4,0.03,1.02,-0.04,-122.1,-75.0,-147.0,-1.19,2.23,0.02,0.0,1.0212247548899311,1.0252804494381038,0.0,0.0,2.0,0.45,0.6,1.2,100.0,1.0,0.18,0.04548282405156767,0.2,1.0,-160.0,0,1,0,calibrating,0,0,0,0,0,0.0
4.416019170999789,442,137.64,93.0,4.4,-13.0,0.37,0.28,-0.33,0.02,1.04,-0.06,-123.0,-91.5,-163.0,-1.16,2.7,0.01,0.0,1.0419213022104885,0.5693856338194704,0.0,0.0,2.0,0.45,0.6,1.2,100.0,1.0,0.18,0.0648557839446825,0.2,1.0,-160.0,0,1,0,calibrating,0,0,0,0,0,0.0
4.426485531999788,443,137.65,93.1,4.3,-13.0,0.22,-0.2,-0.3,0.02,1.03,-0.12,-124.1,-110.2,-188.0,-1.13,3.25,0.15,0.0,1.0371595827065379,0.4223742416388575,0.0,0.0,2.0,0.45,0.6,1.2,100.0,1.0,0.18,0.05889218315191724,0.2,1.0,-160.0,0,1,0,calibrating,0,0,0,0,0,0.0
4.4360284239992325,444,137.66,93.2,4.3,-12.9,0.32,-0.66,-0.17,0.04,1.05,-0.18,-125.3,-129.1,-176.0,-1.09,3.7,0.03,0.0,1.0660675400742676,0.7529276193632427,0.0,0.0,2.0,0.45,0.6,1.2,100.0,1.0,0.18,0.08604413770925412,0.2,1.0,-160.0,0,1,0,calibrating,0,0,0,0,0,0.0
4.446543145999385,445,137.67,93.2,4.3,-12.8,0.52,-0.91,0.02,0.07,1.04,-0.23,-126.7,-145.3,-175.0,-1.05,4.18,-0.13,0.0,1.0674268124794317,1.0482843125793688,0.0,0.0,2.0,0.45,0.6,1.2,100.0,1.0,0.18,0.08565534191213009,0.2,1.0,-160.0,0,1,0,calibrating,0,0,0,0,0,0.0
4.456080429999929,446,137.68,93.3,4.3,-12.7,0.85,-0.97,0.23,0.12,1.06,-0.26,-128.3,-163.8,-177.0,-1.01,4.66,0.33,0.0,1.0979981785048645,1.3100763336538828,0.0,0.0,2.0,0.45,0.6,1.2,100.0,1.0,0.18,0.1139021737788114,0.2,1.0,-160.0,0,1,0,calibrating,0,0,0,0,0,0.0
4.466537139000138,447,137.69,93.4,4.3,-12.6,1.19,-0.82,0.61,0.17,1.13,-0.27,-130.0,-182.3,-189.0,-0.96,5.2,-0.05,0.0,1.1741805653305626,1.5686299754881645,0.0,0.0,2.0,0.45,0.6,1.2,100.0,1.0,0.18,0.18628286939241934,0.2,1.0,-160.0,0,1,0,calibrating,0,0,0,0,0,0.0
4.476042423999388,448,137.7,93.5,4.4,-12.6,1.42,-0.54,1.16,0.17,1.17,-0.24,-132.0,-203.6,-212.0,-0.9,5.82,-0.03,0.0,1.2063996021219503,1.9114392483152585,0.0,0.0,2.0,0.45,0.6,1.2,100.0,1.0,0.18,0.21413186806013096,0.2,1.0,-160.0,0,1,0,calibrating,0,0,0,0,0,0.0
4.486625023999295,449,137.71,93.7,4.5,-12.5,1.51,-0.22,1.66,0.17,1.15,-0.23,-134.2,-227.2,-231.0,-0.84,6.47,-0.07,0.0,1.185031645147082,2.254794890893626,0.0,0.0,2.0,0.45,0.6,1.2,100.0,1.0,0.18,0.18890863286355752,0.2,1.0,-160.0,0,1,0,calibrating,0,0,0,0,0,0.0
4.496048625000185,450,137.72,93.9,4.7,-12.5,1.52,0.04,1.89,0.18,1.16,-0.2,-136.6,-249.9,-222.0,-0.77,7.07,0.15,0.0,1.1907980517283356,2.425716389028198,0.0,0.0,2.0,0.45,0.6,1.2,100.0,1.0,0.18,0.19078153865591485,0.2,1.0,-160.0,0,1,0,calibrating,0,0,0,0,0,0.0
4.506503074999273,451,137.73,94.0,4.9,-12.5,1.44,0.38,2.01,0.2,1.21,-0.18,-139.3,-271.3,-218.0,-0.7,7.65,0.06,0.0,1.2395563722558163,2.501619475459847,0.0,0.0,2.0,0.45,0.6,1.2,100.0,1.0,0.18,0.23474906199972767,0.2,1.0,-160.0,0,1,0,calibrating,0,0,0,0,0,0.0
4.516028849999202,452,137.74,94.2,5.2,-12.5,1.45,0.68,2.28,0.2,1.35,-0.09,-142.2,-294.0,-228.0,-0.61,8.28,0.08,0.0,1.3676987972503303,2.786269907959385,0.0,0.0,2.0,0.45,0.6,1.2,100.0,1.0,0.18,0.3556336572543568,0.2,1.0,-160.0,0,1,0,calibrating,0,0,0,0,0,0.0
4.526337679999415,453,137.75,94.3,5.5,-12.6,1.27,0.93,2.87,0.17,1.47,0.0,-145.3,-315.0,-195.0,-0.53,8.75,0.05,0.0,1.4797972834141844,3.2733316361163287,0.0,0.0,2.0,0.45,0.6,1.2,100.0,1.0,0.18,0.4583775005498467,0.2,1.0,-160.0,0,1,0,calibrating,0,0,0,0,0,0.0
4.536037761999978,454,137.76,94.3,5.8,-12.7,0.99,1.04,3.38,0.12,1.46,0.01,-148.5,-327.0,-134.0,-0.44,9.01,0.06,0.0,1.4649573372627613,3.6723425766123725,0.0,0.0,2.0,0.45,0.6,1.2,100.0,1.0,0.18,0.43466680331045526,0.2,1.0,-160.0,0,1,0,calibrating,0,0,0,0,0,0.0
4.546458206999887,455,137.77,94.4,6.1,-12.8,0.73,1.13,3.43,0.1,1.38,-0.01,-151.8,-338.7,-129.0,-0.35,9.36,0.07,0.0,1.3836545811726277,3.6843859732661017,0.0,0.0,2.0,0.45,0.6,1.2,100.0,1.0,0.18,0.3462967662759153,0.2,1.0,-160.0,0,1,0,calibrating,0,0,0,0,0,0.0
4.5559161199998925,456,137.78,94.4,6.4,-12.9,0.2,1.04,2.99,0.12,1.26,0.0,-155.3,-348.6,-100.0,-0.25,9.57,-0.2,0.0,1.2657013865837392,3.1720182849409935,0.0,0.0,2.0,0.45,0.6,1.2,100.0,1.0,0.18,0.22377670025328622,0.2,1.0,-160.0,0,1,0,calibrating,0,0,0,0,0,0.0
4.566547280999657,457,137.79,94.3,6.7,-13.0,-0.17,1.1,2.34,0.19,1.13,-0.01,-158.9,-358.2,-105.0,-0.15,9.88,0.07,0.0,1.1459057552870566,2.5912352266824406,0.0,0.0,2.0,0.45,0.6,1.2,100.0,1.0,0.18,0.10190144757747155,0.2,1.0,-160.0,0,1,0,calibrating,0,0,0,0,0,0.0
4.57609479599887,458,137.8,94.3,6.9,-13.1,0.14,1.31,1.73,0.28,1.02,-0.02,-162.5,-367.3,-72.0,-0.05,10.0,0.06,0.0,1.0579224924350554,2.1745344329304146,0.0,0.0,2.0,0.45,0.6,1.2,100.0,1.0,0.18,0.013639821030960952,0.2,1.0,-160.0,0,1,0,calibrating,0,0,0,0,0,0.0
4.586425105999297,459,137.81,94.3,7.1,-13.2,0.78,1.75,1.13,0.34,0.98,-0.01,-166.2,-366.1,-14.0,0.04,9.96,-0.07,0.0,1.0373523991392701,2.2243650779492112,0.0,0.0,2.0,0.45,0.6,1.2,100.0,1.0,0.18,0.0067916668195278085,0.2,1.0,-160.0,0,1,0,calibrating,0,0,0,0,0,0.0
