host_time_s,seq,device_time_s,roll,pitch,yaw,gyro_x,gyro_y,gyro_z,accel_x,accel_y,accel_z,belt_length,belt_velocity,belt_acceleration,motor_pos,motor_vel,motor_iq_meas,motor_iq_set,acc_mag,gyro_mag,acc_residual,threshold,heel_strike,hs_count,torque_cmd_nm
2.069290572000682,2,802.54,97.5,5.9,-41.2,-0.04,1.65,-1.05,0.23,0.81,-0.39,-175.8,-62.5,132.0,0.26,1.42,0.03,0.0,0.9279547402756236,1.95616972678753,0.0,0.25,0,0,0.0
2.076438860000053,3,802.55,97.5,5.8,-41.4,0.42,2.32,-1.05,0.22,0.86,-0.34,-176.4,-50.6,75.0,0.28,1.33,0.07,0.0,0.9505787710652915,2.5809494377069844,0.02217155017387451,0.25,0,0,0.0
2.0884150140009297,4,802.56,97.6,5.7,-41.6,1.11,2.77,-1.0,0.2,0.89,-0.29,-176.9,-47.8,56.0,0.29,1.21,0.01,0.0,0.957183368012629,3.147220996371243,0.02820062417878777,0.25,0,0,0.0
2.0963800830013497,5,802.57,97.7,5.7,-42.0,1.58,2.96,-0.88,0.16,0.97,-0.24,-177.4,-40.2,78.0,0.3,0.96,0.18,0.0,1.0119782606360672,3.4687749999099102,0.08133560646618143,0.25,0,0,0.0
2.108412571000372,6,802.58,97.8,5.6,-42.3,1.79,2.97,-0.68,0.12,1.0,-0.26,-177.7,-32.3,71.0,0.31,0.8,0.01,0.0,1.0401922899156675,3.5337515475765984,0.10735864303086606,0.25,0,0,0.0
2.116342004001126,7,802.59,98.0,5.6,-42.5,1.75,2.86,-0.49,0.08,1.0,-0.23,-178.0,-23.4,89.0,0.31,0.51,-0.03,0.0,1.0292230079045066,3.388539508401813,0.09446157379931108,0.25,0,0,0.0
2.128218473000743,8,802.6,98.2,5.6,-42.8,1.46,2.5,-0.41,0.05,0.98,-0.18,-178.2,-14.8,82.0,0.32,0.3,-0.04,0.0,0.9976472322419382,2.9239870040750864,0.06162808217400784,0.25,0,0,0.0
2.136449225999968,9,802.61,98.3,5.6,-43.1,0.96,2.13,-0.52,0.02,0.94,-0.14,-178.2,-4.0,112.0,0.32,-0.05,-0.04,0.0,0.9505787710652915,2.3935120638927225,0.01426842857741395,0.25,0,0,0.0
2.1481748540008994,10,802.62,98.4,5.5,-43.3,0.52,1.75,-0.65,0.0,0.95,-0.13,-178.2,3.4,50.0,0.32,-0.07,-0.04,0.0,0.9588534820294495,1.9378854455307724,0.022092276750740547,0.25,0,0,0.0
2.156255740001143,11,802.63,98.4,5.4,-43.4,0.66,1.52,-0.64,0.0,0.98,-0.08,-178.2,1.7,9.0,0.32,-0.03,-0.07,0.0,0.9832598842625483,1.776400855662933,0.04556870540416247,0.25,0,0,0.0
2.168135035000887,12,802.64,98.5,5.4,-43.6,1.14,1.3,-0.42,0.0,1.05,0.0,-178.2,2.3,15.0,0.32,-0.09,-0.06,0.0,1.05,1.7793257149830664,0.11006264471878191,0.25,0,0,0.0
2.1765100120010175,13,802.65,98.6,5.4,-43.7,1.64,1.04,-0.01,-0.02,1.11,0.05,-178.1,6.7,47.0,0.31,-0.28,-0.02,0.0,1.1113055385446435,1.9419835220722135,0.16794081959815688,0.25,0,0,0.0
2.1879961980012013,14,802.66,98.8,5.4,-43.8,1.9,0.89,0.46,-0.03,1.16,0.05,-178.0,15.9,80.0,0.31,-0.55,-0.22,0.0,1.1614645926587688,2.1479525134415796,0.21373787623803653,0.25,0,0,0.0
2.1961683179997635,15,802.67,98.9,5.5,-43.9,1.65,1.01,0.92,-0.04,1.19,0.04,-177.7,30.0,135.0,0.3,-1.02,-0.13,0.0,1.1913437790998869,2.1421951358361357,0.23874472142557157,0.25,0,0,0.0
2.2082096690010076,16,802.68,99.1,5.6,-44.0,1.15,1.12,1.39,-0.04,1.17,0.05,-177.3,46.5,169.0,0.29,-1.54,-0.17,0.0,1.171750826754562,2.123440604302367,0.2147687336986418,0.25,0,0,0.0
2.2163606909998634,17,802.69,99.2,5.8,-44.0,0.76,1.11,1.8,0.0,1.12,0.08,-176.7,68.1,200.0,0.27,-2.12,-0.08,0.0,1.1228535078094561,2.2471537553091467,0.1625539864584652,0.25,0,0,0.0
2.228245076999883,18,802.7,99.2,6.0,-44.1,0.31,0.9,2.22,0.05,1.08,0.1,-175.9,89.7,213.0,0.24,-2.72,-0.02,0.0,1.0857716150277645,2.41547096856907,0.12296265180323807,0.25,0,0,0.0
2.2363703610008088,19,802.71,99.2,6.3,-44.1,0.22,0.61,2.47,0.12,1.01,0.09,-174.8,112.4,229.0,0.21,-3.37,-0.14,0.0,1.021077861869505,2.55370319340365,0.05710352067207902,0.25,0,0,0.0
2.248189101999742,20,802.72,99.3,6.5,-44.1,0.48,0.27,2.63,0.18,0.96,0.06,-173.5,137.6,238.0,0.17,-4.04,-0.05,0.0,0.9785703858180055,2.6870429843975328,0.014304123728167806,0.25,0,0,0.0
2.2562709970006836,21,802.73,99.4,6.8,-44.1,1.39,0.05,2.64,0.2,0.95,0.0,-172.0,160.4,232.0,0.13,-4.65,-0.1,0.0,0.9708243919473799,2.9839906166072305,0.006426967260391381,0.25,0,0,0.0
2.2682236569999077,22,802.74,99.6,7.0,-44.1,2.78,-0.19,2.52,0.2,0.99,-0.03,-170.2,183.5,233.0,0.08,-5.28,-0.17,0.0,1.0104454463255301,3.7569801702963512,0.04512706120577081,0.25,0,0,0.0
2.2763327339998796,23,802.75,99.9,7.3,-44.0,3.99,-0.37,2.22,0.2,1.04,-0.1,-168.2,205.6,215.0,0.02,-5.83,-0.18,0.0,1.063766891757776,4.580982427383891,0.09647953650525642,0.25,0,0,0.0
2.288145323000208,24,802.76,100.3,7.5,-43.9,4.56,-0.55,1.68,0.18,1.12,-0.13,-166.1,226.5,216.0,-0.03,-6.4,-0.13,0.0,1.1417968295629481,4.890654352947057,0.1710192848242199,0.25,0,0,0.0
2.2963409470012266,25,802.77,100.8,7.6,-43.8,4.16,-0.68,0.92,0.17,1.16,-0.22,-163.6,251.7,249.0,-0.1,-7.17,-0.08,0.0,1.1928537211242625,4.314440867598025,0.21763465285782357,0.25,0,0,0.0
2.308207781001329,26,802.78,101.1,7.6,-43.8,2.45,-0.66,0.1,0.16,1.21,-0.3,-160.9,276.1,234.0,-0.18,-7.78,-0.06,0.0,1.2568611697399201,2.5393109301540844,0.27600925944401156,0.25,1,1,2.5
2.3163336340003298,27,802.79,101.3,7.6,-43.7,0.57,-0.52,-0.46,0.15,1.17,-0.32,-158.0,296.7,214.0,-0.26,-8.33,-0.27,0.0,1.2222111110606055,0.8982761268117949,0.23653201674940305,0.25,0,1,2.5
2.3280993980006315,28,802.8,101.3,7.5,-43.7,-0.6,-0.32,-0.87,0.14,1.07,-0.27,-154.9,333.0,591.0,-0.35,-10.62,2.07,2.91,1.112384825498802,1.1042191811411357,0.12417161656384756,0.25,0,1,2.5
2.3364468700001453,29,802.81,101.3,7.4,-43.7,-1.16,-0.17,-0.99,0.12,1.03,-0.23,-150.8,477.7,1253.0,-0.48,-15.01,2.37,2.91,1.0621675950620975,1.5344705927452633,0.0724752984046001,0.25,0,1,2.5
2.348121926001113,30,802.82,101.1,7.3,-43.7,-1.36,0.04,-0.94,0.13,0.98,-0.19,-144.8,659.0,1638.0,-0.66,-20.11,2.21,2.91,1.006677704133751,1.6537230723431298,0.016645699326728436,0.25,0,1,2.5
2.3563777710005525,31,802.83,101.1,7.2,-43.7,0.02,0.1,-1.04,0.13,0.84,-0.13,-136.6,841.2,1703.0,-0.9,-24.75,2.56,2.91,0.8598837130682264,1.0449880382090506,0.12754532590402012,0.25,0,1,2.5
2.3682106230007776,32,802.84,101.1,7.1,-43.7,1.1,0.14,-1.19,0.12,0.88,-0.14,-127.3,982.2,1384.0,-1.2,-28.06,1.18,2.91,0.8991106717195608,1.6265607889039992,0.08655199990763196,0.25,0,1,2.5
2.376378998000291,33,802.85,101.2,7.0,-43.8,1.16,0.17,-1.23,0.12,0.9,-0.13,-117.2,1035.8,528.0,-1.48,-27.88,0.4,2.91,0.9172240729505523,1.6992351220475639,0.06706982670310768,0.25,0,1,2.5
2.3881690710004477,34,802.86,101.3,6.9,-43.8,0.79,0.15,-1.37,0.11,0.89,-0.15,-106.6,1016.8,80.0,-1.75,-27.5,0.91,2.91,0.9092304438369846,1.5885528005074305,0.07356218670034187,0.25,0,1,2.5
2.396353285001169,35,802.87,101.3,6.7,-43.9,-0.66,0.22,-1.39,0.08,0.96,-0.17,-96.7,1014.9,15.0,-2.0,-27.51,1.19,2.91,0.9782126558167197,1.5543809056984712,0.0044883752261946075,0.25,0,1,2.5
2.4080857320004725,36,802.88,101.0,6.6,-43.9,-3.07,0.18,-1.09,0.06,0.99,-0.14,-86.7,1016.2,20.0,-2.28,-27.6,1.04,2.91,1.0016486409914407,3.2627289191718027,0.01856865774955585,0.25,0,1,2.5
2.4164545880012156,37,802.89,100.6,6.5,-44.0,-4.09,0.0,-0.87,0.06,0.92,-0.08,-76.4,993.6,-261.0,-2.57,-26.4,1.99,2.91,0.9254188241007419,4.181506905411014,0.056507935958320044,0.25,0,1,2.5
2.4282210870005656,38,802.9,100.2,6.4,-44.0,-3.97,-0.12,-0.85,0.01,0.88,-0.09,-66.5,956.0,-315.0,-2.83,-25.59,2.97,2.91,0.8846468221838588,4.061748392010514,0.09533433911769906,0.25,0,1,2.5
2.436336992001088,39,802.91,99.8,6.3,-44.0,-4.16,-0.26,-0.86,-0.07,0.95,-0.04,-57.4,928.8,-331.0,-3.06,-24.73,2.64,2.91,0.9534149149242422,4.2559135329562325,0.026034921449769377,0.25,0,1,2.5
2.4481343870011187,40,802.92,99.3,6.2,-43.9,-4.38,-0.8,-0.77,-0.1,1.03,0.0,-48.6,883.8,-532.0,-3.3,-22.96,3.28,2.91,1.034842983258813,4.51855065258762,0.05428528394710541,0.25,0,1,2.5
2.456329201000699,41,802.93,98.9,6.1,-43.8,-5.17,-1.19,-0.7,-0.11,1.1,-0.07,-40.2,780.5,-945.0,-3.52,-19.7,3.56,2.91,1.1077003204838392,5.351168096780365,0.12459976874868883,0.25,0,1,2.5
2.4682703540001967,42,802.94,98.3,6.0,-43.7,-6.42,-1.37,-0.58,-0.06,1.15,-0.09,-33.4,671.2,-1058.0,-3.68,-16.75,3.75,2.91,1.155075755091414,6.5901213949365145,0.16853569928913836,0.25,0,1,2.5
2.4763319680005225,43,802.95,97.6,5.9,-43.6,-7.91,-1.44,-0.61,0.06,1.15,-0.07,-27.5,528.1,-1344.0,-3.84,-12.53,3.92,2.91,1.1536897329871665,8.0631135425467,0.1638066836411931,0.25,0,1,2.5
2.4882465110003977,44,802.96,96.7,5.9,-43.4,-9.04,-1.37,-0.52,0.21,1.02,-0.07,-23.0,385.9,-1434.0,-3.93,-8.59,3.61,2.91,1.0437432634513144,9.157996505786622,0.05278300982323425,0.25,0,1,0.0
2.4962653430011414,45,802.97,95.9,5.8,-43.4,-7.9,-0.73,-0.28,0.3,0.8,-0.05,-20.3,241.6,-1408.0,-3.99,-5.02,3.42,2.91,0.8558621384311845,7.938595593680283,0.1323961528929577,0.25,0,1,0.0
2.508070771000348,46,802.98,95.2,5.8,-43.3,-5.27,-0.07,0.32,0.32,0.69,-0.03,-18.9,88.6,-1720.0,-4.01,0.41,0.94,0.0,0.7611832893594025,5.280170451794146,0.22253350192544497,0.25,0,1,0.0
2.5163696609997714,47,802.99,94.8,5.9,-43.3,-2.59,0.47,0.8,0.33,0.65,0.0,-19.3,-95.4,-1561.0,-3.97,4.11,0.27,0.0,0.7289718787443039,2.75118156434649,0.24965001428973266,0.25,0,1,0.0
2.5288740060004784,48,803.0,94.8,5.9,-43.3,-2.59,0.47,0.8,0.33,0.65,0.0,-20.2,-156.2,-1491.0,-3.92,6.44,0.3,0.0,0.7289718787443039,2.75118156434649,0.24465701400393802,0.25,0,1,0.0
2.5364759800013417,49,803.01,94.9,6.1,-43.6,2.81,1.8,1.28,0.19,0.73,-0.01,-23.6,-277.6,-1096.0,-3.84,8.34,0.25,0.0,0.7543871685016919,3.574143253984093,0.2148568897616191,0.25,0,1,0.0
2.5484912540014193,50,803.02,95.3,6.3,-43.7,4.65,1.99,1.34,0.12,0.82,0.0,-26.8,-337.2,-724.0,-3.74,9.75,0.08,0.0,0.8287339742040264,5.232418179006721,0.13769988237809883,0.25,0,1,0.0
2.5564220840005873,51,803.03,95.7,6.4,-43.9,6.12,1.74,1.19,0.09,0.95,-0.01,-30.5,-383.0,-545.0,-3.64,10.96,0.08,0.0,0.9543060305792895,6.472874168404635,0.011885269482779015,0.25,0,1,0.0
2.5685144220005895,52,803.04,96.4,6.5,-44.1,6.64,1.55,0.94,0.07,1.04,-0.11,-34.6,-422.6,-398.0,-3.52,11.8,0.1,0.0,1.0481412118603104,6.8830007990701265,0.08031091356227704,0.25,0,1,0.0
2.5762681280011748,53,803.05,97.0,6.6,-44.2,5.89,1.17,0.69,0.03,1.08,-0.18,-39.0,-441.5,-242.0,-3.4,12.2,0.04,0.0,1.0953081758117211,6.044592624817656,0.12492831996341403,0.25,0,1,0.0
2.588549285001136,54,803.06,97.5,6.7,-44.3,4.51,0.68,0.31,0.0,1.07,-0.23,-43.5,-457.6,-175.0,-3.28,12.58,-0.01,0.0,1.094440496326776,4.571498660176988,0.12157942766889951,0.25,0,1,0.0
2.5964658120010427,55,803.07,97.9,6.7,-44.3,3.06,0.25,-0.09,-0.02,1.06,-0.26,-48.2,-469.9,-152.0,-3.15,12.96,-0.12,0.0,1.0916043239196151,3.071514284518306,0.11636839015650391,0.25,0,1,0.0
2.608841573000973,56,803.08,98.1,6.6,-44.3,1.96,-0.14,-0.49,-0.06,1.07,-0.26,-53.0,-479.6,-60.0,-3.02,12.95,-0.09,0.0,1.102769241500687,2.0251666598085207,0.12498264158282413,0.25,0,1,0.0
2.6162833150010556,57,803.09,98.3,6.6,-44.3,1.04,-0.49,-0.79,-0.07,1.08,-0.25,-57.7,-471.7,9.0,-2.89,12.84,-0.04,0.0,1.110765501804949,1.3949193525075205,0.13031932384934442,0.25,0,1,0.0
2.628827649001323,58,803.1,98.3,6.5,-44.3,0.23,-0.74,-0.87,-0.08,1.11,-0.22,-62.4,-471.9,30.0,-2.76,12.71,0.0,0.0,1.1344161493913951,1.165075104875218,0.15089057200707479,0.25,0,1,0.0
2.6402284940013487,59,803.11,98.3,6.4,-44.2,-0.6,-0.94,-0.81,-0.05,1.1,-0.21,-67.1,-463.6,42.0,-2.64,12.58,-0.12,0.0,1.120981712607302,1.3782960494755834,0.13470701251852213,0.25,0,1,0.0
2.6482928240002366,60,803.12,98.2,6.3,-44.1,-1.34,-1.04,-0.64,-0.02,1.06,-0.21,-71.7,-460.6,69.0,-2.51,12.34,-0.03,0.0,1.0807867504739315,1.8129533915685754,0.09262180937744846,0.25,0,1,0.0
2.660407311999734,61,803.13,98.1,6.2,-44.0,-1.76,-1.14,-0.45,0.01,1.01,-0.19,-76.2,-444.4,130.0,-2.39,11.91,-0.02,0.0,1.0277645644796283,2.144691119951775,0.03880763091548234,0.25,0,1,0.0
2.6682388370008994,62,803.14,97.9,6.1,-43.9,-1.83,-1.17,-0.27,0.04,0.95,-0.19,-80.6,-430.2,135.0,-2.27,11.53,-0.04,0.0,0.969639108122192,2.1887667760636353,0.018931468933114814,0.25,0,1,0.0
2.676353349001147,63,803.15,97.8,6.1,-43.8,-1.57,-1.21,-0.13,0.07,0.9,-0.19,-84.8,-418.8,100.0,-2.16,11.32,-0.11,0.0,0.922496612459905,1.9864289566959097,0.06475248530349376,0.25,0,1,0.0
2.6885377320013504,64,803.16,97.7,6.1,-43.6,-1.22,-1.21,-0.02,0.1,0.87,-0.19,-88.9,-412.5,92.0,-2.05,11.06,0.03,0.0,0.8961026726887941,1.7184004189943622,0.08932349657311256,0.25,0,1,0.0
2.6964481020004314,65,803.17,97.7,6.1,-43.5,-0.78,-1.13,0.04,0.11,0.85,-0.2,-92.9,-396.3,141.0,-1.94,10.6,0.03,0.0,0.880113629027525,1.3736447866897759,0.10320628942969401,0.25,0,1,0.0
2.708707953001067,66,803.18,97.7,6.1,-43.4,-0.33,-1.07,0.02,0.11,0.85,-0.2,-96.8,-389.3,61.0,-1.84,10.58,0.07,0.0,0.880113629027525,1.1199107107265294,0.10114216364110018,0.25,0,1,0.0
2.7164249310008017,67,803.19,97.8,6.1,-43.3,0.08,-0.97,-0.04,0.11,0.86,-0.21,-100.7,-383.9,79.0,-1.73,10.31,-0.09,0.0,0.8920762299265685,0.9741149829460586,0.08739597148721545,0.25,0,1,0.0
2.7288027650010918,68,803.2,97.9,6.0,-43.2,0.44,-0.86,-0.17,0.1,0.88,-0.23,-104.5,-377.3,42.0,-1.63,10.27,0.05,0.0,0.9150409826887537,0.9808669634563089,0.06314259435052971,0.25,0,1,0.0
2.736493173000781,69,803.21,98.0,6.0,-43.1,0.42,-0.74,-0.25,0.1,0.91,-0.25,-108.3,-378.0,29.0,-1.53,10.2,0.0,0.0,0.9489994731294639,0.8868483523128404,0.028600421831623146,0.25,0,1,0.0
2.7484835570012365,70,803.22,98.0,6.0,-43.1,0.34,-0.52,-0.27,0.1,0.92,-0.25,-112.0,-371.0,49.0,-1.43,10.04,-0.16,0.0,0.9585927185202274,0.677421582177598,0.018627032912042374,0.25,0,1,0.0
2.7564368120001745,71,803.23,98.1,5.9,-43.0,0.25,-0.33,-0.23,0.1,0.92,-0.26,-115.7,-369.2,25.0,-1.33,10.0,-0.02,0.0,0.9612491872558333,0.4736032094485847,0.01565115289290775,0.25,0,1,0.0
2.768442409000272,72,803.24,98.1,5.9,-43.0,0.17,-0.19,-0.18,0.1,0.89,-0.26,-119.4,-364.2,49.0,-1.23,9.83,-0.1,0.0,0.9325770745627409,0.3120897306865447,0.04343680027428021,0.25,0,1,0.0
2.776453193000634,73,803.25,98.1,5.9,-43.0,0.15,-0.08,-0.21,0.11,0.85,-0.24,-123.0,-361.5,26.0,-1.13,9.81,-0.15,0.0,0.8900561780022651,0.2701851217221259,0.08423854289806088,0.25,0,1,0.0
2.788574461999815,74,803.26,98.2,5.9,-43.0,0.51,-0.04,-0.35,0.1,0.82,-0.21,-126.6,-352.9,109.0,-1.03,9.35,0.07,0.0,0.8523496934944014,0.6198386886924694,0.11950612685780615,0.25,0,1,0.0
2.7964262860004965,75,803.27,98.3,5.8,-43.0,0.96,-0.19,-0.55,0.11,0.83,-0.2,-129.9,-331.1,183.0,-0.94,8.74,-0.14,0.0,0.8608135686662938,1.1225862995778988,0.10882140665219553,0.25,0,1,0.0
2.808559613000398,76,803.28,98.4,5.8,-42.9,1.16,-0.23,-0.65,0.1,0.85,-0.24,-133.1,-311.3,189.0,-0.86,8.21,-0.23,0.0,0.8888756943465155,1.3494443300855357,0.0791440953525343,0.25,0,1,0.0
2.816448659001253,77,803.29,98.6,5.7,-42.9,1.33,-0.24,-0.67,0.1,0.85,-0.26,-136.1,-287.2,247.0,-0.78,7.44,0.04,0.0,0.8944830909525344,1.5084429057806596,0.072065964771585,0.25,0,1,0.0
2.828626358001202,78,803.3,98.7,5.6,-42.9,1.59,-0.29,-0.64,0.09,0.86,-0.26,-138.7,-255.5,304.0,-0.72,6.52,-0.12,0.0,0.9029396436085858,1.7383325343558407,0.062337223873222936,0.25,0,1,0.0
2.8364797060003184,79,803.31,98.9,5.6,-42.9,1.97,-0.43,-0.58,0.08,0.86,-0.27,-141.0,-222.3,317.0,-0.66,5.65,-0.25,0.0,0.9049309365912959,2.098142035230218,0.059139012272702574,0.25,0,1,0.0
2.84851935900042,80,803.32,99.1,5.5,-42.8,2.58,-0.57,-0.61,0.06,0.87,-0.31,-142.8,-193.2,321.0,-0.61,4.75,-0.38,0.0,0.925526876973327,2.711715324291988,0.037772210452857946,0.25,0,1,0.0
2.8564820070005226,81,803.33,99.4,5.4,-42.8,2.99,-0.76,-0.61,0.05,0.93,-0.31,-144.7,-154.5,350.0,-0.57,3.75,-0.19,0.0,0.981580358401695,3.1448052403924796,0.017915645555999782,0.25,0,1,0.0
2.8684415879997687,82,803.34,99.7,5.4,-42.7,2.9,-0.94,-0.48,0.04,1.02,-0.3,-146.0,-119.5,348.0,-0.53,2.82,-0.32,0.0,1.063954886261631,3.086097859757529,0.09828436994761713,0.25,0,1,0.0
2.8764280369996413,83,803.35,100.0,5.3,-42.6,2.48,-1.21,-0.22,0.01,1.1,-0.26,-146.9,-84.7,347.0,-0.51,1.87,-0.16,0.0,1.1303539268742335,2.7681943573383716,0.16138974234901526,0.25,0,1,0.0
2.8885186740008066,84,803.36,100.3,5.3,-42.5,2.03,-1.47,0.01,0.0,1.16,-0.22,-147.6,-53.5,302.0,-0.5,1.13,-0.04,0.0,1.1806777714516352,2.5063718798294876,0.20747931518788865,0.25,0,1,0.0
2.896405567000329,85,803.37,100.4,5.2,-42.3,1.24,-1.79,0.14,0.0,1.19,-0.09,-147.9,-27.8,269.0,-0.49,0.45,-0.17,0.0,1.1933985084622822,2.182040329599799,0.2157960511545649,0.25,0,1,0.0
2.9087494739997055,86,803.38,100.5,5.2,-42.1,-0.03,-2.16,0.21,0.02,1.22,0.03,-148.0,-3.3,245.0,-0.49,-0.16,-0.09,0.0,1.2205326705991937,2.170391669722311,0.23807160902564684,0.25,0,1,0.0
2.9164433870009816,87,803.39,100.5,5.2,-41.9,-1.22,-2.59,0.1,0.1,1.14,0.14,-148.0,9.5,130.0,-0.5,-0.31,0.08,0.0,1.152909363306587,2.864698937061275,0.16703933569837937,0.25,0,1,0.0
2.928318410000429,88,803.4,100.4,5.1,-41.6,-1.13,-2.98,-0.43,0.18,1.05,0.19,-147.8,13.8,71.0,-0.5,-0.42,-0.25,0.0,1.0821275340735028,3.215929103696162,0.09433235633598924,0.25,0,1,0.0
2.9382362920005107,89,803.41,100.3,5.0,-41.3,0.13,-3.15,-1.44,0.3,1.02,0.13,-147.7,20.7,86.0,-0.51,-0.68,-0.08,0.0,1.0711209082078457,3.465977495599185,0.0816592158609255,0.25,0,1,0.0
2.9480503289996705,90,803.42,100.4,4.7,-41.0,0.83,-2.88,-2.13,0.38,1.12,0.05,-147.4,30.7,91.0,-0.51,-0.96,-0.06,0.0,1.1837651794169315,3.6769824584841304,0.19041741732861106,0.25,0,1,0.0
2.9584370510001463,91,803.43,100.5,4.4,-40.8,0.39,-2.14,-2.28,0.37,1.17,-0.04,-147.0,42.9,112.0,-0.53,-1.3,-0.06,0.0,1.2277621919573838,3.1512061182981985,0.22972614127168212,0.25,0,1,0.0
2.9689579870009766,92,803.44,100.5,4.2,-40.7,-0.24,-1.41,-1.89,0.26,1.11,-0.03,-146.5,54.0,101.0,-0.54,-1.56,-0.09,0.0,1.1404385121522336,2.3701898658124416,0.13955441223720122,0.25,0,1,0.0
2.978767448999861,93,803.45,100.5,4.0,-40.6,0.46,-1.1,-1.58,0.11,0.99,0.03,-145.9,59.5,55.0,-0.56,-1.64,-0.07,0.0,0.9965440281292142,1.9793938466106236,0.004253270350101923,0.25,0,1,0.0
2.988357164000263,94,803.46,100.6,3.8,-40.5,1.73,-1.23,-1.42,-0.01,0.96,0.03,-145.3,58.3,-13.0,-0.57,-1.48,0.08,0.0,0.9605206921248495,2.5538598238744425,0.03947107422737728,0.25,0,1,0.0
2.996406382000714,95,803.47,100.9,3.7,-40.4,2.53,-1.55,-1.37,-0.12,1.02,-0.01,-144.8,46.9,-105.0,-0.59,-1.05,0.0,0.0,1.0270832488167645,3.268072826605919,0.026549652815246905,0.25,0,1,0.0
3.0087731940002413,96,803.48,101.1,3.5,-40.3,2.66,-1.9,-1.24,-0.16,1.15,-0.05,-144.5,25.9,-199.0,-0.59,-0.36,0.08,0.0,1.16215317406958,3.4961693322835496,0.15838718650670125,0.25,0,1,0.0
3.0164251109999896,97,803.49,101.4,3.4,-40.1,2.15,-2.22,-0.96,-0.15,1.28,-0.1,-144.4,-0.2,-218.0,-0.59,0.23,0.05,0.0,1.2926329718833571,3.2361242250568814,0.2830896446340687,0.25,0,2,0.0
3.028542826001285,98,803.5,101.6,3.2,-39.9,1.11,-2.6,-0.56,-0.1,1.37,-0.13,-144.5,-13.6,-133.0,-0.59,0.45,-0.14,0.0,1.3797825915701358,2.8819611378365253,0.36283447903443045,0.25,0,2,0.0
3.036414763000721,99,803.51,101.6,3.2,-39.6,0.05,-2.92,-0.03,-0.01,1.4,-0.18,-144.7,-18.3,-72.0,-0.58,0.55,-0.07,0.0,1.4115594213493103,2.9205821337534745,0.3867190826373328,0.25,0,2,0.0
3.048585319000267,100,803.52,101.5,3.1,-39.3,-1.57,-3.14,0.42,0.05,1.32,-0.18,-144.9,-26.0,-82.0,-0.57,0.8,-0.07,0.0,1.3331541546272885,3.5356611828624076,0.3021475395970048,0.25,0,2,0.0
3.060429404000388,101,803.53,101.3,3.1,-39.0,-3.01,-3.33,0.75,0.09,1.19,-0.13,-145.2,-35.8,-106.0,-0.56,1.13,-0.02,0.0,1.2004582458378132,4.550988903524156,0.16606259819137903,0.25,0,2,0.0
3.0684794680000778,102,803.54,100.9,3.1,-38.6,-3.75,-3.45,0.8,0.12,1.03,-0.11,-145.7,-48.1,-112.0,-0.55,1.44,0.24,0.0,1.0427847332982967,5.158003489723519,0.008221303938825253,0.25,0,2,0.0
3.076455428999907,103,803.55,100.6,3.1,-38.3,-3.37,-3.39,0.74,0.14,0.94,-0.13,-146.2,-60.5,-129.0,-0.53,1.83,0.13,0.0,0.959218431849597,4.837003204464517,0.07383809755967696,0.25,0,2,0.0
3.0888565740006015,104,803.56,100.3,3.2,-37.9,-2.72,-3.18,0.69,0.14,0.88,-0.13,-146.9,-74.7,-155.0,-0.51,2.29,0.07,0.0,0.900499861188218,4.241096556316538,0.12990553485663492,0.25,0,2,0.0
3.096487018001426,105,803.57,100.0,3.3,-37.6,-2.25,-2.86,0.68,0.14,0.85,-0.13,-147.8,-95.6,-185.0,-0.49,2.84,0.0,0.0,0.8712060605849801,3.701958940885217,0.15601534875067546,0.25,0,2,0.0
3.108791677001136,106,803.58,99.8,3.3,-37.4,-1.79,-2.43,0.62,0.15,0.82,-0.12,-148.9,-114.4,-184.0,-0.45,3.34,0.15,0.0,0.8421995013059553,3.081136154083425,0.18132146986910613,0.25,0,2,0.0
3.1164206080011354,107,803.59,99.7,3.3,-37.1,-1.39,-2.14,0.69,0.16,0.85,-0.09,-150.2,-132.5,-184.0,-0.42,3.83,-0.03,0.0,0.8695976080923865,2.643444722327289,0.15084489582102145,0.25,0,2,0.0
3.128869525000482,108,803.6,99.6,3.4,-36.9,-1.21,-1.79,0.77,0.18,0.84,-0.12,-151.6,-149.6,-168.0,-0.38,4.27,-0.04,0.0,0.8674099376880575,2.293708787095694,0.14997191490084338,0.25,0,2,0.0
3.1364711269998224,109,803.61,99.5,3.4,-36.7,-0.96,-1.47,0.81,0.19,0.84,-0.12,-153.2,-162.9,-138.0,-0.33,4.57,0.04,0.0,0.8695401083331349,1.9335459653186422,0.1448849093706508,0.25,0,2,0.0
3.148774504999892,110,803.62,99.4,3.5,-36.6,-0.6,-1.03,0.76,0.2,0.83,-0.14,-154.9,-172.4,-98.0,-0.28,4.76,0.03,0.0,0.8651589449343976,1.4136831328130077,0.14628075131400042,0.25,0,2,0.0
3.158591979999983,111,803.63,99.4,3.6,-36.5,-0.4,-0.73,0.7,0.19,0.87,-0.12,-156.7,-177.8,-63.0,-0.23,4.89,0.15,0.0,0.8985543945694106,1.087612063191651,0.1106275956454077,0.25,0,2,0.0
3.1690296880005917,112,803.64,99.3,3.6,-36.4,-0.62,-0.43,0.67,0.16,0.89,-0.12,-158.5,-181.5,-40.0,-0.19,4.96,-0.18,0.0,0.9121951545584969,1.009058967553433,0.09504709894319496,0.25,0,2,0.0
3.1787920870010566,113,803.65,99.2,3.7,-36.4,-0.95,-0.27,0.61,0.13,0.88,-0.11,-160.3,-182.1,-13.0,-0.14,4.95,-0.02,0.0,0.8963258336118624,1.16081867662439,0.10869809149203291,0.25,0,2,0.0
3.188378292001289,114,803.66,99.1,3.8,-36.4,-1.07,-0.24,0.56,0.1,0.87,-0.1,-162.1,-180.8,9.0,-0.09,4.87,-0.13,0.0,0.8814193099768124,1.2313001258832066,0.12113252282454123,0.25,0,2,0.0
3.1987374239997735,115,803.67,99.0,3.9,-36.3,-0.91,-0.18,0.42,0.07,0.85,-0.11,-163.9,-177.8,27.0,-0.04,4.78,0.0,0.0,0.8599418584997476,1.0182828683622247,0.13975777481557394,0.25,0,2,0.0
3.2084200919998693,116,803.68,98.9,3.9,-36.3,-0.89,-0.23,0.39,0.05,0.89,-0.12,-165.7,-172.5,45.0,0.0,4.62,-0.09,0.0,0.8994442728707543,0.9985489472229191,0.09825025323567582,0.25,0,2,0.0
3.218748962000973,117,803.69,98.8,3.9,-36.3,-0.84,-0.12,0.38,0.07,0.88,-0.12,-167.3,-164.1,75.0,0.04,4.35,0.03,0.0,0.8908984229416954,0.9297311439335566,0.10466018110144004,0.25,0,2,0.0
3.228437269001006,118,803.7,98.7,4.0,-36.3,-0.52,0.0,0.32,0.07,0.87,-0.14,-168.9,-155.5,80.0,0.08,4.12,-0.23,0.0,0.8839683252243826,0.6105735008989499,0.1093584732423778,0.25,0,2,0.0
3.238815937000254,119,803.71,98.7,4.0,-36.3,-0.41,0.06,0.31,0.08,0.88,-0.15,-170.4,-145.9,99.0,0.12,3.81,-0.12,0.0,0.8962700485902672,0.5174939613174244,0.09511561487896336,0.25,0,2,0.0
3.2483679720007785,120,803.72,98.7,4.1,-36.3,-0.18,0.24,0.24,0.08,0.86,-0.16,-171.8,-135.8,105.0,0.16,3.54,-0.13,0.0,0.8784076502399099,0.38418745424597095,0.11071845296473426,0.25,0,2,0.0
3.2588620300011826,121,803.73,98.7,4.1,-36.3,0.0,0.21,0.19,0.07,0.85,-0.18,-173.1,-123.7,114.0,0.19,3.21,0.1,0.0,0.8716650732936361,0.2831960451701259,0.11511180931278786,0.25,0,2,0.0
3.2684496010006114,122,803.74,98.8,4.1,-36.3,0.21,0.21,0.16,0.08,0.85,-0.23,-174.2,-114.1,92.0,0.22,3.02,-0.03,0.0,0.8841945487278238,0.33734255586865997,0.1005306872010282,0.25,0,2,0.0
3.278623697000512,123,803.75,98.8,4.2,-36.3,0.51,0.18,0.17,0.09,0.86,-0.27,-175.3,-105.5,96.0,0.25,2.73,0.06,0.0,0.905869747811461,0.5669215113223346,0.07727837835504314,0.25,0,2,0.0
3.288703723999788,124,803.76,98.9,4.2,-36.4,0.69,0.16,0.17,0.11,0.89,-0.29,-176.3,-95.7,86.0,0.28,2.52,-0.09,0.0,0.9424966843443005,0.7284229540589725,0.03983841298575963,0.25,0,2,0.0
3.2964917440003774,125,803.77,98.9,4.2,-36.4,0.66,0.17,0.13,0.14,0.94,-0.32,-177.2,-88.4,85.0,0.3,2.28,0.11,0.0,1.0027960909377338,0.6938299503480663,0.02005177373552025,0.25,0,2,0.0
3.3084938949996285,126,803.78,99.0,4.2,-36.4,0.39,0.29,0.15,0.14,0.99,-0.31,-178.0,-80.5,75.0,0.32,2.09,-0.05,0.0,1.0468046618161384,0.5086255990411809,0.06277913772164634,0.25,0,2,0.0
3.31642217100125,127,803.79,99.0,4.2,-36.4,0.05,0.27,0.16,0.14,1.02,-0.26,-178.8,-73.9,70.0,0.34,1.93,0.0,0.0,1.061885116196663,0.3178049716414141,0.07630240026012747,0.25,0,2,0.0
3.328728211001362,128,803.8,99.0,4.3,-36.4,-0.48,0.33,0.02,0.13,1.02,-0.24,-179.5,-67.2,73.0,0.36,1.72,0.04,0.0,1.0558882516630252,0.5828378848359121,0.06889942501196,0.25,0,2,0.0
3.336452723000548,129,803.81,99.0,4.3,-36.5,-1.3,0.41,-0.12,0.11,1.0,-0.25,-180.1,-58.8,80.0,0.38,1.49,-0.1,0.0,1.0366291525902598,1.3683932183404008,0.04864751942041068,0.25,0,2,0.0
3.348603828000705,130,803.82,98.8,4.3,-36.5,-1.85,0.46,-0.04,0.1,0.99,-0.23,-180.7,-51.5,69.0,0.39,1.32,-0.04,0.0,1.0212737145349429,1.906751163628857,0.032626239737791884,0.25,0,2,0.0
3.3564132890005567,131,803.83,98.7,4.3,-36.6,-1.53,0.47,0.19,0.08,0.96,-0.18,-181.1,-44.3,67.0,0.4,1.14,0.03,0.0,0.98,1.6118002357612433,0.008474525301207958,0.25,0,2,0.0
3.3686582379996253,132,803.84,98.6,4.4,-36.6,-0.64,0.27,0.4,0.06,0.92,-0.13,-181.5,-39.9,51.0,0.41,1.02,-0.07,0.0,0.9310746479203481,0.8015609770940699,0.056251879833242646,0.25,0,2,0.0
3.378565275001165,133,803.85,98.6,4.4,-36.6,0.24,-0.03,0.4,0.05,0.92,-0.12,-181.9,-35.5,48.0,0.42,0.9,-0.02,0.0,0.9291393867445292,0.46743983570080977,0.05702339818888025,0.25,0,2,0.0
3.3886399889997847,134,803.86,98.6,4.4,-36.6,0.55,-0.21,0.22,0.06,0.96,-0.2,-182.2,-30.1,61.0,0.43,0.71,-0.12,0.0,0.9824459272652108,0.6284902544988268,0.003642520514834602,0.25,0,2,0.0
3.3964322360006918,135,803.87,98.7,4.4,-36.5,0.14,-0.17,-0.01,0.1,0.96,-0.26,-182.5,-21.5,81.0,0.44,0.46,-0.16,0.0,0.999599919967984,0.22045407685048604,0.013241242744179815,0.25,0,2,0.0
3.408662343001197,136,803.88,98.7,4.4,-36.6,-0.34,0.17,-0.3,0.14,0.92,-0.33,-182.6,-10.2,105.0,0.44,0.13,-0.11,0.0,0.9873702446397704,0.4842520005121301,0.0009913360676468974,0.25,0,2,0.0
3.4204536880006344,137,803.89,98.6,4.4,-36.6,-0.44,0.81,-0.51,0.18,0.9,-0.4,-182.6,-1.1,83.0,0.44,-0.03,0.05,0.0,1.0011992808627062,1.053470455209827,0.014523964844771031,0.25,0,2,0.0
3.4283907389999513,138,803.9,98.6,4.3,-36.7,-0.12,1.57,-0.64,0.2,0.87,-0.43,-182.6,1.8,19.0,0.44,0.01,0.04,0.0,0.9908582138732059,1.6996764397967046,0.004099239898165408,0.25,0,2,0.0
3.436415281999871,139,803.91,98.6,4.3,-36.9,0.76,2.45,-0.82,0.23,0.86,-0.45,-182.6,-0.7,9.0,0.44,0.0,-0.03,0.0,0.9974968671630001,2.6930466018990464,0.01052313532420035,0.25,0,2,0.0
3.4487045780006156,140,803.92,98.7,4.2,-37.3,1.75,3.41,-1.0,0.24,0.94,-0.39,-182.6,0.3,2.0,0.44,0.0,-0.19,0.0,1.0456098698845568,3.9611362006373882,0.05746341528484189,0.25,0,2,0.0
3.4564728290006315,141,803.93,98.9,4.2,-37.7,2.25,4.16,-0.99,0.24,1.03,-0.35,-182.6,-0.5,1.0,0.44,0.0,0.04,0.0,1.1140017953306898,4.831997516555654,0.12333823391635534,0.25,0,2,0.0
3.4687830960010615,142,803.94,99.1,4.2,-38.1,2.28,4.81,-0.89,0.21,1.08,-0.35,-182.6,0.9,2.0,0.44,0.0,0.04,0.0,1.1545561917897285,5.396906521332382,0.16061477776788613,0.25,0,2,0.0
3.4764098430005106,143,803.95,99.3,4.2,-38.6,2.27,5.16,-0.81,0.17,1.06,-0.29,-182.6,-0.4,-8.0,0.44,0.03,0.04,0.0,1.1120251795710383,5.69513827751355,0.115722090238212,0.25,0,2,0.0
3.48869525200098,144,803.96,99.5,4.2,-39.2,2.28,5.05,-0.83,0.13,1.05,-0.19,-182.6,0.5,8.0,0.44,-0.03,0.04,0.0,1.0749418588928425,5.602660082496528,0.07706599416881588,0.25,0,2,0.0
3.496457802000805,145,803.97,99.7,4.2,-39.7,1.92,4.86,-0.82,0.08,1.07,-0.12,-182.6,0.7,-4.0,0.44,0.0,0.04,0.0,1.0796758772891057,5.289461220200031,0.08016401231377746,0.25,0,2,0.0
3.508626112999991,146,803.98,99.8,4.2,-40.1,1.36,4.71,-0.69,0.0,1.13,-0.04,-182.6,0.9,6.0,0.44,-0.04,0.12,0.0,1.1307077429645558,4.950737318824339,0.12857196042944286,0.25,0,2,0.0
3.516440594001324,147,803.99,99.8,4.2,-40.6,0.84,4.56,-0.27,-0.09,1.21,0.03,-182.6,3.5,24.0,0.44,-0.14,0.03,0.0,1.2137133104650373,4.644577483474681,0.20734597737132576,0.25,0,2,0.0
3.5287344839998696,148,804.0,99.9,4.3,-41.0,0.66,4.31,0.37,-0.17,1.22,0.09,-182.5,6.7,60.0,0.43,-0.34,0.08,0.0,1.2350708481702577,4.375911333653825,0.22412944477501529,0.25,0,2,0.0
3.5364358730003005,149,804.01,99.9,4.5,-41.4,0.77,3.87,1.02,-0.22,1.21,0.17,-182.4,14.8,49.0,0.43,-0.43,0.05,0.0,1.2415313125330347,4.075561311034346,0.2259781109550365,0.25,0,2,0.0
3.548771720001241,150,804.02,100.0,4.7,-41.8,0.74,3.07,1.55,-0.24,1.18,0.24,-182.2,19.7,60.0,0.42,-0.61,-0.05,0.0,1.2278436382536662,3.517811819867572,0.20804462794215461,0.25,0,2,0.0
3.5564417490004416,151,804.03,100.0,4.9,-42.0,0.32,2.01,1.87,-0.21,1.15,0.24,-181.9,26.0,55.0,0.42,-0.76,-0.07,0.0,1.1933985084622822,2.763946453895227,0.17012750818775535,0.25,0,2,0.0
3.5686179460008134,152,804.04,100.0,5.1,-42.1,-0.21,1.02,2.01,-0.11,1.13,0.18,-181.6,34.6,87.0,0.41,-1.06,-0.01,0.0,1.149521639639724,2.2637579375896175,0.12372562657789321,0.25,0,2,0.0
3.576469913999972,153,804.05,99.9,5.3,-42.1,-0.44,0.41,2.02,0.01,1.1,0.11,-181.2,47.9,134.0,0.39,-1.52,-0.03,0.0,1.105531546361297,2.1076289996107,0.07814082263347677,0.25,0,2,0.0
3.588748817001033,154,804.06,99.9,5.5,-42.1,-0.29,0.05,1.87,0.12,1.04,0.05,-180.6,68.6,192.0,0.37,-2.15,0.12,0.0,1.0480935072788116,1.8930134706335293,0.02028872787997149,0.25,0,2,0.0
3.5963982089997444,155,804.07,99.9,5.7,-42.1,0.27,-0.09,1.52,0.21,1.0,0.0,-179.7,92.0,221.0,0.35,-2.79,-0.06,0.0,1.0218121158021176,1.546415209444087,0.005872810324788036,0.25,0,2,0.0
3.6088040780014126,156,804.08,100.0,5.8,-42.0,0.9,-0.17,1.05,0.27,1.0,-0.02,-178.7,114.2,213.0,0.32,-3.34,-1.25,0.0,1.0360019305001318,1.393341307792172,0.00815066428576161,0.25,0,2,0.0
3.6164217360001203,157,804.09,100.1,5.9,-42.0,1.28,-0.12,0.52,0.28,1.03,-0.07,-177.4,136.5,228.0,0.28,-4.0,-0.2,0.0,1.0696728471827261,1.3867948658687772,0.04098514934898878,0.25,0,2,0.0
3.6285048500012635,158,804.1,100.2,5.9,-42.0,0.97,-0.11,0.11,0.26,1.07,-0.12,-175.8,160.1,227.0,0.23,-4.62,-0.25,0.0,1.1076551810017412,0.9823950325607311,0.0773881335046438,0.25,0,2,0.0
3.6363868300013564,159,804.11,100.3,5.9,-42.0,0.27,0.16,-0.21,0.22,1.08,-0.18,-174.1,182.8,234.0,0.18,-5.27,-0.15,0.0,1.1167810886650973,0.37762415176998415,0.08478376034463997,0.25,0,2,0.0
3.6487404800009244,160,804.12,100.3,5.9,-42.0,-0.42,0.58,-0.44,0.19,1.07,-0.19,-172.1,207.2,243.0,0.13,-5.93,0.19,0.0,1.1032225523438144,0.8404760555780277,0.06980071954289002,0.25,0,2,0.0
3.660353090001081,161,804.13,100.2,5.9,-42.1,-0.77,1.09,-0.52,0.15,1.02,-0.18,-169.8,230.9,229.0,0.06,-6.54,-0.06,0.0,1.0465658125507444,1.4322709240922264,0.012881100154823688,0.25,0,2,0.0
3.668254316000457,162,804.14,100.1,5.9,-42.3,-0.5,1.55,-0.62,0.12,0.98,-0.17,-167.4,251.7,215.0,0.0,-7.11,-0.13,0.0,1.0018482919085103,1.7426703646989583,0.031199692077662267,0.25,0,2,0.0
3.6763823649998812,163,804.15,100.0,5.9,-42.5,-0.16,1.92,-0.75,0.09,0.97,-0.14,-164.7,276.4,251.0,-0.07,-7.85,-0.16,0.0,0.9841747812253675,2.0674863965695156,0.04789573870558905,0.25,0,2,0.0
3.6886404390006646,164,804.16,100.0,5.8,-42.7,-0.36,2.09,-0.81,0.07,0.99,-0.12,-161.7,304.2,255.0,-0.16,-8.56,0.02,0.0,0.9996999549864949,2.270198229230214,0.03172315364557243,0.25,0,2,0.0
3.6964694720008993,165,804.17,99.8,5.8,-42.9,-1.03,2.2,-0.78,0.05,0.98,-0.11,-158.5,324.6,211.0,-0.25,-9.06,-0.14,0.0,0.9874208829065749,2.551332984931603,0.043122181210982546,0.25,0,2,0.0
3.708717723000518,166,804.18,99.6,5.7,-43.1,-1.69,2.23,-0.67,0.05,0.94,-0.09,-155.2,344.6,212.0,-0.34,-9.65,0.03,0.0,0.945621488757526,2.8771339906233075,0.0832231438528308,0.25,0,2,0.0
3.716419637999934,167,804.19,99.4,5.6,-43.4,-2.01,2.18,-0.58,0.04,0.89,-0.06,-151.6,366.3,208.0,-0.44,-10.19,0.08,0.0,0.8929165694509202,3.021406957031773,0.1332095018962478,0.25,0,2,0.0
3.728595333001067,168,804.2,99.2,5.6,-43.6,-1.92,2.01,-0.52,0.03,0.84,-0.03,-147.8,387.1,222.0,-0.55,-10.83,0.1,0.0,0.8410707461325712,2.827879063892231,0.18135421871030488,0.25,0,2,0.0
3.73643567200088,169,804.21,99.0,5.6,-43.8,-1.55,1.76,-0.51,0.01,0.82,-0.01,-143.7,413.0,231.0,-0.66,-11.48,0.06,0.0,0.8201219421525069,2.400041666304983,0.19825696223656186,0.25,0,2,0.0
3.7486523750012566,170,804.22,98.8,5.6,-44.0,-1.08,1.4,-0.54,0.01,0.82,0.0,-139.5,427.1,159.0,-0.78,-11.78,-0.03,0.0,0.8200609733428362,1.8487833837418595,0.19435157242530787,0.25,0,2,0.0
3.7564331150006183,171,804.23,98.7,5.5,-44.1,-0.64,1.07,-0.61,0.02,0.84,-0.01,-135.1,442.4,151.0,-0.9,-12.17,0.02,0.0,0.8402975663418286,1.3880201727640704,0.17063267983778907,0.25,0,2,0.0
3.7686703800009127,172,804.24,98.7,5.5,-44.2,-0.4,0.85,-0.68,0.02,0.88,-0.06,-130.6,447.3,63.0,-1.02,-12.2,0.24,0.0,0.882269800004511,1.1596982366115764,0.12608723725160442,0.25,0,2,0.0
3.7764735220007424,173,804.25,98.6,5.4,-44.3,-0.35,0.76,-0.68,0.03,0.91,-0.09,-126.1,459.8,139.0,-1.15,-12.71,0.12,0.0,0.9149316914393119,1.0781929326423914,0.09155683890046762,0.25,0,2,0.0
3.788545315999727,174,804.26,98.5,5.3,-44.4,-0.34,0.7,-0.67,0.04,0.93,-0.11,-121.4,469.1,65.0,-1.27,-12.76,-0.1,0.0,0.9373366524360393,1.0268885041717042,0.06776884034566544,0.25,0,2,0.0
3.796406946999923,175,804.27,98.5,5.2,-44.5,-0.37,0.7,-0.63,0.06,0.95,-0.13,-116.7,472.9,65.0,-1.4,-12.95,-0.1,0.0,0.960728889958036,1.011830025251277,0.043489070767195326,0.25,0,2,0.0
3.8087463030005893,176,804.28,98.4,5.2,-44.5,-0.46,0.79,-0.61,0.07,0.96,-0.14,-111.9,477.7,50.0,-1.53,-13.06,-0.04,0.0,0.9726767191621274,1.0989995450408523,0.030910416731841805,0.25,0,2,0.0
3.8164238879999175,177,804.29,98.4,5.1,-44.6,-0.73,0.92,-0.54,0.07,0.96,-0.15,-107.1,486.9,77.0,-1.67,-13.31,0.08,0.0,0.9741663102366043,1.2926329718833571,0.028832409144217586,0.25,0,2,0.0
3.828681332000997,178,804.3,98.3,5.1,-44.7,-1.0,1.02,-0.45,0.06,0.94,-0.14,-102.3,481.0,-70.0,-1.8,-12.85,0.07,0.0,0.9522604685693931,1.4976314633447043,0.04972348579520014,0.25,0,2,0.0
3.836442331001308,179,804.31,98.1,5.0,-44.8,-1.15,1.14,-0.28,0.02,0.94,-0.13,-97.6,460.5,-194.0,-1.92,-12.12,0.11,0.0,0.9491575211733825,1.6433198106272557,0.0517699045273865,0.25,0,2,0.0
3.84867803599991,180,804.32,98.0,5.0,-45.0,-1.47,0.97,0.03,0.0,0.94,-0.1,-93.3,408.4,-523.0,-2.03,-10.13,0.33,0.0,0.9453041838477179,1.761448267761503,0.05451077701599005,0.25,0,2,0.0
3.858619587999783,181,804.33,97.8,5.0,-45.1,-1.41,1.01,0.24,-0.05,0.92,-0.12,-89.8,320.9,-822.0,-2.11,-7.42,0.47,0.0,0.9291393867445292,1.7509426032854416,0.06926206263679513,0.25,0,2,0.0
3.8686633840006834,182,804.34,97.7,5.0,-45.1,-1.81,0.57,0.47,-0.08,0.96,-0.06,-87.3,207.5,-1068.0,-2.16,-4.13,0.54,0.0,0.9651942809610923,1.9549680304291424,0.03254302505182749,0.25,0,2,0.0
3.8764558149996446,183,804.35,97.5,5.1,-45.1,-1.77,-0.08,0.6,-0.08,0.97,-0.06,-86.1,85.6,-1157.0,-2.18,-0.86,0.41,0.0,0.9751410154434075,1.870641601162553,0.022144364758122093,0.25,0,2,0.0
3.888807039000312,184,804.36,97.3,5.1,-45.1,-1.77,-0.83,0.42,-0.05,0.98,-0.11,-86.0,-18.7,-948.0,-2.17,1.32,0.09,0.0,0.9874208829065749,1.9995499493636062,0.009667207349055573,0.25,0,2,0.0
3.8964618339996377,185,804.37,97.1,5.1,-45.0,-2.68,-1.11,0.28,0.0,1.04,-0.2,-86.6,-75.6,-660.0,-2.15,2.67,-0.01,0.0,1.0590561835898982,2.9142580530900144,0.060728731467582286,0.25,0,2,0.0
3.9086615390006045,186,804.38,96.8,5.2,-44.9,-3.55,-0.82,0.48,0.06,1.03,-0.23,-87.7,-125.2,-556.0,-2.11,4.02,-0.01,0.0,1.057071426158138,3.6749557820469074,0.057569094555105615,0.25,0,2,0.0
3.918704219000574,187,804.39,96.5,5.2,-44.8,-3.04,-0.38,0.71,0.1,0.88,-0.18,-89.3,-173.3,-492.0,-2.07,5.26,0.24,0.0,0.9037698822156003,3.1448529377381065,0.09381780039968346,0.25,0,2,0.0
3.9291867400006595,188,804.4,96.3,5.3,-44.8,-1.37,-0.24,0.76,0.13,0.82,-0.08,-91.3,-214.4,-413.0,-2.01,6.24,0.32,0.0,0.8340863264674706,1.584960567332828,0.16023132902485693,0.25,0,2,0.0
3.9388247349997982,189,804.41,96.3,5.4,-44.7,-0.23,-0.34,0.73,0.17,0.84,-0.07,-93.7,-247.3,-349.0,-1.94,7.11,0.44,0.0,0.8598837130682264,0.8374962686484042,0.1317452635756191,0.25,0,2,0.0
3.948396996000156,190,804.42,96.3,5.5,-44.7,0.05,-0.27,0.6,0.19,0.86,-0.14,-96.4,-278.0,-311.0,-1.86,7.88,0.16,0.0,0.8917959407846617,0.6598484674529449,0.09783637514200016,0.25,0,2,0.0
3.9563818000005995,191,804.43,96.3,5.6,-44.7,0.12,-0.12,0.46,0.2,0.85,-0.2,-99.4,-300.1,-219.0,-1.78,8.33,-0.02,0.0,0.8958236433584459,0.4903060268852505,0.09193249911685164,0.25,0,2,0.0
3.9686398940011713,192,804.44,96.3,5.6,-44.6,0.62,-0.15,0.35,0.18,0.87,-0.18,-102.4,-310.3,-124.0,-1.69,8.52,-0.03,0.0,0.9064766957842877,0.7275987905432498,0.0796538577571897,0.25,0,2,0.0
3.976480659999652,193,804.45,96.4,5.6,-44.6,1.09,-0.14,0.19,0.15,0.88,-0.21,-105.5,-318.0,-92.0,-1.62,8.72,-0.16,0.0,0.91706052144883,1.1152578177264665,0.0676886314507944,0.25,0,2,0.0
3.9885653359997377,194,804.46,96.5,5.6,-44.6,1.31,-0.25,0.0,0.12,0.91,-0.21,-108.8,-321.3,-21.0,-1.52,8.66,0.03,0.0,0.9415943925066674,1.333641631023867,0.04229166518509786,0.25,0,2,0.0
3.9964459350012476,195,804.47,96.7,5.6,-44.6,1.07,-0.24,-0.15,0.09,0.96,-0.25,-111.9,-313.2,52.0,-1.43,8.41,-0.07,0.0,0.9960923651951158,1.1067971810589328,0.01196218135328353,0.25,0,2,0.0
4.00875367899971,196,804.48,96.8,5.6,-44.6,0.57,-0.16,-0.19,0.06,0.98,-0.26,-115.0,-305.9,62.0,-1.35,8.22,-0.2,0.0,1.0156771140475698,0.6217716622683925,0.030915991601622728,0.25,0,2,0.0
4.016483569001139,197,804.49,96.8,5.6,-44.5,0.29,-0.15,-0.18,0.03,0.96,-0.24,-118.0,-296.4,100.0,-1.27,7.89,-0.08,0.0,0.99,0.372827037646145,0.005134100002971875,0.25,0,2,0.0
4.028792717001124,198,804.5,96.8,5.6,-44.5,0.24,-0.35,-0.2,0.01,0.93,-0.18,-120.9,-283.3,118.0,-1.2,7.56,-0.18,0.0,0.9473119866232033,0.469148164229596,0.03680283510634841,0.25,0,2,0.0
4.036474522001299,199,804.51,96.9,5.5,-44.5,0.5,-0.87,-0.23,-0.01,0.93,-0.2,-123.6,-270.5,131.0,-1.12,7.15,-0.02,0.0,0.9513148795220224,1.0294658809304948,0.03214394336337867,0.25,0,2,0.0
4.048686779000491,200,804.52,96.9,5.5,-44.4,0.81,-1.14,-0.19,-0.03,0.94,-0.24,-126.2,-254.8,164.0,-1.05,6.65,-0.24,0.0,0.9706183596038146,1.4113114468465138,0.012583654015954737,0.25,0,2,0.0
4.056455144000211,201,804.53,97.1,5.5,-44.2,1.15,-1.52,-0.09,-0.02,0.93,-0.23,-128.6,-233.2,212.0,-0.99,6.02,-0.03,0.0,0.9582275303913993,1.9081404560461475,0.02447499356380267,0.25,0,2,0.0
4.068671850000101,202,804.54,97.2,5.5,-44.1,1.67,-1.91,-0.05,0.0,0.92,-0.27,-130.8,-210.0,215.0,-0.94,5.45,0.24,0.0,0.9588013350011565,2.537616992376903,0.023423165174964566,0.25,0,2,0.0
4.0764157850007905,203,804.55,97.4,5.4,-43.9,2.06,-2.14,0.0,0.02,0.95,-0.34,-132.7,-190.1,211.0,-0.88,4.89,-0.13,0.0,1.0092076099594176,2.9703871801500896,0.02644344758763062,0.25,0,2,0.0
4.0889064769999095,204,804.56,97.7,5.4,-43.6,2.26,-2.15,0.14,0.05,0.98,-0.4,-134.5,-168.2,222.0,-0.84,4.28,0.05,0.0,1.059669759878048,3.1224509603835253,0.07536748555613582,0.25,0,2,0.0
4.096453682999709,205,804.57,97.9,5.4,-43.4,2.22,-1.96,0.36,0.08,1.03,-0.38,-136.1,-142.9,248.0,-0.8,3.55,-0.05,0.0,1.10077245605075,2.983219737129667,0.11414077809426093,0.25,0,2,0.0
4.1086461459999555,206,804.58,98.1,5.4,-43.2,1.79,-1.88,0.63,0.1,1.06,-0.31,-137.3,-117.6,242.0,-0.77,2.91,-0.2,0.0,1.1089183919477574,2.671216951129204,0.11984097971144303,0.25,0,2,0.0
4.116399193000689,207,804.59,98.4,5.5,-43.0,1.28,-1.99,0.84,0.12,1.06,-0.23,-138.3,-95.2,216.0,-0.75,2.36,-0.08,0.0,1.091283647820309,2.510796686312932,0.10016211087231464,0.25,0,2,0.0
4.128644608001196,208,804.6,98.5,5.5,-42.8,1.07,-2.23,0.69,0.13,1.01,-0.15,-139.1,-77.5,175.0,-0.73,1.96,-0.13,0.0,1.0293201639917484,2.5678590303986706,0.03743465450287897,0.25,0,2,0.0
4.136204557000383,209,804.61,98.6,5.6,-42.6,1.1,-2.49,0.25,0.16,1.02,-0.06,-139.8,-64.0,139.0,-0.71,1.61,-0.04,0.0,1.0342146779078316,2.733605677488983,0.04148258505058289,0.25,0,2,0.0
4.148483431999921,210,804.62,98.8,5.5,-42.3,0.65,-2.73,-0.23,0.18,1.06,0.03,-140.4,-50.8,152.0,-0.7,1.16,-0.19,0.0,1.0755928597754822,2.81572370803671,0.0812035515798688,0.25,0,2,0.0
4.15832948500065,211,804.63,98.8,5.4,-42.0,-0.28,-3.02,-0.7,0.2,1.07,0.11,-140.7,-31.3,186.0,-0.69,0.61,-0.43,0.0,1.0940749517286281,3.1126837295170224,0.09769193066235438,0.25,0,2,0.0
4.168612932000542,212,804.64,98.8,5.3,-41.7,-0.62,-3.12,-1.26,0.25,1.03,0.11,-140.9,-11.3,204.0,-0.69,0.02,-0.41,0.0,1.065598423422257,3.4214616759507916,0.0678310943088637,0.25,0,2,0.0
4.176249334001113,213,804.65,98.7,5.1,-41.5,-0.12,-2.56,-1.92,0.31,1.04,0.03,-140.9,8.8,170.0,-0.69,-0.38,-0.01,0.0,1.0856334556377674,3.2022492095400694,0.08610880399388654,0.25,0,2,0.0
4.188764403999812,214,804.66,98.8,4.8,-41.3,0.22,-1.53,-2.26,0.3,1.12,0.01,-140.7,16.2,91.0,-0.69,-0.49,-0.2,0.0,1.1595257651298656,2.738046749053054,0.15680109121626518,0.25,0,2,0.0
4.19643275999988,215,804.67,98.8,4.6,-41.2,0.01,-0.41,-2.08,0.25,1.17,0.01,-140.5,23.5,85.0,-0.7,-0.74,-0.15,0.0,1.1964530914331744,2.1200471692865706,0.18985384916918235,0.25,0,2,0.0
4.208786952000082,216,804.68,98.8,4.4,-41.3,0.27,0.37,-1.68,0.15,1.11,0.03,-140.2,30.0,62.0,-0.71,-0.86,-0.04,0.0,1.120490963818986,1.7413213373757297,0.11161388712389408,0.25,0,2,0.0
4.216415918999701,217,804.69,98.9,4.3,-41.3,0.92,0.43,-1.28,0.03,1.07,0.09,-139.9,30.2,-9.0,-0.72,-0.7,-0.05,0.0,1.074197374787334,1.6339216627488602,0.06401389213039721,0.25,0,2,0.0
4.228706494999642,218,804.7,99.0,4.2,-41.4,1.56,-0.02,-0.97,-0.05,1.06,0.1,-139.7,20.0,-80.0,-0.72,-0.38,0.07,0.0,1.0658799181896619,1.837090090333079,0.054582506822070664,0.25,0,2,0.0
4.23644572700141,219,804.71,99.2,4.1,-41.4,1.9,-0.69,-0.69,-0.1,1.09,0.08,-139.6,6.5,-115.0,-0.72,-0.03,-0.26,0.0,1.0974971526158963,2.1359307104866487,0.084475746423339,0.25,0,2,0.0
4.2486972469996545,220,804.72,99.4,4.0,-41.3,2.16,-1.39,-0.39,-0.12,1.18,0.01,-139.6,-4.6,-87.0,-0.72,0.16,0.0,0.0,1.1861281549647154,2.5980377210502543,0.16964461379671492,0.25,0,2,0.0
4.256508911999845,221,804.73,99.6,4.0,-41.1,1.99,-1.92,0.0,-0.1,1.26,-0.05,-139.7,-7.3,-44.0,-0.72,0.23,0.0,0.0,1.2649505919204909,2.7652305509667725,0.24349770973744067,0.25,0,2,0.0
4.268692951000048,222,804.74,99.8,4.0,-40.9,1.2,-2.4,0.32,-0.06,1.27,-0.1,-139.8,-10.8,-53.0,-0.72,0.38,0.1,0.0,1.27534309109353,2.7022953206487257,0.24881240473227018,0.25,0,2,0.0
4.276245789000313,223,804.75,99.9,4.0,-40.6,0.09,-2.79,0.48,-0.01,1.23,-0.1,-140.0,-22.7,-114.0,-0.71,0.8,0.16,0.0,1.2340988615179904,2.832419460461321,0.20341681165359593,0.25,0,2,0.0
4.288605763000305,224,804.76,99.8,3.9,-40.3,-0.99,-3.13,0.45,0.03,1.16,-0.12,-140.3,-35.4,-120.0,-0.7,1.12,0.05,0.0,1.1665761869676579,3.3135328578422154,0.13317625436119807,0.25,0,2,0.0
4.2964443050004775,225,804.77,99.6,3.9,-40.0,-1.79,-3.28,0.31,0.07,1.11,-0.12,-140.7,-48.8,-145.0,-0.69,1.53,-0.25,0.0,1.1186599125739691,3.749479963941666,0.08355478036815911,0.25,0,2,0.0
4.308709662000183,226,804.78,99.4,3.9,-39.6,-2.53,-3.32,0.28,0.11,1.05,-0.14,-141.4,-68.8,-193.0,-0.66,2.14,0.07,0.0,1.0649882628461218,4.183503316599617,0.029285468027505646,0.25,0,2,0.0
4.3186693970001215,227,804.79,99.2,3.9,-39.3,-3.04,-3.09,0.3,0.16,0.95,-0.17,-142.2,-92.2,-223.0,-0.64,2.8,0.02,0.0,0.9782637681116478,4.345077674794779,0.05629024617282885,0.25,0,2,0.0
4.328603453999676,228,804.8,98.9,4.0,-39.0,-3.29,-2.85,0.47,0.18,0.93,-0.14,-143.3,-116.8,-243.0,-0.61,3.49,0.01,0.0,0.9575489543621256,4.378070351193548,0.07546495872390402,0.25,0,2,0.0
4.3363832120012376,229,804.81,98.6,4.0,-38.8,-3.17,-2.26,0.61,0.21,0.84,-0.16,-144.6,-141.8,-245.0,-0.57,4.15,0.11,0.0,0.8805112151472007,3.9406344666817295,0.14945264398005242,0.25,0,2,0.0
4.348822296000435,230,804.82,98.3,4.0,-38.6,-2.35,-1.7,0.71,0.22,0.8,-0.1,-146.2,-164.4,-219.0,-0.52,4.7,0.04,0.0,0.8357032966310473,2.9860676482625106,0.1903753512462817,0.25,0,2,0.0
4.3564499969998,231,804.83,98.1,4.1,-38.4,-1.25,-1.05,0.79,0.22,0.8,-0.11,-148.0,-183.0,-190.0,-0.47,5.17,-0.2,0.0,0.8369587803470372,1.8135876047216468,0.18533747017968583,0.25,0,2,0.0
4.368521821001195,232,804.84,98.0,4.2,-38.3,-0.58,-0.55,0.92,0.22,0.81,-0.1,-149.9,-197.7,-155.0,-0.42,5.54,-0.03,0.0,0.8452810183601664,1.2187288459702592,0.17347492752322546,0.25,0,2,0.0
4.376457106000089,233,804.85,98.0,4.3,-38.3,-0.14,-0.09,0.89,0.21,0.8,-0.11,-152.0,-207.8,-103.0,-0.36,5.72,-0.17,0.0,0.8343860018001261,0.9054280755532159,0.18068254520160054,0.25,0,2,0.0
4.388656281000294,234,804.86,98.0,4.3,-38.3,0.13,0.29,0.75,0.2,0.82,-0.12,-154.1,-212.9,-59.0,-0.3,5.82,0.07,0.0,0.8525256594378845,0.8145550932871268,0.1592920298125653,0.25,0,2,0.0
4.396462658000019,235,804.87,98.0,4.4,-38.3,0.17,0.56,0.65,0.17,0.84,-0.13,-156.3,-215.9,-36.0,-0.24,5.88,-0.05,0.0,0.8668333173107734,0.8746427842267951,0.14208468450088296,0.25,0,2,0.0
4.408640202000242,236,804.88,98.1,4.5,-38.4,0.2,0.71,0.58,0.14,0.85,-0.13,-158.4,-216.9,-13.0,-0.18,5.88,0.12,0.0,0.8712060605849801,0.9383496150156402,0.13495770240214267,0.25,0,2,0.0
4.41642911100098,237,804.89,98.1,4.6,-38.4,0.23,0.76,0.52,0.11,0.87,-0.13,-160.6,-215.6,12.0,-0.12,5.8,0.1,0.0,0.8865100112237876,0.9491575211733825,0.11726067672806839,0.25,0,2,0.0
4.428698886000348,238,804.9,98.1,4.7,-38.5,0.17,0.66,0.46,0.08,0.88,-0.12,-162.7,-211.2,41.0,-0.07,5.66,-0.01,0.0,0.8917398723843181,0.8222530024268686,0.10979019925618705,0.25,0,2,0.0
4.436461859000701,239,804.91,98.1,4.8,-38.6,0.02,0.43,0.39,0.06,0.9,-0.1,-164.8,-203.6,71.0,-0.01,5.42,-0.04,0.0,0.9075241043630743,0.5808614292583043,0.09212584793188217,0.25,0,2,0.0
4.4486219850005,240,804.92,98.1,4.8,-38.6,-0.35,0.15,0.29,0.04,0.91,-0.12,-166.8,-195.1,76.0,0.03,5.21,0.05,0.0,0.9187491496594705,0.47864391775097276,0.07928278658277621,0.25,0,2,0.0
4.456445787000121,241,804.93,98.0,4.8,-38.6,-0.84,-0.1,0.17,0.03,0.9,-0.14,-168.7,-187.5,71.0,0.08,5.02,0.05,0.0,0.9113177272499422,0.8628441342444184,0.08497992481245842,0.25,0,2,0.0
4.468636993000473,242,804.94,97.9,4.8,-38.6,-1.2,-0.23,0.11,0.03,0.88,-0.16,-170.5,-179.6,82.0,0.13,4.76,0.31,0.0,0.8949301648732151,1.2267844146385296,0.09934013744540182,0.25,0,2,0.0
4.476480381001238,243,804.95,97.8,4.7,-38.5,-1.17,-0.34,0.12,0.03,0.85,-0.17,-172.2,-169.4,100.0,0.18,4.46,0.02,0.0,0.8673522929006414,1.2242957159118053,0.12437964922961597,0.25,0,2,0.0
4.488657441999749,244,804.96,97.8,4.7,-38.5,-0.76,-0.38,0.11,0.06,0.8,-0.18,-173.8,-158.9,101.0,0.22,4.2,0.0,0.0,0.8221921916437788,0.8567963585356791,0.16614895547674902,0.25,0,2,0.0
4.496414399000059,245,804.97,97.8,4.7,-38.4,-0.2,-0.33,-0.01,0.09,0.77,-0.21,-175.4,-148.0,109.0,0.26,3.87,-0.01,0.0,0.8031811750782012,0.38600518131237566,0.18145677260148008,0.25,0,2,0.0
4.508788944000116,246,804.98,97.8,4.7,-38.4,0.23,-0.2,-0.13,0.13,0.77,-0.25,-176.8,-137.1,104.0,0.3,3.6,-0.09,0.0,0.8199390221229869,0.3313608305156178,0.16140494704556052,0.25,0,2,0.0
4.516423019000285,247,804.99,97.8,4.7,-38.4,0.58,0.04,-0.18,0.16,0.79,-0.29,-178.1,-127.6,94.0,0.33,3.36,-0.01,0.0,0.8566212698736823,0.6086049621881175,0.12222824530896781,0.25,0,2,0.0
4.528740024999934,248,805.0,97.9,4.7,-38.4,0.97,0.36,-0.21,0.19,0.78,-0.33,-179.0,-121.7,95.0,0.36,3.18,0.03,0.0,0.8679861750051092,1.0557461816175326,0.10864607337399002,0.25,0,2,0.0
4.536400986000444,249,805.01,98.0,4.7,-38.5,1.61,0.77,-0.27,0.22,0.83,-0.35,-180.4,-111.9,91.0,0.39,2.93,0.0,0.0,0.9272540105062905,1.80496537362909,0.0483906731153525,0.25,0,2,0.0
4.54867707700032,250,805.02,98.2,4.7,-38.6,1.87,1.23,-0.31,0.24,0.89,-0.36,-181.5,-104.5,72.0,0.42,2.77,-0.07,0.0,0.9895958771134812,2.259623862504554,0.013672169622001351,0.25,0,2,0.0
4.556459479001205,251,805.03,98.4,4.6,-38.8,1.67,1.75,-0.44,0.24,0.93,-0.39,-182.5,-98.7,71.0,0.45,2.57,-0.16,0.0,1.0366291525902598,2.4586581706288495,0.059491336196804356,0.25,0,2,0.0
4.5688115320008365,252,805.04,98.5,4.6,-39.0,0.95,2.33,-0.43,0.22,1.03,-0.37,-183.4,-90.5,81.0,0.47,2.34,0.06,0.0,1.1163332835672328,2.552704448227409,0.1364115578303019,0.25,0,2,0.0
4.576415363000706,253,805.05,98.5,4.6,-39.2,0.44,2.51,-0.16,0.14,1.08,-0.27,-184.3,-82.7,67.0,0.49,2.19,0.02,0.0,1.122007130102122,2.5532919927027535,0.13924369627788724,0.25,0,2,0.0
4.588747473000694,254,805.06,98.6,4.7,-39.5,0.34,2.29,-0.03,0.05,1.03,-0.19,-185.1,-75.8,79.0,0.51,1.94,-0.08,0.0,1.0485704554296769,2.315296957195772,0.06449088117333335,0.25,0,2,0.0
4.596430548999706,255,805.07,98.6,4.7,-39.7,0.5,1.74,-0.15,-0.02,1.03,-0.15,-185.8,-66.9,80.0,0.53,1.73,-0.05,0.0,1.0410571550111933,1.8166177363441105,0.055838029139752776,0.25,0,2,0.0
4.608675210000001,256,805.08,98.6,4.6,-39.8,0.02,1.0,-0.2,-0.07,1.05,-0.15,-186.4,-57.7,96.0,0.55,1.43,-0.23,0.0,1.0629675441893793,1.02,0.07619344995157995,0.25,0,2,0.0
4.616447958000208,257,805.09,98.6,4.6,-39.9,-0.61,0.41,-0.3,-0.08,1.0,-0.22,-186.9,-46.5,104.0,0.56,1.12,-0.09,0.0,1.0270345661174214,0.7938513714795736,0.03945526244202957,0.25,0,2,0.0
4.6286918750010955,258,805.1,98.5,4.6,-39.9,-0.44,0.18,-0.28,-0.04,1.0,-0.3,-187.3,-34.8,111.0,0.57,0.8,-0.02,0.0,1.0447966309287182,0.5517245689653488,0.056072980708259834,0.25,0,2,0.0
4.636440394000601,259,805.11,98.5,4.6,-39.9,0.2,0.16,-0.21,0.0,0.95,-0.35,-187.5,-23.8,121.0,0.57,0.47,0.0,0.0,1.0124228365658292,0.33120990323358385,0.023225202618463392,0.25,0,2,0.0
4.648676402001001,260,805.12,98.6,4.6,-39.9,1.42,0.41,-0.31,0.08,0.96,-0.4,-187.7,-10.5,118.0,0.58,0.15,-0.07,0.0,1.043072384832424,1.5101655538383862,0.05279725586735695,0.25,0,2,0.0
4.658683097000903,261,805.13,98.8,4.5,-40.0,2.38,0.92,-0.41,0.13,1.09,-0.36,-187.7,-0.4,101.0,0.58,-0.08,0.12,0.0,1.155248890932166,2.5843567865138124,0.1616742867277572,0.25,0,2,0.0
4.668711428001188,262,805.14,99.1,4.5,-40.1,3.0,1.41,-0.42,0.15,1.25,-0.33,-187.7,2.6,31.0,0.58,-0.04,0.04,0.0,1.3014991356124674,3.341332069699149,0.3017660407798973,0.25,1,3,2.5
4.676387250001426,263,805.15,99.4,4.5,-40.3,3.31,1.94,-0.36,0.17,1.37,-0.32,-187.7,0.9,-1.0,0.58,0.0,-0.03,0.0,1.4171097346359596,3.853478947652368,0.40902910700732176,0.25,0,3,2.5
4.688733826000316,264,805.16,99.7,4.5,-40.5,2.55,2.15,-0.25,0.16,1.42,-0.29,-187.6,10.9,283.0,0.57,-1.34,2.22,2.91,1.4581152217846158,3.344772040064913,0.44103390227285844,0.25,0,3,2.5
4.696526339999764,265,805.17,99.9,4.6,-40.7,0.6,2.07,0.0,0.15,1.37,-0.22,-186.8,127.4,981.0,0.53,-5.08,2.57,2.91,1.3956360557108003,2.155203006679417,0.370983641475062,0.25,0,3,2.5
4.708690143999775,266,805.18,99.8,4.6,-40.9,-1.39,1.79,0.21,0.14,1.22,-0.13,-184.6,254.6,1153.0,0.46,-8.43,2.71,2.91,1.234868414042565,2.27602724061027,0.20601167981069013,0.25,0,3,2.5
4.716417224000907,267,805.19,99.5,4.7,-41.1,-1.78,1.86,0.29,0.12,1.06,-0.07,-181.2,373.9,1136.0,0.35,-11.45,2.58,2.91,1.0690650120549265,2.5907720856918313,0.039404112266590685,0.25,0,3,2.5
4.728714099001081,268,805.2,99.3,4.8,-41.3,-1.63,2.32,0.6,0.08,1.02,-0.03,-176.8,474.6,1012.0,0.22,-14.03,2.26,2.91,1.0235721762533407,2.8981545852490336,0.0059669490642952905,0.25,0,3,2.5
4.73648437600059,269,805.21,99.1,4.9,-41.6,-1.33,2.92,1.11,0.04,0.98,0.01,-171.4,570.1,971.0,0.06,-16.6,2.85,2.91,0.9808669634563089,3.3952024976428135,0.04769871862410058,0.25,0,3,2.5
4.748665585000708,270,805.22,99.0,5.1,-41.9,-1.29,3.51,1.66,0.01,0.92,0.07,-165.1,652.9,911.0,-0.11,-18.96,2.8,2.91,0.9227133899537819,4.091430067836917,0.10373524628409492,0.25,0,3,2.5
4.756460671000241,271,805.23,98.8,5.4,-42.2,-1.17,3.79,2.08,0.02,0.88,0.15,-157.9,746.3,852.0,-0.32,-21.19,2.71,2.91,0.8929165694509201,4.478772153168768,0.1308614254512176,0.25,0,3,2.5
4.768680418999793,272,805.24,98.7,5.7,-42.5,-0.7,3.75,2.33,0.06,0.89,0.2,-149.9,825.6,845.0,-0.55,-23.53,3.27,2.91,0.9141662868428261,4.4700559280617504,0.10741947389812545,0.25,0,3,2.5
4.776429585999722,273,805.25,98.6,6.0,-42.9,-0.15,3.52,2.49,0.11,0.95,0.21,-141.0,915.7,820.0,-0.8,-25.74,2.92,2.91,0.9791322688993556,4.314278618726426,0.041604422004764,0.25,0,3,2.5
4.788626360001217,274,805.26,98.6,6.3,-43.2,0.27,3.36,2.61,0.15,1.03,0.18,-131.4,977.2,545.0,-1.07,-26.83,1.33,2.91,1.0563143471523995,4.263167836245718,0.034866103123314396,0.25,0,3,2.5
4.796451097001409,275,805.27,98.6,6.6,-43.4,0.69,3.04,2.62,0.2,1.09,0.16,-121.5,992.8,186.0,-1.34,-26.79,1.74,2.91,1.1196874563912915,4.072112473888707,0.09627442811496234,0.25,0,3,2.5
4.808770593999725,276,805.28,98.7,6.9,-43.7,1.09,2.58,2.4,0.21,1.11,0.1,-111.7,966.6,-110.0,-1.6,-26.09,2.05,2.91,1.1341075786714416,3.688427849368888,0.1084806593872103,0.25,0,3,2.5
4.816414509999959,277,805.29,98.8,7.1,-43.9,1.01,2.07,1.95,0.16,1.14,0.02,-102.1,964.8,28.0,-1.86,-26.44,2.29,2.91,1.1513470371699404,3.0178634826645157,0.12320571552799486,0.25,0,3,2.5
4.828762762999759,278,805.3,98.8,7.3,-44.0,0.09,1.33,1.37,0.11,1.15,-0.01,-92.4,974.4,54.0,-2.13,-26.61,2.35,2.91,1.1552921708381823,1.9115177216023922,0.12460783221231209,0.25,0,3,2.5
4.836512785001105,279,805.31,98.7,7.4,-44.1,-0.88,0.99,0.94,0.1,1.07,-0.07,-82.6,978.3,-23.0,-2.39,-26.39,2.27,2.91,1.0769401097554125,1.624222891108237,0.045330655706951495,0.25,0,3,2.5
4.848668007000015,280,805.32,98.5,7.5,-44.2,-1.23,0.93,0.62,0.11,1.02,-0.09,-73.9,957.6,-122.0,-2.65,-25.91,2.59,2.91,1.0298543586352393,1.6619867628835074,0.001719993504957218,0.25,0,3,2.5
4.85646346700014,281,805.33,98.4,7.6,-44.3,-0.64,1.16,0.34,0.11,0.94,-0.11,-63.4,948.3,-67.0,-2.91,-25.77,2.75,2.91,0.9527853903162034,1.3677719108096933,0.07721318258751331,0.25,0,3,0.0
4.868710000000647,282,805.34,98.4,7.6,-44.4,0.0,1.41,0.09,0.12,0.95,-0.14,-54.0,943.8,-8.0,-3.16,-25.8,2.99,2.91,0.9677293009927931,1.412869420717994,0.06102388647270518,0.25,0,3,0.0
4.87644796800123,283,805.35,98.4,7.6,-44.6,0.58,1.56,-0.14,0.13,0.96,-0.17,-44.7,910.1,-623.0,-3.41,-22.97,0.36,0.0,0.9835649444749441,1.6702095676890372,0.04428447813074299,0.25,0,3,0.0
4.8887092340009985,284,805.36,98.4,7.6,-44.8,0.39,1.83,-0.38,0.14,1.0,-0.19,-36.7,752.5,-1250.0,-3.61,-18.64,0.75,0.0,1.0274726273726225,1.9092930628900322,0.00036925932840348175,0.25,0,3,0.0
4.9003709300013725,285,805.37,98.5,7.6,-44.9,0.16,1.95,-0.68,0.15,1.03,-0.18,-30.2,595.8,-1488.0,-3.76,-14.22,0.25,0.0,1.0563143471523995,2.071352215341466,0.027903011242345954,0.25,0,3,0.0
4.908245329999772,286,805.38,98.4,7.6,-45.2,-0.99,2.08,-0.71,0.15,1.02,-0.14,-25.3,449.1,-1396.0,-3.88,-10.6,0.58,0.0,1.0404326023342405,2.4105186163977246,0.01178084109570321,0.25,0,3,0.0
4.918636897000397,287,805.39,98.2,7.5,-45.4,-1.76,2.03,-0.76,0.14,0.94,-0.13,-21.7,321.0,-1306.0,-3.96,-7.21,0.39,0.0,0.959218431849597,2.7921497094532732,0.06804466280116162,0.25,0,3,0.0
4.928548429001239,288,805.4,98.0,7.5,-45.6,-1.82,2.08,-0.85,0.1,0.84,-0.07,-19.5,218.6,-1150.0,-4.01,-4.43,0.2,0.0,0.8488227141164402,2.8915912574221134,0.1748715729236321,0.25,0,3,0.0
4.9386668620009,289,805.41,97.8,7.4,-45.8,-1.38,1.93,-0.94,0.06,0.79,0.0,-17.8,118.9,-910.0,-4.04,-2.34,0.58,0.0,0.7922752047110904,2.5520384009650012,0.22679070068240215,0.25,0,3,0.0
4.948371753000174,290,805.42,97.6,7.3,-46.0,-0.61,1.5,-1.1,0.03,0.74,0.08,-17.2,49.1,-752.0,-4.05,-0.54,0.3,0.0,0.7449161026585477,1.9575750304905302,0.2686668066802459,0.25,0,3,0.0
4.958469324999896,291,805.43,97.6,7.2,-46.1,0.4,0.8,-1.29,0.0,0.72,0.09,-17.1,-6.1,-527.0,-4.05,0.5,0.05,0.0,0.7256031973468694,1.569745202254175,0.28222011775208566,0.25,0,3,0.0
4.96860712400121,292,805.44,97.7,7.1,-46.2,1.21,0.12,-1.42,-0.03,0.75,0.05,-17.3,-23.1,-241.0,-4.04,0.7,0.16,0.0,0.7522632517942106,1.8694651641579203,0.25044886203864947,0.25,0,3,0.0
4.9802300310002465,293,805.45,97.9,7.0,-46.2,1.73,-0.3,-1.46,-0.08,0.77,0.0,-17.5,-26.5,-86.0,-4.04,0.7,0.07,0.0,0.7741446893184761,2.2835279722394466,0.2239960760240962,0.25,0,3,0.0
4.988428582000779,294,805.46,98.1,6.8,-46.2,2.17,-0.97,-1.34,-0.14,0.84,0.02,-17.8,-24.4,-18.0,-4.03,0.64,0.05,0.0,0.851821577561874,2.728626027875568,0.14339280402508436,0.25,0,3,0.0
4.9988756670009025,295,805.47,98.3,6.7,-46.0,2.24,-1.55,-1.15,-0.16,0.91,-0.04,-18.0,-23.9,-1.0,-4.02,0.63,-0.03,0.0,0.924824307639024,2.9567887986800816,0.0689822724689757,0.25,0,3,0.0
5.008283605000543,296,805.48,98.5,6.6,-45.9,1.85,-2.16,-0.81,-0.14,0.96,-0.1,-18.3,-26.6,-41.0,-4.02,0.83,0.13,0.0,0.9752948272189287,2.957059350097661,0.01814151783128959,0.25,0,3,0.0
5.018779156000164,297,805.49,98.7,6.5,-45.6,1.14,-2.52,-0.42,-0.1,1.01,-0.17,-18.6,-36.1,-94.0,-4.01,1.16,0.07,0.0,1.0290772565750348,2.7975703744499443,0.03492809329432023,0.25,0,3,0.0
5.0283969179999985,298,805.5,98.8,6.4,-45.4,0.06,-2.83,-0.09,-0.06,1.02,-0.22,-19.1,-57.8,-205.0,-3.99,1.92,0.02,0.0,1.0451794104363137,2.832066383402762,0.05000964221248716,0.25,0,3,0.0
5.036463664000621,299,805.51,98.8,6.4,-45.1,-1.1,-2.9,0.15,0.0,1.03,-0.24,-19.9,-88.6,-290.0,-3.96,2.83,0.22,0.0,1.0575916035975323,3.105237511044848,0.061173398666231726,0.25,0,3,0.0
5.0487613799996325,300,805.52,98.6,6.3,-44.8,-2.38,-2.79,0.37,0.05,1.01,-0.27,-21.0,-125.6,-352.0,-3.93,3.9,0.21,0.0,1.0466613587975817,3.6858377609439077,0.049238290788955474,0.25,0,3,0.0
5.058830081999986,301,805.53,98.4,6.3,-44.5,-3.25,-2.51,0.58,0.1,0.97,-0.27,-22.6,-169.4,-425.0,-3.88,5.18,0.2,0.0,1.011830025251277,4.147167708207615,0.014118818097797803,0.25,0,3,0.0
5.068439134000073,302,805.54,98.1,6.4,-44.3,-3.52,-2.14,0.79,0.15,0.91,-0.27,-24.6,-216.9,-465.0,-3.82,6.51,0.17,0.0,0.9609890738192605,4.194532155079991,0.03598769066753438,0.25,0,3,0.0
5.0788025700003345,303,805.55,97.8,6.4,-44.1,-3.17,-1.68,0.89,0.19,0.84,-0.29,-27.1,-265.0,-463.0,-3.75,7.76,0.16,0.0,0.9087353850269064,3.6964036576110026,0.0864765518706907,0.25,0,3,0.0
5.08858573300131,304,805.56,97.5,6.5,-43.9,-2.33,-1.23,0.96,0.23,0.79,-0.29,-30.1,-312.2,-481.0,-3.66,9.1,0.32,0.0,0.8724104538575864,2.8041754581338165,0.12034545337921054,0.25,0,3,0.0
5.098842651999803,305,805.57,97.3,6.6,-43.8,-1.24,-0.65,0.93,0.23,0.79,-0.29,-33.6,-363.5,-497.0,-3.56,10.47,0.24,0.0,0.8724104538575864,1.680773631397161,0.11793854431162631,0.25,0,3,0.0
5.108552159999817,306,805.58,97.3,6.7,-43.8,-0.38,-0.15,0.8,0.22,0.82,-0.26,-37.5,-407.8,-436.0,-3.45,11.57,0.14,0.0,0.8879189152169245,0.8982761268117951,0.10038148129324254,0.25,0,3,0.0
5.118833152000661,307,805.59,97.3,6.8,-43.8,0.06,0.16,0.66,0.2,0.88,-0.21,-41.9,-448.7,-420.0,-3.32,12.68,-0.11,0.0,0.9265527507918802,0.6817624219623725,0.06051269280392113,0.25,0,3,0.0
5.128548687000148,308,805.6,97.3,6.8,-43.8,0.14,0.3,0.5,0.17,0.92,-0.19,-46.6,-486.3,-387.0,-3.19,13.69,0.13,0.0,0.9546727187890099,0.599666574022598,0.03174487031065554,0.25,0,3,0.0
5.138777592999759,309,805.61,97.3,6.9,-43.8,0.22,0.35,0.25,0.14,0.94,-0.19,-51.8,-524.5,-348.0,-3.04,14.55,0.28,0.0,0.9691749068150701,0.4831148931672465,0.016897828638903434,0.25,0,3,0.0
5.148572472000524,310,805.62,97.4,6.9,-43.8,0.37,0.39,-0.08,0.12,0.98,-0.21,-57.1,-541.1,-223.0,-2.9,14.97,0.0,0.0,1.0094057657849989,0.5435071296680477,0.02286636972440481,0.25,0,3,0.0
5.158855425001093,311,805.63,97.5,6.9,-43.9,0.37,0.55,-0.34,0.11,1.02,-0.25,-62.7,-563.0,-192.0,-2.74,15.43,-0.16,0.0,1.0559356040971437,0.744983221287567,0.0680082838758187,0.25,0,3,0.0
5.168430145000457,312,805.64,97.6,6.8,-44.0,0.21,0.75,-0.52,0.1,1.03,-0.24,-68.4,-576.1,-174.0,-2.59,15.89,0.0,0.0,1.0623088063270492,0.9364827814754524,0.07289385638360968,0.25,0,3,0.0
5.178731517000415,313,805.65,97.6,6.8,-44.0,-0.03,0.92,-0.67,0.09,1.04,-0.24,-74.3,-584.2,-45.0,-2.43,15.79,0.09,0.0,1.0711209082078457,1.1385077953180647,0.08007183909911808,0.25,0,3,0.0
5.188511837000988,314,805.66,97.7,6.7,-44.1,-0.17,1.05,-0.72,0.08,1.03,-0.23,-80.1,-581.9,-13.0,-2.27,15.8,0.04,0.0,1.0583950113261116,1.284445405612866,0.06599902337303631,0.25,0,3,0.0
5.198524786999769,315,805.67,97.6,6.6,-44.3,-0.2,1.16,-0.65,0.05,1.01,-0.23,-85.9,-584.5,-47.0,-2.11,15.99,0.1,0.0,1.0370631610466163,1.3446560898608981,0.0437738296316702,0.25,0,3,0.0
5.2083737250013655,316,805.68,97.6,6.6,-44.4,0.14,1.11,-0.54,0.01,0.98,-0.22,-91.8,-579.9,98.0,-1.95,15.47,0.03,0.0,1.0044401425669924,1.2422962609619335,0.010927794929005419,0.25,0,3,0.0
5.218697723001242,317,805.69,97.7,6.6,-44.5,0.56,0.75,-0.4,-0.01,0.98,-0.2,-97.4,-567.3,76.0,-1.8,15.32,0.0,0.0,1.0002499687578101,1.0178899744078436,0.006602868697426656,0.25,0,3,0.0
5.228976968999632,318,805.7,97.7,6.5,-44.5,0.73,0.1,-0.22,-0.03,0.98,-0.19,-103.0,-552.3,144.0,-1.65,14.83,-0.22,0.0,0.9986991538997116,0.7689603370785778,0.004951012762541618,0.25,0,3,0.0
5.23873140500109,319,805.71,97.8,6.5,-44.5,0.77,-0.64,-0.08,-0.03,0.96,-0.21,-108.5,-538.6,159.0,-1.5,14.35,-0.14,0.0,0.9831581764904364,1.0044401425669924,0.010378165353798985,0.25,0,3,0.0
5.2492125570006465,320,805.72,97.9,6.5,-44.4,0.79,-1.38,0.02,-0.04,0.96,-0.21,-113.7,-513.1,217.0,-1.36,13.68,-0.03,0.0,0.9835141076771599,1.5902515524281056,0.009821789483734022,0.25,0,3,0.0
5.25880204600071,321,805.73,98.0,6.5,-44.2,0.81,-2.04,0.11,-0.05,0.95,-0.24,-118.6,-490.2,229.0,-1.23,13.04,-0.18,0.0,0.9811218069128828,2.1976805955370313,0.011969808443050955,0.25,0,3,0.0
5.268492045999665,322,805.74,98.1,6.5,-44.0,0.88,-2.49,0.09,-0.04,0.93,-0.25,-123.4,-470.6,194.0,-1.1,12.57,0.06,0.0,0.9638464608017193,2.6424609741678307,0.028660251463130115,0.25,0,3,0.0
5.278868425000837,323,805.75,98.2,6.4,-43.7,1.39,-2.79,-0.17,0.0,0.92,-0.29,-127.9,-443.8,302.0,-0.99,11.56,0.03,0.0,0.9646242791885347,3.121714272639314,0.027324784414788472,0.25,0,3,0.0
5.288551281000764,324,805.76,98.4,6.4,-43.4,1.88,-2.73,-0.35,0.04,0.99,-0.31,-132.1,-408.4,301.0,-0.88,10.77,-0.12,0.0,1.0381714694596458,3.3331366608646578,0.045297957739196204,0.25,0,3,0.0
5.298755106001408,325,805.77,98.7,6.3,-43.2,1.78,-2.57,-0.31,0.08,1.08,-0.32,-136.0,-376.0,353.0,-0.77,9.7,-0.19,0.0,1.1292475370794484,3.1415601219776135,0.13364654485181882,0.25,0,3,0.0
5.3085691910000605,326,805.78,98.9,6.2,-42.9,1.3,-2.32,-0.05,0.15,1.12,-0.29,-139.5,-331.3,415.0,-0.69,8.48,-0.31,0.0,1.1666190466471908,2.6598684177981435,0.16759769333117003,0.25,0,3,0.0
5.31859682600043,327,805.79,99.1,6.2,-42.7,1.26,-2.17,0.14,0.22,1.13,-0.21,-142.5,-289.2,415.0,-0.61,7.34,-0.31,0.0,1.1702136557056577,2.5131852299422737,0.16776845634184423,0.25,0,3,0.0
5.328670161001355,328,805.8,99.2,6.3,-42.5,1.01,-2.04,0.21,0.28,1.13,-0.15,-145.1,-245.4,445.0,-0.54,6.08,0.0,0.0,1.1737972567696688,2.286000874890471,0.16792501625773815,0.25,0,3,0.0
5.338435546000255,329,805.81,99.3,6.2,-42.3,0.43,-1.98,0.16,0.28,1.1,-0.04,-147.2,-196.6,482.0,-0.49,4.71,-0.09,0.0,1.1357816691600549,2.032461561752153,0.1273112400751617,0.25,0,3,0.0
5.348734393999621,330,805.82,99.3,6.2,-42.1,0.15,-2.06,-0.07,0.29,1.05,0.05,-148.8,-146.7,486.0,-0.46,3.41,-0.3,0.0,1.0904586191139947,2.066639784771405,0.08034842622851945,0.25,0,3,0.0
5.358679992001271,331,805.83,99.4,6.2,-41.9,0.3,-2.04,-0.54,0.28,1.0,0.13,-149.9,-98.1,482.0,-0.43,2.09,-0.22,0.0,1.0465658125507444,2.131478360199793,0.035726507271963914,0.25,0,3,0.0
5.368428379000761,332,805.84,99.4,6.0,-41.7,0.5,-2.07,-1.14,0.25,0.98,0.16,-150.6,-50.4,474.0,-0.42,0.8,-0.13,0.0,1.0239628899525608,2.41547096856907,0.012861112980304679,0.25,0,3,0.0
5.37875977800104,333,805.85,99.5,5.9,-41.5,0.43,-1.95,-1.69,0.21,0.99,0.11,-150.8,-1.7,468.0,-0.42,-0.47,-0.2,0.0,1.017988212112498,2.616008409772415,0.006748706437436969,0.25,0,3,0.0
5.38844386799974,334,805.86,99.6,5.6,-41.4,0.0,-1.57,-2.01,0.15,1.03,0.06,-150.5,30.6,318.0,-0.43,-1.08,0.02,0.0,1.0425929215182692,2.5504901489713694,0.030726347526344178,0.25,0,3,0.0
5.398766386000716,335,805.87,99.5,5.4,-41.3,-0.34,-1.2,-2.08,0.07,1.02,0.05,-150.1,52.2,257.0,-0.44,-1.7,0.11,0.0,1.0236210236215353,2.425283488584376,0.011519360637018083,0.25,0,3,0.0
5.408415548999983,336,805.88,99.5,5.2,-41.2,-0.35,-1.15,-1.92,0.0,1.03,0.09,-149.4,75.4,239.0,-0.47,-2.32,-0.21,0.0,1.0339245620450266,2.2652593670482855,0.021386441079299212,0.25,0,3,0.0
5.418696662000002,337,805.89,99.5,5.0,-41.1,0.1,-1.42,-1.66,-0.03,1.03,0.1,-148.5,97.1,223.0,-0.49,-2.89,-0.18,0.0,1.0352777405121776,2.186778452427223,0.02228482715552116,0.25,0,3,0.0
5.428208131001156,338,805.9,99.6,4.8,-41.0,0.63,-1.88,-1.41,-0.07,1.09,0.12,-147.4,116.6,190.0,-0.53,-3.36,-0.15,0.0,1.0988175462741756,2.432981709754514,0.0841081402591688,0.25,0,3,0.0
5.438799423000091,339,805.91,99.7,4.7,-40.8,0.83,-2.49,-1.15,-0.07,1.18,0.11,-146.1,132.1,162.0,-0.56,-3.77,0.06,0.0,1.1871815362445626,2.865571496228981,0.16902268762496475,0.25,0,3,0.0
5.448440129999653,340,805.92,99.8,4.5,-40.5,0.67,-3.05,-0.8,-0.05,1.25,0.05,-144.7,143.5,112.0,-0.6,-3.98,-0.14,0.0,1.2519984025548914,3.2235694501592485,0.22916276285658777,0.25,0,3,0.0
5.458973238000908,341,805.93,99.8,4.4,-40.2,0.16,-3.45,-0.44,-0.02,1.26,-0.03,-143.2,147.2,45.0,-0.64,-4.01,0.0,0.0,1.2605157674539418,3.4816231846654517,0.23292652520052548,0.25,0,3,0.0
5.46841790200051,342,805.94,99.8,4.3,-39.9,-0.2,-3.66,-0.04,0.02,1.3,-0.07,-141.8,142.7,-42.0,-0.68,-3.72,0.09,0.0,1.302036865837523,3.6656786547650357,0.26895867111242455,0.25,0,4,0.0
5.478774645000158,343,805.95,99.8,4.3,-39.5,-0.68,-3.76,0.25,0.05,1.25,-0.13,-140.5,124.6,-164.0,-0.71,-3.07,0.17,0.0,1.2577360613419653,3.8291643997091582,0.22016470928452958,0.25,0,4,0.0
5.488415633000841,344,805.96,99.7,4.2,-39.1,-1.4,-3.68,0.38,0.06,1.18,-0.14,-139.4,92.9,-297.0,-0.74,-2.03,0.11,0.0,1.1897898974188679,3.9556036201823863,0.14917417445420345,0.25,0,4,0.0
5.496470457999749,345,805.97,99.5,4.2,-38.7,-2.15,-3.75,0.38,0.07,1.1,-0.11,-138.8,49.1,-411.0,-0.75,-0.74,0.19,0.0,1.1077003204838392,4.3392856554967665,0.06574290556879125,0.25,0,4,0.0
5.508986609000203,346,805.98,99.2,4.1,-38.4,-2.98,-3.89,0.35,0.08,1.03,-0.12,-138.6,0.5,-434.0,-0.75,0.45,-0.03,0.0,1.0400480758118829,4.91273854382665,0.0018711523211016878,0.25,0,4,0.0
5.518850829999792,347,805.99,98.9,4.1,-38.0,-3.54,-3.85,0.42,0.09,0.95,-0.15,-138.9,-29.8,-305.0,-0.74,1.08,0.12,0.0,0.9659710140578753,5.2469514958688155,0.0744292497936071,0.25,0,4,0.0
5.528423034000298,348,806.0,98.9,4.1,-38.0,-3.54,-3.85,0.42,0.09,0.95,-0.15,-139.1,-42.7,-335.0,-0.72,1.79,-0.01,0.0,0.9659710140578753,5.2469514958688155,0.07294066479773498,0.25,0,4,0.0
5.536451310999837,349,806.01,98.3,4.2,-37.2,-2.93,-3.21,0.67,0.14,0.85,-0.15,-140.0,-81.2,-340.0,-0.7,2.57,0.02,0.0,0.8744140895479668,4.39748791925572,0.1612076375214906,0.25,0,4,0.0
5.548698499000238,350,806.02,98.1,4.2,-36.9,-2.32,-2.6,0.73,0.17,0.83,-0.15,-141.1,-109.4,-303.0,-0.67,3.33,0.05,0.0,0.8604068804931769,3.5602387560387014,0.17171054964475496,0.25,0,4,0.0
5.558655087001171,351,806.03,97.9,4.3,-36.7,-1.68,-2.04,0.76,0.22,0.85,-0.16,-142.3,-137.9,-288.0,-0.63,4.08,0.1,0.0,0.8924684868386109,2.749836358767554,0.1368559644333346,0.25,0,4,0.0
5.568640391000372,352,806.04,97.8,4.3,-36.5,-1.28,-1.3,0.82,0.27,0.89,-0.21,-143.9,-162.7,-244.0,-0.58,4.67,0.1,0.0,0.9534673565466203,2.0001999900009997,0.07433995283081862,0.25,0,4,0.0
5.576388024999687,353,806.05,97.7,4.4,-36.4,-1.27,-0.38,0.93,0.3,0.89,-0.25,-145.7,-180.7,-184.0,-0.53,5.08,0.06,0.0,0.9719053451854249,1.6193208452928654,0.05478392490817363,0.25,0,4,0.0
5.588645265001105,354,806.06,97.5,4.5,-36.4,-1.37,0.62,1.07,0.3,0.85,-0.26,-147.6,-192.3,-130.0,-0.48,5.34,0.05,0.0,0.9381364506296511,1.845589336770236,0.08678176307466845,0.25,0,4,0.0
5.596444427999813,355,806.07,97.4,4.6,-36.5,-1.15,1.53,1.12,0.27,0.79,-0.21,-149.5,-199.8,-87.0,-0.43,5.5,0.16,0.0,0.8608716512930369,2.217611327532397,0.1607656311630571,0.25,0,4,0.0
5.608805445999678,356,806.08,97.3,4.8,-36.7,-0.67,2.13,1.09,0.24,0.77,-0.15,-151.6,-205.1,-60.0,-0.37,5.63,0.0,0.0,0.8203657720797474,2.4847333861000056,0.19724608016881973,0.25,0,4,0.0
5.620233835001272,357,806.09,97.2,4.9,-36.9,-0.18,2.44,1.02,0.19,0.8,-0.11,-153.6,-206.1,-12.0,-0.31,5.57,-0.07,0.0,0.8295782060782456,2.6507357469200885,0.18427297324691494,0.25,0,4,0.0
5.628400804000194,358,806.1,97.2,5.1,-37.2,0.11,2.54,0.86,0.15,0.8,-0.1,-155.7,-204.0,10.0,-0.26,5.5,-0.15,0.0,0.8200609733428363,2.6838964212502687,0.18991440186267772,0.25,0,4,0.0
5.6364343100012775,359,806.11,97.2,5.2,-37.4,0.03,2.47,0.67,0.09,0.84,-0.07,-157.7,-200.9,25.0,-0.2,5.42,-0.06,0.0,0.8477027781009095,2.55943353107675,0.15902714516251237,0.25,0,4,0.0
5.648702653999862,360,806.12,97.1,5.3,-37.6,-0.39,2.24,0.54,0.05,0.86,-0.09,-159.7,-197.1,40.0,-0.15,5.28,0.15,0.0,0.8661408661412991,2.3369424468736923,0.13777727597968037,0.25,0,4,0.0
5.658992016000411,361,806.13,97.0,5.3,-37.8,-0.76,1.91,0.41,0.02,0.85,-0.11,-161.6,-191.5,54.0,-0.1,5.12,0.02,0.0,0.8573214099741122,2.0961393083476105,0.14366479750393002,0.25,0,4,0.0
5.668449120999867,362,806.14,96.9,5.3,-38.0,-0.87,1.49,0.33,0.0,0.83,-0.11,-163.5,-184.4,71.0,-0.05,4.89,0.06,0.0,0.8372574275573791,1.756672991765969,0.16045420432224988,0.25,0,4,0.0
5.678654393001125,363,806.15,96.9,5.3,-38.1,-0.73,0.9,0.24,0.0,0.8,-0.12,-165.3,-176.3,71.0,0.0,4.71,0.0,0.0,0.8089499366462675,1.183427226321923,0.18498646132869423,0.25,0,4,0.0
5.688553003999914,364,806.16,96.8,5.3,-38.2,-0.39,0.47,0.08,0.02,0.77,-0.16,-167.0,-171.0,58.0,0.03,4.58,0.02,0.0,0.7867019766086774,0.6159545437773798,0.2030897329389586,0.25,0,4,0.0
5.698818422000841,365,806.17,96.8,5.3,-38.2,-0.32,0.23,-0.07,0.04,0.76,-0.22,-168.7,-165.7,48.0,0.08,4.46,-0.31,0.0,0.7922120928135344,0.40024992192379,0.1936280243994195,0.25,0,4,0.0
5.708447303000867,366,806.18,96.7,5.3,-38.2,-0.23,0.19,-0.16,0.07,0.75,-0.27,-170.3,-161.1,48.0,0.12,4.31,0.05,0.0,0.800187478032492,0.33852621759621515,0.1819395863968527,0.25,0,4,0.0
5.720360651001101,367,806.19,96.7,5.3,-38.3,0.24,0.29,-0.15,0.12,0.75,-0.3,-171.9,-156.6,48.0,0.17,4.18,0.0,0.0,0.816639455328972,0.40521599178709616,0.16217785691836528,0.25,0,4,0.0
5.728436507000879,368,806.2,96.8,5.3,-38.3,1.03,0.48,-0.11,0.15,0.76,-0.33,-173.4,-151.5,48.0,0.21,4.05,0.11,0.0,0.8420213774008354,1.1416654501210062,0.13406001614957186,0.25,0,4,0.0
5.738893222000115,369,806.21,96.9,5.3,-38.4,1.63,0.83,-0.18,0.17,0.79,-0.34,-174.9,-147.2,50.0,0.25,3.92,0.02,0.0,0.8766983517721475,1.8379880304289251,0.09739538094269451,0.25,0,4,0.0
5.748359834000439,370,806.22,97.1,5.3,-38.5,1.8,1.21,-0.35,0.19,0.84,-0.33,-176.3,-141.2,52.0,0.28,3.78,-0.11,0.0,0.9222797840135063,2.196952434623927,0.050777669727309016,0.25,0,4,0.0
5.756465039001341,371,806.23,97.3,5.3,-38.6,1.74,1.61,-0.58,0.19,0.88,-0.34,-177.7,-135.9,57.0,0.32,3.62,0.01,0.0,0.9623408959407265,2.4405122413132863,0.010502226644087065,0.25,0,4,0.0
5.768825349001418,372,806.24,97.4,5.2,-38.8,1.69,2.0,-0.8,0.18,0.95,-0.32,-179.0,-127.5,81.0,0.36,3.34,-0.1,0.0,1.018479258502597,2.737900655611887,0.04472341319942785,0.25,0,4,0.0
5.778678317001322,373,806.25,97.6,5.2,-39.0,1.68,2.28,-0.92,0.16,1.04,-0.3,-180.2,-116.7,106.0,0.39,3.02,0.05,0.0,1.0941663493271945,2.97778441126956,0.11800229394354478,0.25,0,4,0.0
5.789136037001299,374,806.26,97.7,5.1,-39.3,1.21,2.41,-0.89,0.1,1.09,-0.26,-181.3,-103.5,124.0,0.41,2.65,-0.08,0.0,1.125033332839521,2.839771117537468,0.1458918919067539,0.25,0,4,0.0
5.7964698699997825,375,806.27,97.8,5.0,-39.5,0.49,2.32,-0.82,0.04,1.05,-0.26,-182.2,-89.9,133.0,0.44,2.27,-0.1,0.0,1.0824509226750192,2.508963929593249,0.10124329210740701,0.25,0,4,0.0
5.808695863001049,376,806.28,97.8,5.0,-39.8,0.14,1.98,-0.69,0.0,1.0,-0.26,-183.0,-74.7,149.0,0.46,1.83,0.0,0.0,1.0332473082471592,2.1014518790588568,0.05099888412595599,0.25,0,4,0.0
5.818717242000275,377,806.29,97.8,5.0,-39.9,0.71,1.49,-0.48,-0.03,1.04,-0.22,-183.7,-58.0,159.0,0.47,1.38,-0.14,0.0,1.063437821407533,1.7188949938841522,0.0795656093406033,0.25,0,4,0.0
5.828401910999673,378,806.3,98.0,4.9,-40.1,1.44,0.92,-0.24,-0.06,1.06,-0.19,-184.1,-43.0,147.0,0.48,1.01,0.07,0.0,1.078563859954523,1.7255723688098392,0.0927978149298414,0.25,0,4,0.0
5.836435158000313,379,806.31,98.1,4.9,-40.1,2.2,0.73,-0.23,-0.03,1.15,-0.23,-184.5,-31.0,132.0,0.49,0.67,0.06,0.0,1.1731581308587515,2.3293346689559233,0.18364424411738844,0.25,0,4,0.0
5.848835265000162,380,806.32,98.4,4.9,-40.2,2.51,0.89,-0.25,-0.01,1.31,-0.22,-184.7,-17.7,138.0,0.5,0.28,0.05,0.0,1.3283824750424857,2.6748270972158177,0.3320912165351002,0.25,0,4,0.0
5.858849394000572,381,806.33,98.6,4.8,-40.3,2.1,1.07,-0.14,0.01,1.43,-0.15,-184.8,-1.8,143.0,0.5,-0.09,0.07,0.0,1.4378803844548405,2.3610379073619296,0.4327573434285059,0.25,0,4,0.0
5.868434257999979,382,806.34,98.7,4.8,-40.4,0.92,0.92,0.07,0.08,1.45,-0.06,-184.7,4.7,60.0,0.49,-0.11,0.04,0.0,1.4534441853748634,1.3029581727745523,0.4393547214615583,0.25,0,4,0.0
5.87870817700059,383,806.35,98.7,4.9,-40.5,-0.4,0.6,0.25,0.15,1.29,0.0,-184.7,5.3,32.0,0.49,-0.16,0.03,0.0,1.2986916493148017,0.7632168761236874,0.27891014169346673,0.25,0,4,0.0
5.88847196900133,384,806.36,98.6,4.9,-40.6,-1.04,0.4,0.36,0.19,1.13,0.05,-184.6,6.4,13.0,0.49,-0.18,0.12,0.0,1.1469524837585905,1.1709824934643558,0.1246275566145103,0.25,0,4,0.0
5.898733384001389,385,806.37,98.5,4.9,-40.6,-0.95,0.36,0.56,0.17,1.03,0.1,-184.5,8.8,40.0,0.49,-0.34,-0.1,0.0,1.0487134975769121,1.1600431026474836,0.025860799024175263,0.25,0,4,0.0
5.908858347000205,386,806.38,98.4,5.0,-40.6,-0.26,0.58,0.84,0.12,0.95,0.1,-184.4,19.3,88.0,0.48,-0.65,-0.1,0.0,0.9627564593395361,1.0533755265810953,0.05889431442893667,0.25,0,4,0.0
5.91867096399983,387,806.39,98.4,5.1,-40.7,0.51,1.07,1.12,0.07,0.9,0.14,-184.1,30.0,110.0,0.47,-1.0,-0.14,0.0,0.9135097153287425,1.6307666908543357,0.1059782372709358,0.25,0,4,0.0
5.9286774060001335,388,806.4,98.5,5.3,-40.8,1.13,1.36,1.33,0.05,0.86,0.21,-183.7,47.1,160.0,0.46,-1.52,0.03,0.0,0.8866791979064356,2.212555084060056,0.13015257959937776,0.25,0,4,0.0
5.938648647001173,389,806.41,98.6,5.4,-40.9,1.53,1.41,1.5,0.09,0.88,0.21,-183.1,67.6,198.0,0.44,-2.11,-0.04,0.0,0.9091754506144565,2.5649561399758865,0.10550320035352967,0.25,0,4,0.0
5.948974684000859,390,806.42,98.8,5.6,-41.0,1.71,1.31,1.8,0.15,0.93,0.18,-182.2,90.9,228.0,0.42,-2.77,-0.11,0.0,0.9590620417887469,2.8071693928225994,0.05450427699565441,0.25,0,4,0.0
5.958812168000804,391,806.43,98.9,5.8,-41.1,1.98,1.15,2.13,0.2,0.98,0.12,-181.2,114.1,227.0,0.38,-3.39,-0.02,0.0,1.0073728207570423,3.1272671775849274,0.006069628066811772,0.25,0,4,0.0
5.968377279999913,392,806.44,99.2,6.1,-41.2,2.45,1.04,2.35,0.23,1.03,0.06,-179.9,137.0,237.0,0.35,-4.04,-0.1,0.0,1.057071426158138,3.5505774178293876,0.04275639778759821,0.25,0,4,0.0
5.976449253001192,393,806.45,99.4,6.3,-41.2,3.08,0.9,2.33,0.24,1.09,0.0,-178.3,160.8,230.0,0.3,-4.64,-0.37,0.0,1.1161093136427096,3.965513838079499,0.09975839956672639,0.25,0,4,0.0
5.989306129000397,394,806.46,99.8,6.6,-41.3,3.58,0.87,1.95,0.21,1.15,-0.04,-176.6,183.0,227.0,0.25,-5.26,-0.1,0.0,1.169700816448377,4.168428960651722,0.15028290432494606,0.25,0,4,0.0
5.998663903999841,395,806.47,100.1,6.7,-41.4,3.57,0.82,1.16,0.16,1.19,-0.09,-174.6,206.5,238.0,0.19,-5.92,0.04,0.0,1.204076409535541,3.842251943847514,0.18096532746386784,0.25,0,4,0.0
6.008829324000544,396,806.48,100.4,6.8,-41.4,2.54,0.65,0.25,0.11,1.25,-0.13,-172.3,230.2,233.0,0.13,-6.54,-0.17,0.0,1.2615466697669175,2.6337425842325595,0.2336668759413396,0.25,0,4,0.0
6.016460857001221,397,806.49,100.5,6.8,-41.5,0.57,0.6,-0.39,0.07,1.26,-0.19,-169.9,252.6,223.0,0.06,-7.14,0.04,0.0,1.2761661333854617,0.9148770409186143,0.243320612768686,0.25,0,4,0.0
6.028996371000176,398,806.5,100.4,6.7,-41.6,-0.88,0.76,-0.68,0.07,1.16,-0.19,-167.2,273.8,216.0,0.0,-7.71,0.31,0.0,1.1775398082442903,1.3469966592386189,0.14180040187496434,0.25,0,4,0.0
6.038703162001184,399,806.51,100.3,6.6,-41.7,-0.84,0.95,-0.79,0.07,1.02,-0.17,-164.3,298.8,256.0,-0.09,-8.48,-0.07,0.0,1.036436201606254,1.4940548852033515,0.0006828593321894783,0.25,0,4,0.0
6.0483708570009185,400,806.52,100.3,6.5,-41.8,0.3,1.2,-0.87,0.09,0.92,-0.16,-161.1,325.8,249.0,-0.18,-9.14,-0.02,0.0,0.9381364506296512,1.5122499793354272,0.09566455381152505,0.25,0,4,0.0
6.05643855299968,401,806.53,100.3,6.5,-41.9,1.77,1.41,-0.95,0.11,0.88,-0.14,-157.7,347.7,230.0,-0.27,-9.73,-0.06,0.0,0.8978307190111062,2.4542819723902958,0.13325087972146876,0.25,0,4,0.0
6.068802351999693,402,806.54,100.6,6.4,-42.1,2.88,1.48,-1.0,0.1,0.88,-0.12,-154.1,370.2,227.0,-0.37,-10.34,0.16,0.0,0.8937561188601731,3.3889231327960214,0.1345789702749539,0.25,0,4,0.0
6.078810297000018,403,806.55,100.8,6.3,-42.3,3.39,1.34,-0.98,0.08,0.91,-0.12,-150.2,394.5,236.0,-0.48,-11.01,-0.17,0.0,0.9213576938409967,3.7746655480982683,0.10483784738824775,0.25,0,4,0.0
6.088473157000408,404,806.56,101.1,6.2,-42.4,3.35,1.17,-0.97,0.06,0.93,-0.16,-146.1,422.1,293.0,-0.6,-11.9,0.0,0.0,0.9455686120002081,3.678627461431777,0.0790143906444557,0.25,0,4,0.0
6.098788467001214,405,806.57,101.4,6.1,-42.5,2.85,1.02,-0.98,0.04,0.93,-0.18,-141.7,450.5,243.0,-0.72,-12.46,0.31,0.0,0.9481033698917013,3.1817133748972424,0.0749500400979034,0.25,0,4,0.0
6.108445952000693,406,806.58,101.7,6.0,-42.7,2.15,0.81,-1.01,0.02,0.92,-0.18,-137.0,472.8,261.0,-0.85,-13.22,0.0,0.0,0.9376566535784834,2.5097211000427917,0.083688821282899,0.25,0,4,0.0
6.118769712000358,407,806.59,101.8,5.9,-42.7,1.39,0.6,-1.11,0.0,0.89,-0.16,-132.1,495.9,187.0,-0.99,-13.59,-0.11,0.0,0.904267659490264,1.8772852740060577,0.11473625906369611,0.25,0,4,0.0
6.128459630999714,408,806.6,101.9,5.8,-42.8,0.72,0.37,-1.25,-0.03,0.87,-0.13,-127.0,513.8,241.0,-1.13,-14.36,0.06,0.0,0.8801704380402696,1.4892279879185726,0.1360568109034167,0.25,0,4,0.0
6.138843315000486,409,806.61,101.9,5.6,-42.9,0.16,0.13,-1.33,-0.04,0.89,-0.11,-121.8,534.4,157.0,-1.27,-14.61,-0.08,0.0,0.8976636341080104,1.3458826100369974,0.11619234253896238,0.25,0,4,0.0
6.14845676799996,410,806.62,101.9,5.5,-42.9,-0.2,-0.16,-1.27,-0.04,0.89,-0.1,-116.3,544.2,134.0,-1.42,-14.94,0.05,0.0,0.8964931678490361,1.295569372901351,0.11501555262197793,0.25,0,4,0.0
6.156455510999876,411,806.63,101.9,5.4,-42.9,-0.3,-0.4,-1.13,-0.02,0.89,-0.11,-110.8,558.4,162.0,-1.57,-15.44,-0.06,0.0,0.8969949832635632,1.2356779515715248,0.11222346246330173,0.25,0,4,0.0
6.168806432000565,412,806.64,101.9,5.3,-42.9,-0.34,-0.52,-0.93,0.0,0.9,-0.13,-105.0,573.1,81.0,-1.73,-15.5,0.01,0.0,0.9093404203047394,1.118436408563312,0.09788046491368296,0.25,0,4,0.0
6.178826356001082,413,806.65,101.8,5.2,-42.8,-0.43,-0.56,-0.72,0.01,0.93,-0.14,-99.9,572.9,65.0,-1.89,-15.7,0.04,0.0,0.9405317644821998,1.0084145972763385,0.0653553383214982,0.25,0,4,0.0
6.1883216590013035,414,806.66,101.7,5.1,-42.8,-0.67,-0.52,-0.52,0.04,0.95,-0.15,-93.6,570.1,-44.0,-2.04,-15.39,-0.01,0.0,0.9626006440887104,0.994836670011716,0.042420729540687874,0.25,0,4,0.0
6.19869218399981,415,806.67,101.6,5.0,-42.7,-0.92,-0.43,-0.38,0.08,0.96,-0.15,-87.9,574.0,32.0,-2.2,-15.62,0.04,0.0,0.9749358953285082,1.0842970072816767,0.02948376873487224,0.25,0,4,0.0
6.208824751000066,416,806.68,101.5,5.0,-42.7,-1.26,-0.27,-0.28,0.1,0.95,-0.17,-82.2,567.5,-56.0,-2.35,-15.32,-0.01,0.0,0.9702576977277738,1.3186735759845953,0.03347872700889443,0.25,0,4,0.0
6.218795230000978,417,806.69,101.4,5.0,-42.7,-1.59,0.0,-0.16,0.09,0.92,-0.17,-76.5,560.2,-64.0,-2.5,-15.14,-0.03,0.0,0.9398936110007345,1.5980300372646317,0.06256595746121496,0.25,0,4,0.0
6.232381870000609,418,806.7,101.2,5.0,-42.7,-1.8,0.22,-0.02,0.1,0.87,-0.14,-70.9,559.2,-30.0,-2.66,-15.12,-0.01,0.0,0.8868483523128404,1.8135048938450649,0.1132989918261268,0.25,0,4,0.0
6.240458460000809,419,806.71,101.0,5.0,-42.8,-1.42,0.37,0.07,0.08,0.81,-0.12,-65.4,533.7,-284.0,-2.8,-13.93,-0.06,0.0,0.8227393268830657,1.4690813456034353,0.17385985691078343,0.25,0,4,0.0
6.248431902000448,420,806.72,100.8,5.0,-42.8,-1.09,0.42,0.2,0.01,0.83,-0.13,-60.7,465.4,-743.0,-2.92,-11.1,0.6,0.0,0.8401785524517987,1.1851160280748885,0.15329221871520937,0.25,0,4,0.0
6.258731506000913,421,806.73,100.7,5.0,-42.8,-1.67,0.29,0.57,-0.06,0.89,-0.14,-56.9,313.0,-1371.0,-3.0,-6.37,0.64,0.0,0.9029396436085858,1.7882673178247148,0.08872050500725381,0.25,0,4,0.0
6.268439737001245,422,806.74,100.5,5.1,-42.8,-1.97,-0.21,0.78,-0.1,0.93,-0.11,-55.0,131.9,-1633.0,-3.03,-1.51,0.74,0.0,0.9418067742376883,2.1291782452392285,0.048856306890588286,0.25,0,4,0.0
6.278881017000458,423,806.75,100.4,5.1,-42.7,-1.16,-1.35,0.52,-0.07,1.0,-0.13,-54.8,-20.6,-1367.0,-3.02,1.75,0.33,0.0,1.0108412338245802,1.8543192821086665,0.01977458964237755,0.25,0,4,0.0
6.2883503530010785,424,806.76,100.2,5.2,-42.5,-2.21,-2.35,0.23,0.01,1.18,-0.28,-55.7,-106.3,-988.0,-2.99,3.86,0.38,0.0,1.2128066622508304,3.2341150257837152,0.2173052177072552,0.25,0,4,0.0
6.298663617000784,425,806.77,99.9,5.1,-42.3,-5.73,-2.15,0.51,0.12,1.34,-0.46,-57.3,-184.2,-836.0,-2.93,5.89,0.24,0.0,1.4218298069740978,6.141294651781496,0.41780179518191196,0.25,0,5,0.0
6.308885487000225,426,806.78,99.1,5.2,-42.1,-8.18,-0.55,1.01,0.18,1.14,-0.49,-59.6,-260.1,-792.0,-2.86,8.01,0.41,0.0,1.2538341198101126,8.260447929743277,0.2448099858575683,0.25,0,5,0.0
6.316445772001316,427,806.79,98.3,5.3,-42.2,-7.18,0.76,1.34,0.19,0.84,-0.23,-62.8,-335.2,-731.0,-2.77,9.94,0.29,0.0,0.891403387922662,7.34340520467174,0.1152683311092847,0.25,0,5,0.0
6.328588389000288,428,806.8,97.8,5.5,-42.2,-4.23,1.28,1.47,0.18,0.71,-0.07,-66.5,-400.4,-682.0,-2.66,11.7,0.11,0.0,0.7357988855658861,4.657488593652164,0.26545537679673936,0.25,0,5,0.0
6.338822564999646,429,806.81,97.5,5.6,-42.4,-1.72,1.44,1.5,0.18,0.69,-0.02,-71.0,-462.4,-591.0,-2.53,13.16,0.09,0.0,0.7133722730804722,2.6985181118532444,0.2821243494965102,0.25,0,5,0.0
6.348464126000181,430,806.82,97.4,5.8,-42.5,-0.03,1.33,1.29,0.18,0.7,-0.03,-76.0,-501.2,-430.0,-2.38,14.07,0.1,0.0,0.723394774656273,1.8530785196531745,0.2666598109622953,0.25,0,5,0.0
6.358709041000111,431,806.83,97.4,5.9,-42.6,1.16,1.15,0.88,0.19,0.76,-0.07,-81.2,-529.4,-303.0,-2.24,14.65,-0.14,0.0,0.7865112840894274,1.8553975315279472,0.1994724354985581,0.25,0,5,0.0
6.36852157300018,432,806.84,97.6,6.0,-42.7,1.99,0.96,0.5,0.18,0.84,-0.11,-86.7,-551.9,-254.0,-2.09,15.27,0.21,0.0,0.8660831368869849,2.265325583663417,0.11750257104698059,0.25,0,5,0.0
6.3787101460002305,433,806.85,97.8,6.1,-42.8,2.53,0.58,0.16,0.16,0.9,-0.15,-92.2,-558.5,-49.0,-1.94,15.06,0.15,0.0,0.9263368717696603,2.6005576325088433,0.056103859441019144,0.25,0,5,0.0
6.389161977000185,434,806.86,98.1,6.2,-42.8,2.79,0.19,-0.09,0.13,0.95,-0.21,-97.7,-556.1,-19.0,-1.79,15.07,-0.15,0.0,0.981580358401695,2.7979099342187554,0.0008431653528047089,0.25,0,5,0.0
6.396387060000052,435,806.87,98.5,6.2,-42.8,2.55,-0.09,-0.27,0.09,0.98,-0.28,-103.1,-544.4,94.0,-1.64,14.64,-0.06,0.0,1.0231813133555558,2.5658331980080074,0.039942633809035066,0.25,0,5,0.0
6.408718282000336,436,806.88,98.7,6.1,-42.8,2.21,-0.35,-0.4,0.04,0.98,-0.32,-108.5,-532.0,144.0,-1.5,14.15,-0.15,0.0,1.0316976301223144,2.273015618072168,0.047489771564277805,0.25,0,5,0.0
6.418679242000508,437,806.89,98.9,6.1,-42.7,1.85,-0.62,-0.52,-0.01,0.99,-0.37,-113.8,-504.4,226.0,-1.35,13.39,-0.18,0.0,1.056929515152264,2.019232527471762,0.07126722346234282,0.25,0,5,0.0
6.4284059060009895,438,806.9,99.1,6.0,-42.7,1.38,-0.74,-0.56,-0.03,1.0,-0.4,-118.7,-480.7,239.0,-1.23,12.77,-0.24,0.0,1.0774506949276146,1.6630093204789922,0.08995263517293961,0.25,0,5,0.0
6.43648148900138,439,806.91,99.2,5.9,-42.6,1.02,-0.81,-0.51,-0.04,0.99,-0.42,-123.3,-458.3,220.0,-1.11,12.2,0.12,0.0,1.0761505470890214,1.3987851872249721,0.08687943758765948,0.25,0,5,0.0
6.4487060560004466,440,806.92,99.3,5.9,-42.5,1.33,-0.85,-0.54,-0.04,0.97,-0.43,-127.6,-430.4,315.0,-0.99,11.17,-0.03,0.0,1.0617909398747005,1.668232597691341,0.07106943376587183,0.25,0,5,0.0
6.460483105000094,441,806.93,99.5,5.8,-42.4,1.8,-0.92,-0.64,-0.04,0.99,-0.4,-131.7,-392.6,324.0,-0.89,10.29,-0.04,0.0,1.0685036265731624,2.1203773249117717,0.07622647805504712,0.25,0,5,0.0
6.4684413989998575,442,806.94,99.7,5.7,-42.4,1.75,-1.04,-0.74,-0.03,1.05,-0.33,-135.3,-359.2,350.0,-0.8,9.35,-0.21,0.0,1.101044958210154,2.1660332407421636,0.1065924534981979,0.25,0,5,0.0
6.478655570001138,443,806.95,99.8,5.6,-42.3,1.62,-1.23,-0.79,0.01,1.11,-0.27,-138.7,-314.7,427.0,-0.71,7.99,-0.08,0.0,1.1424097338520887,2.182063243813066,0.14499808455732988,0.25,0,5,0.0
6.488708349001172,444,806.96,100.0,5.5,-42.1,1.56,-1.33,-0.77,0.1,1.19,-0.19,-141.5,-272.2,418.0,-0.64,6.88,-0.19,0.0,1.209214621148785,2.1898401768165643,0.2075669124169457,0.25,0,5,0.0
6.498742489000506,445,806.97,100.1,5.4,-42.0,0.96,-1.5,-0.71,0.16,1.23,-0.14,-144.0,-228.5,439.0,-0.58,5.68,0.01,0.0,1.2482387592123552,1.9172115167607355,0.24165922947090546,0.25,0,5,0.0
6.5089005139998335,446,806.98,100.2,5.3,-41.9,-0.45,-1.42,-0.66,0.18,1.21,-0.1,-145.9,-185.7,430.0,-0.53,4.5,-0.13,0.0,1.2273956167430287,1.6292636373527767,0.21639976526154747,0.25,0,5,0.0
6.518598202999783,447,806.99,100.0,5.2,-41.8,-1.93,-1.37,-0.74,0.17,1.1,0.0,-147.5,-140.9,447.0,-0.49,3.26,-0.25,0.0,1.113058848399311,2.4797983789009943,0.10002173697947314,0.25,0,5,0.0
6.529007266000917,448,807.0,99.8,5.1,-41.6,-2.21,-1.52,-1.1,0.19,0.97,0.09,-148.3,-109.3,584.0,-0.47,1.9,-0.47,0.0,0.9925220400575495,2.8990515690480567,0.0201047699350424,0.25,0,5,0.0
6.538787675999629,449,807.01,99.7,5.0,-41.5,-1.34,-1.71,-1.62,0.21,0.89,0.11,-149.3,-47.3,517.0,-0.45,0.77,-0.13,0.0,0.9210320298447824,2.71,0.08976288454485337,0.25,0,5,0.0
6.548222841000097,450,807.02,99.6,4.7,-41.4,0.2,-1.63,-2.09,0.22,0.9,0.03,-149.4,-3.9,463.0,-0.46,-0.4,-0.08,0.0,0.9269843580125827,2.6580067720004026,0.08213434524951202,0.25,0,5,0.0
6.558850113000517,451,807.03,99.7,4.5,-41.3,1.34,-1.19,-2.18,0.2,1.02,0.01,-149.2,30.1,336.0,-0.46,-1.09,-0.18,0.0,1.0394710193170371,2.82207370562854,0.029745269733843616,0.25,0,5,0.0
6.568476733000352,452,807.04,99.9,4.3,-41.2,1.55,-0.76,-1.81,0.16,1.11,0.02,-148.8,51.9,254.0,-0.48,-1.66,0.05,0.0,1.121650569473399,2.5012396926324354,0.10968632349240126,0.25,0,5,0.0
6.57866362400091,453,807.05,100.0,4.1,-41.2,1.24,-0.5,-1.44,0.09,1.1,0.02,-148.1,71.3,200.0,-0.5,-2.12,-0.15,0.0,1.103856874780422,1.964993638666548,0.09005477622343583,0.25,0,5,0.0
6.588605541999641,454,807.06,100.1,4.0,-41.1,0.82,-0.6,-1.22,0.0,1.07,0.04,-147.3,83.1,127.0,-0.52,-2.35,-0.01,0.0,1.0707474025184465,1.5877027429591473,0.05580639788223096,0.25,0,5,0.0
6.598773851999795,455,807.07,100.2,3.8,-41.1,0.49,-1.07,-1.15,-0.06,1.07,0.07,-146.4,88.7,67.0,-0.55,-2.44,0.06,0.0,1.0739646176667088,1.6454482671904334,0.057843140769883394,0.25,0,5,0.0
6.608379698000135,456,807.08,100.2,3.7,-41.0,0.35,-1.68,-1.02,-0.09,1.11,0.03,-145.5,87.9,4.0,-0.57,-2.34,0.0,0.0,1.1140466776576285,1.9963216173753164,0.095966696745587,0.25,0,5,0.0
6.618907474001389,457,807.09,100.3,3.6,-40.8,0.2,-2.24,-0.74,-0.1,1.17,0.0,-144.7,80.8,-66.0,-0.59,-2.03,0.06,0.0,1.1742657280190032,2.367530358833863,0.1530620321648224,0.25,0,5,0.0
6.628402731001188,458,807.1,100.3,3.5,-40.5,0.16,-2.79,-0.21,-0.07,1.27,-0.05,-144.0,64.5,-153.0,-0.61,-1.47,0.28,0.0,1.2729100518104175,2.802463202256187,0.24667222883711193,0.25,0,5,0.0
6.63863190200027,459,807.11,100.3,3.5,-40.2,0.15,-3.1,0.45,-0.02,1.29,-0.13,-143.5,39.8,-231.0,-0.62,-0.72,0.2,0.0,1.296688088940436,3.136080356113345,0.2650412606477879,0.25,0,5,0.0
6.648753891000524,460,807.12,100.3,3.4,-39.9,-0.25,-3.22,0.96,0.02,1.27,-0.15,-143.3,7.9,-295.0,-0.62,0.17,0.18,0.0,1.2789839717525782,3.3693471177662895,0.24239040059073158,0.25,0,5,0.0
6.658814295000411,461,807.13,100.2,3.5,-39.6,-1.29,-3.38,1.29,0.05,1.2,-0.13,-143.4,-14.8,-195.0,-0.61,0.51,0.15,0.0,1.2080562900792329,3.8409113501876084,0.16803346453903867,0.25,0,5,0.0
6.668416644000899,462,807.14,100.0,3.6,-39.2,-2.33,-3.63,1.46,0.07,1.12,-0.13,-143.7,-23.4,-121.0,-0.61,0.74,0.26,0.0,1.1296902230257637,4.553833549878608,0.08787404953585809,0.25,0,5,0.0
6.678831028000786,463,807.15,99.8,3.6,-38.8,-2.82,-3.83,1.53,0.07,1.05,-0.13,-144.0,-36.0,-147.0,-0.6,1.19,0.08,0.0,1.0603301372685772,4.996218570078775,0.018143684503098,0.25,0,5,0.0
6.688304364000942,464,807.16,99.5,3.7,-38.4,-3.15,-4.0,1.58,0.07,0.98,-0.12,-144.4,-52.8,-170.0,-0.58,1.68,0.02,0.0,0.9897979591815695,5.330938003766317,0.05134072371223142,0.25,0,5,0.0
6.698720390000744,465,807.17,99.1,3.8,-38.0,-3.39,-4.06,1.61,0.07,0.93,-0.11,-145.1,-74.1,-205.0,-0.56,2.29,0.16,0.0,0.939095309327014,5.528815424663768,0.10000250609545125,0.25,0,5,0.0
6.708221377000882,466,807.18,98.8,3.9,-37.5,-3.55,-4.03,1.58,0.1,0.87,-0.11,-145.9,-93.8,-209.0,-0.53,2.87,-0.13,0.0,0.8826097665446492,5.59819613804304,0.15335828790025985,0.25,0,5,0.0
6.7187906529998145,467,807.19,98.5,4.1,-37.1,-3.53,-3.88,1.56,0.14,0.85,-0.11,-147.0,-114.2,-203.0,-0.5,3.39,-0.05,0.0,0.8684468895678077,5.472558816495259,0.16417074157955924,0.25,0,5,0.0
6.728426618999947,468,807.2,98.2,4.2,-36.7,-3.19,-3.55,1.57,0.2,0.83,-0.11,-148.3,-133.6,-187.0,-0.46,3.86,-0.08,0.0,0.8608135686662938,5.0242909947573695,0.1683679812314517,0.25,0,5,0.0
6.738781191999806,469,807.21,97.9,4.3,-36.4,-2.82,-3.16,1.53,0.26,0.81,-0.13,-149.7,-148.3,-153.0,-0.42,4.23,-0.02,0.0,0.8605811989580066,4.503209966235197,0.1652283439209441,0.25,0,5,0.0
6.748458775000472,470,807.22,97.6,4.4,-36.1,-2.44,-2.51,1.45,0.31,0.79,-0.16,-151.3,-160.6,-122.0,-0.38,4.5,-0.01,0.0,0.8635971282953644,3.788957640301617,0.15896816629191457,0.25,0,5,0.0
6.7587966740011325,471,807.23,97.4,4.5,-35.9,-2.03,-1.74,1.34,0.33,0.78,-0.18,-153.0,-169.3,-93.0,-0.33,4.69,0.12,0.0,0.8658521813797088,2.990668821518023,0.15357885094341872,0.25,0,5,0.0
6.7683401289996254,472,807.24,97.3,4.7,-35.7,-1.35,-0.86,1.17,0.32,0.75,-0.19,-154.7,-173.7,-52.0,-0.29,4.78,0.02,0.0,0.8372574275573792,1.9826749607537792,0.17853013267043338,0.25,0,5,0.0
6.776441384001373,473,807.25,97.2,4.8,-35.6,-0.73,-0.14,1.04,0.3,0.76,-0.18,-156.4,-176.6,-28.0,-0.24,4.8,0.12,0.0,0.8366600265340756,1.2783192089615176,0.17554498301986232,0.25,0,5,0.0
6.788840899000206,474,807.26,97.1,4.9,-35.7,-0.24,0.45,0.9,0.24,0.77,-0.16,-158.2,-177.1,-18.0,-0.19,4.81,0.2,0.0,0.8222530024268686,1.034456378974,0.18615296698452788,0.25,0,5,0.0
6.796438995999779,475,807.27,97.1,4.9,-35.7,0.01,0.7,0.8,0.18,0.81,-0.14,-160.0,-177.5,-9.0,-0.14,4.85,0.1,0.0,0.8414867794564571,1.0630616162763098,0.16358080615584059,0.25,0,5,0.0
6.808687890001238,476,807.28,97.1,5.1,-35.8,0.0,0.82,0.78,0.13,0.84,-0.14,-161.8,-177.1,11.0,-0.09,4.74,0.03,0.0,0.8614522621712708,1.1317243480636086,0.14074301697220637,0.25,0,5,0.0
6.8188873440012685,477,807.29,97.2,5.2,-35.8,-0.18,0.81,0.77,0.09,0.87,-0.14,-163.5,-171.4,46.0,-0.05,4.56,0.07,0.0,0.8857764955111419,1.1319893992436503,0.11409040795968861,0.25,0,5,0.0
6.82843923800101,478,807.3,97.1,5.3,-35.9,-0.4,0.72,0.77,0.07,0.89,-0.14,-165.2,-164.5,63.0,0.0,4.35,0.17,0.0,0.9036592278065886,1.1275194011634568,0.09428352215095714,0.25,0,5,0.0
6.838774396001099,479,807.31,97.1,5.3,-36.0,-0.56,0.51,0.71,0.06,0.89,-0.15,-166.8,-156.8,74.0,0.03,4.15,0.0,0.0,0.9045440840556087,1.0381714694596458,0.09153069258389823,0.25,0,5,0.0
6.849151558000813,480,807.32,97.1,5.4,-36.0,-0.76,0.28,0.62,0.06,0.89,-0.15,-168.3,-150.0,65.0,0.07,4.01,-0.1,0.0,0.9045440840556087,1.02,0.0897000787322203,0.25,0,5,0.0
6.856475115000649,481,807.33,97.0,5.4,-36.0,-1.02,-0.01,0.52,0.05,0.87,-0.17,-169.7,-143.7,69.0,0.11,3.79,-0.06,0.0,0.887862601982987,1.1449454135459909,0.10425392958874513,0.25,0,5,0.0
6.868899675000648,482,807.34,96.9,5.5,-36.0,-1.14,-0.26,0.35,0.05,0.84,-0.18,-171.1,-136.9,69.0,0.15,3.59,-0.03,0.0,0.8605230967266363,1.2205326705991937,0.12896156614819398,0.25,0,5,0.0
6.876391548001266,483,807.35,96.9,5.5,-35.9,-1.22,-0.55,0.16,0.06,0.79,-0.2,-172.4,-128.1,77.0,0.18,3.38,0.0,0.0,0.817129120763665,1.3477759457714031,0.16890843126894206,0.25,0,5,0.0
6.889119888001005,484,807.36,96.8,5.5,-35.8,-1.04,-0.93,-0.07,0.08,0.74,-0.22,-173.7,-122.5,53.0,0.21,3.28,-0.03,0.0,0.7761443164772902,1.3969251948475983,0.20569537084421052,0.25,0,5,0.0
6.898572285999762,485,807.37,96.7,5.4,-35.7,-0.47,-1.15,-0.34,0.11,0.75,-0.27,-174.9,-118.3,41.0,0.25,3.18,-0.12,0.0,0.8046738469715541,1.288021738946979,0.17362252354294772,0.25,0,5,0.0
6.908973952000451,486,807.38,96.7,5.4,-35.6,0.11,-1.0,-0.46,0.13,0.77,-0.33,-176.0,-116.2,28.0,0.28,3.12,0.0,0.0,0.8477617589865681,1.1062097450302995,0.127923919297375,0.25,0,5,0.0
6.918851341000845,487,807.39,96.7,5.3,-35.6,0.48,-0.67,-0.6,0.19,0.78,-0.37,-177.2,-113.6,31.0,0.31,3.02,0.14,0.0,0.8839683252243827,1.019460641712077,0.08988300599836918,0.25,0,5,0.0
6.9284107929997845,488,807.4,96.8,5.2,-35.5,0.92,-0.09,-0.67,0.25,0.83,-0.39,-178.3,-110.2,34.0,0.34,2.91,0.02,0.0,0.9505261700763424,1.1416654501210064,0.022858657923481296,0.25,0,5,0.0
6.938636363000114,489,807.41,96.9,5.2,-35.6,1.17,0.58,-0.72,0.28,0.85,-0.4,-179.4,-106.1,32.0,0.37,2.82,0.04,0.0,0.9802550688468793,1.4912075643584968,0.006732836030114431,0.25,0,5,0.0
6.94873922700026,490,807.42,97.0,5.1,-35.7,1.7,1.48,-0.86,0.31,0.9,-0.43,-180.4,-101.7,48.0,0.39,2.68,0.06,0.0,1.0445094542415592,2.4124676163629637,0.0695674769962984,0.25,0,5,0.0
6.958655533000638,491,807.43,97.2,5.0,-35.9,1.89,2.24,-0.83,0.3,1.0,-0.37,-181.4,-95.8,51.0,0.42,2.54,-0.02,0.0,1.1076551810017412,3.0460794474208974,0.13005893968135085,0.25,0,5,0.0
6.96833865500048,492,807.44,97.4,5.0,-36.1,1.83,2.73,-0.66,0.26,1.05,-0.32,-182.3,-90.1,64.0,0.44,2.31,-0.11,0.0,1.1280514172678477,3.352223142930673,0.14744607242850827,0.25,0,5,0.0
6.9784089860004315,493,807.45,97.5,5.0,-36.4,1.49,2.97,-0.52,0.17,1.08,-0.27,-183.1,-80.7,91.0,0.46,2.03,-0.07,0.0,1.1261438629233833,3.363242483080874,0.14262774772236297,0.25,0,5,0.0
6.987850143001197,494,807.46,97.7,5.0,-36.7,1.34,2.86,-0.42,0.08,1.09,-0.24,-183.9,-69.3,110.0,0.48,1.69,-0.13,0.0,1.1189727431890377,3.1861575604480077,0.13274749542825703,0.25,0,5,0.0
6.998851321000984,495,807.47,97.8,5.0,-37.0,1.25,2.54,-0.4,0.03,1.07,-0.26,-184.5,-57.9,111.0,0.5,1.38,-0.01,0.0,1.101544370418187,2.8590382998483945,0.11301274020425822,0.25,0,5,0.0
7.00842086800003,496,807.48,97.9,5.0,-37.3,1.39,2.28,-0.35,0.0,1.1,-0.25,-185.0,-44.9,135.0,0.51,1.0,-0.02,0.0,1.1280514172678477,2.6931394319641155,0.13672939131284045,0.25,0,5,0.0
7.018636394999703,497,807.49,98.0,5.0,-37.5,1.58,1.84,-0.26,-0.01,1.12,-0.27,-185.3,-30.6,137.0,0.52,0.64,-0.11,0.0,1.152128465059344,2.439180190145861,0.1575903103222499,0.25,0,5,0.0
7.028593484999874,498,807.5,98.2,5.0,-37.6,2.13,1.64,-0.15,-0.01,1.2,-0.24,-185.5,-19.0,120.0,0.52,0.32,-0.09,0.0,1.223805540108395,2.6923967018253454,0.22468203766387485,0.25,0,5,0.0
7.036464312001044,499,807.51,98.4,5.0,-37.8,2.51,1.58,0.01,-0.02,1.3,-0.24,-185.6,-5.1,134.0,0.52,-0.04,-0.09,0.0,1.322119510483073,2.9659062695911342,0.31653608787778187,0.25,1,6,2.5
7.048980314000801,500,807.52,98.7,5.0,-37.9,2.66,1.5,0.25,0.0,1.36,-0.19,-185.6,4.7,90.0,0.52,-0.2,0.15,0.0,1.3732079230764729,3.064000652741445,0.36027201046175805,0.25,0,6,2.5
7.0587620830010565,501,807.53,98.9,5.0,-38.1,1.99,1.16,0.34,0.06,1.32,-0.13,-185.5,27.8,440.0,0.51,-2.38,2.31,2.91,1.3277424449041313,2.3283685275316706,0.3085104016436282,0.25,0,6,2.5
7.068801612000243,502,807.54,99.0,5.0,-38.2,0.25,0.76,0.37,0.13,1.26,-0.11,-184.4,153.0,1069.0,0.45,-6.24,2.5,2.91,1.2714558584551805,0.8814760348415606,0.24717933889078392,0.25,0,6,2.5
7.078802780000842,503,807.55,98.9,5.1,-38.2,-1.04,0.74,0.4,0.18,1.14,-0.06,-181.9,288.6,1232.0,0.37,-9.73,2.32,2.91,1.1556816170554933,1.3376098085764772,0.12877699554127475,0.25,0,6,2.5
7.088388293999742,504,807.56,98.8,5.1,-38.3,-1.0,0.96,0.35,0.19,1.05,-0.02,-178.2,408.0,1145.0,0.26,-12.38,2.58,2.91,1.067239429556461,1.4297202523570824,0.03952811188139749,0.25,0,6,2.5
7.096423077000509,505,807.57,98.7,5.2,-38.4,-0.78,1.67,0.65,0.16,1.06,-0.03,-173.3,515.4,1109.0,0.12,-15.35,2.71,2.91,1.0724271537032248,1.9544308634484873,0.043821519307598145,0.25,0,6,2.5
7.108821407000505,506,807.58,98.6,5.3,-38.6,-0.74,2.56,1.2,0.12,1.05,0.04,-167.5,613.0,961.0,-0.04,-17.73,2.95,2.91,1.0575916035975323,2.922533147801749,0.028406249817867657,0.25,0,6,2.5
7.118750857000123,507,807.59,98.5,5.5,-38.9,-1.08,3.21,1.79,0.09,0.98,0.1,-160.7,716.1,1013.0,-0.24,-20.59,2.36,2.91,0.9891915891272024,3.830744053052879,0.03919388935941315,0.25,0,6,2.5
7.128317728000184,508,807.6,98.3,5.8,-39.2,-1.38,3.54,2.27,0.11,0.92,0.16,-152.9,803.9,922.0,-0.46,-22.97,2.94,2.91,0.9402659198333203,4.425934929481001,0.08635716748022926,0.25,0,6,2.5
7.138859079999747,509,807.61,98.1,6.1,-39.5,-1.23,3.56,2.62,0.15,0.88,0.18,-144.2,902.6,993.0,-0.71,-25.73,2.25,2.91,0.9106591019695569,4.588125979089938,0.11364470563711282,0.25,0,6,2.5
7.148361616000329,510,807.62,98.0,6.4,-39.8,-0.52,3.47,2.82,0.19,0.88,0.17,-134.5,981.5,714.0,-0.98,-27.14,1.44,2.91,0.9161877536837086,4.501521964847001,0.10595373284450194,0.25,0,6,2.5
7.158918347000508,511,807.63,98.0,6.7,-40.1,0.76,3.26,2.74,0.22,0.92,0.14,-124.5,1005.0,316.0,-1.25,-27.35,1.81,2.91,0.9562426470305536,4.325829400242224,0.0645808627077038,0.25,0,6,2.5
7.168447058000311,512,807.64,98.1,7.0,-40.4,2.04,3.04,2.4,0.22,1.03,0.08,-114.5,987.8,-126.0,-1.52,-26.31,1.75,2.91,1.0562670116973265,4.377579239716855,0.03473463191988779,0.25,0,6,2.5
7.178600956000082,513,807.65,98.3,7.3,-40.7,2.3,2.82,1.91,0.19,1.15,0.0,-104.8,969.1,-65.0,-1.79,-26.37,2.03,2.91,1.1655899793666724,4.1098053481886465,0.14117644759744907,0.25,0,6,2.5
7.188974441000028,514,807.66,98.5,7.5,-40.9,1.52,2.47,1.42,0.14,1.22,0.0,-95.1,977.6,-2.0,-2.05,-26.5,2.03,2.91,1.2280065146407002,3.2291949461127305,0.19952112321404725,0.25,0,6,2.5
7.199000381000587,515,807.67,98.5,7.6,-41.1,0.05,1.94,1.01,0.1,1.23,-0.02,-85.3,982.3,-1.0,-2.32,-26.57,2.09,2.91,1.234220401711137,2.187738558420544,0.20162031007879433,0.25,0,6,2.5
7.20837168000071,516,807.68,98.4,7.7,-41.3,-1.05,1.57,0.6,0.08,1.16,-0.06,-75.6,962.8,-159.0,-2.58,-25.9,2.37,2.91,1.1643023662262308,1.9817668884104407,0.12906822910201043,0.25,0,6,2.5
7.216485401000682,517,807.69,98.3,7.8,-41.4,-1.19,1.5,0.41,0.06,1.08,-0.06,-66.0,949.7,-121.0,-2.84,-25.71,2.56,2.91,1.0833282051160673,1.9581113349347632,0.04713218663201002,0.25,0,6,0.0
7.228915040001084,518,807.7,98.2,7.9,-41.6,-0.74,1.39,0.23,0.06,1.05,-0.06,-56.6,938.0,-131.0,-3.09,-25.4,3.25,2.91,1.0534229919647664,1.5914144651849813,0.016882434011094904,0.25,0,6,0.0
7.236484752000251,519,807.71,98.1,7.9,-41.7,-0.22,1.27,0.08,0.08,1.03,-0.06,-47.3,915.4,-536.0,-3.34,-23.21,0.54,0.0,1.034842983258813,1.291394595001853,0.0016636232009612506,0.25,0,6,0.0
7.248872758000289,520,807.72,98.0,7.9,-41.8,0.0,1.11,-0.25,0.12,1.03,-0.08,-39.2,757.7,-1288.0,-3.54,-18.61,0.72,0.0,1.0400480758118829,1.1378049041905207,0.0034706399650663577,0.25,0,6,0.0
7.256429101000322,521,807.73,97.9,7.8,-41.9,-0.58,1.05,-0.58,0.13,1.05,-0.08,-32.7,604.2,-1441.0,-3.7,-14.48,0.62,0.0,1.061037228376083,1.3324038426843416,0.023970596678681177,0.25,0,6,0.0
7.269073605000813,522,807.74,97.8,7.8,-42.1,-1.63,0.99,-0.7,0.13,1.0,-0.07,-27.7,453.0,-1422.0,-3.81,-10.7,0.56,0.0,1.0108412338245802,2.031501907456648,0.02570088991536501,0.25,0,6,0.0
7.278826722000304,523,807.75,97.5,7.7,-42.2,-1.86,0.83,-0.84,0.11,0.89,-0.06,-24.1,327.0,-1286.0,-3.9,-7.43,0.52,0.0,0.8987769467448529,2.2032022149589445,0.13500987345519044,0.25,0,6,0.0
7.288480473000163,524,807.76,97.3,7.6,-42.3,-1.47,0.78,-1.02,0.09,0.8,-0.06,-21.8,223.4,-1171.0,-3.95,-4.5,0.2,0.0,0.8072793816269558,1.9518452807535744,0.2219772898016258,0.25,0,6,0.0
7.298846424000658,525,807.77,97.2,7.5,-42.4,-0.58,0.85,-1.26,0.07,0.75,-0.05,-20.2,120.2,-939.0,-3.98,-2.31,0.53,0.0,0.7549172140042907,1.626806687962648,0.2688526682758051,0.25,0,6,0.0
7.308386437000081,526,807.78,97.1,7.4,-42.5,0.36,0.87,-1.44,0.04,0.78,-0.02,-19.5,48.0,-761.0,-3.99,-0.54,0.17,0.0,0.7812809993849844,1.72049411507276,0.2376391052372092,0.25,0,6,0.0
7.318640286999653,527,807.79,97.2,7.2,-42.6,1.22,0.75,-1.49,0.01,0.81,-0.01,-19.4,-3.0,-510.0,-3.99,0.41,0.09,0.0,0.8101234473831751,2.066639784771405,0.20462072409423815,0.25,0,6,0.0
7.328894789001424,528,807.8,97.3,7.1,-42.7,1.7,0.58,-1.47,-0.02,0.87,-0.02,-19.5,-20.0,-225.0,-3.98,0.57,-0.09,0.0,0.8704596486914256,2.321055794245369,0.14139883233026795,0.25,0,6,0.0
7.336485460000404,529,807.81,97.5,7.0,-42.7,1.59,0.33,-1.29,-0.04,0.93,-0.03,-19.7,-19.4,-55.0,-3.98,0.46,-0.05,0.0,0.9313431161500042,2.073909351924524,0.07890505757425548,0.25,0,6,0.0
7.348654941000859,530,807.82,97.6,6.8,-42.8,1.15,-0.05,-1.01,-0.06,0.93,-0.03,-19.9,-15.4,-2.0,-3.97,0.39,0.08,0.0,0.9324162160752033,1.5313719339206917,0.07627531849607527,0.25,0,6,0.0
7.35648602800029,531,807.83,97.7,6.8,-42.7,0.43,-0.63,-0.67,-0.08,0.92,-0.04,-20.0,-9.9,51.0,-3.97,0.16,0.06,0.0,0.9243376006633075,1.0152339631828715,0.08266685522981176,0.25,0,6,0.0
7.368734633000713,532,807.84,97.7,6.7,-42.6,-0.23,-1.27,-0.37,-0.08,0.91,-0.06,-20.1,-4.3,31.0,-3.97,0.12,-0.02,0.0,0.9154780172128657,1.3426466400360149,0.08969590990664844,0.25,0,6,0.0
7.378715917000591,533,807.85,97.7,6.7,-42.5,-0.66,-1.85,-0.12,-0.07,0.88,-0.08,-20.1,-8.9,-37.0,-3.97,0.35,-0.25,0.0,0.8863972021616494,1.9678668654154428,0.11640119045870734,0.25,0,6,0.0
7.388794379001411,534,807.86,97.7,6.6,-42.3,-0.83,-2.33,0.01,-0.06,0.88,-0.1,-20.3,-21.6,-126.0,-3.96,0.83,-0.01,0.0,0.8876936408468858,2.4734389016104683,0.11280265673800138,0.25,0,6,0.0
7.398782170999766,535,807.87,97.6,6.6,-42.0,-1.2,-2.62,0.11,-0.05,0.91,-0.13,-20.7,-42.6,-193.0,-3.95,1.46,0.24,0.0,0.9205976319760985,2.883834253212206,0.07830069229661296,0.25,0,6,0.0
7.408185254000273,536,807.88,97.5,6.6,-41.7,-1.85,-2.72,0.29,-0.02,0.94,-0.15,-21.3,-71.5,-287.0,-3.93,2.4,0.13,0.0,0.952102935611481,3.302271945191674,0.045859480888005844,0.25,0,6,0.0
7.420485380000173,537,807.89,97.3,6.6,-41.5,-2.44,-2.69,0.48,0.0,0.94,-0.18,-22.3,-111.5,-372.0,-3.9,3.54,-0.01,0.0,0.9570788891204318,3.663345465554675,0.0400658568314739,0.25,0,6,0.0
7.428466221001145,538,807.9,97.0,6.6,-41.2,-2.8,-2.57,0.61,0.06,0.92,-0.19,-23.7,-153.3,-395.0,-3.85,4.66,0.21,0.0,0.9413288479590967,3.8492856480131477,0.05469958003295283,0.25,0,6,0.0
7.438902959000188,539,807.91,96.8,6.6,-40.9,-3.05,-2.33,0.72,0.13,0.9,-0.2,-25.5,-195.5,-419.0,-3.8,5.85,0.28,0.0,0.9310746479203481,3.905099230493381,0.06365470447026733,0.25,0,6,0.0
7.448282923000079,540,807.92,96.5,6.7,-40.7,-3.09,-1.96,0.77,0.2,0.85,-0.2,-27.8,-238.4,-426.0,-3.73,7.01,0.31,0.0,0.8958236433584459,3.739331491055587,0.09692759485152613,0.25,0,6,0.0
7.456489460000739,541,807.93,96.3,6.7,-40.5,-2.63,-1.47,0.75,0.23,0.8,-0.21,-30.5,-282.7,-453.0,-3.65,8.28,0.15,0.0,0.8584870412533903,3.1048832506231214,0.13157891301745017,0.25,0,6,0.0
7.468627647000176,542,807.94,96.1,6.8,-40.4,-1.71,-0.9,0.68,0.25,0.77,-0.23,-33.6,-331.4,-467.0,-3.56,9.57,0.26,0.0,0.8416056083463322,2.048536062655476,0.14549113900601807,0.25,0,6,0.0
7.476392735001355,543,807.95,96.0,6.9,-40.3,-0.58,-0.28,0.52,0.23,0.77,-0.23,-37.2,-374.4,-420.0,-3.46,10.64,0.13,0.0,0.8358827668997608,0.8277680834629951,0.14818970084353766,0.25,0,6,0.0
7.488766753000164,544,807.96,96.0,6.9,-40.3,0.29,0.15,0.4,0.22,0.81,-0.24,-41.3,-414.4,-414.0,-3.34,11.76,0.14,0.0,0.8729833904490968,0.5163332257370234,0.10886729574831766,0.25,0,6,0.0
7.498957241001335,545,807.97,96.0,6.9,-40.4,0.87,0.52,0.28,0.2,0.86,-0.25,-45.7,-453.3,-391.0,-3.22,12.78,0.09,0.0,0.9176600677810929,1.05152270541344,0.06290680604799515,0.25,0,6,0.0
7.508383401000174,546,807.98,96.1,7.0,-40.4,1.41,0.91,0.14,0.19,0.94,-0.26,-50.5,-494.1,-403.0,-3.08,13.9,0.06,0.0,0.9936297097007516,1.6839833728395301,0.012801579154230303,0.25,0,6,0.0
7.51643445100126,547,807.99,96.3,7.0,-40.6,1.52,1.24,-0.02,0.17,1.01,-0.25,-55.6,-519.5,-248.0,-2.94,14.32,0.44,0.0,1.0542770034483346,1.9617339269126177,0.07197989544377703,0.25,0,6,0.0
7.528756251000232,548,808.0,96.4,7.0,-40.7,1.08,1.48,-0.16,0.16,1.02,-0.28,-59.8,-536.8,-325.0,-2.78,15.13,0.26,0.0,1.0697663296253066,1.8391302292116238,0.08571983718833398,0.25,0,6,0.0
7.538958958000876,549,808.01,96.5,7.0,-40.9,0.74,1.67,-0.26,0.13,1.01,-0.29,-67.1,-563.6,-245.0,-2.62,15.58,-0.07,0.0,1.0588200980336555,1.8450203250912982,0.07327813348474921,0.25,0,6,0.0
7.548392982000223,550,808.02,96.5,7.0,-41.0,0.7,1.7,-0.28,0.1,0.98,-0.29,-72.9,-581.0,-136.0,-2.46,15.78,0.07,0.0,1.0268885041717042,1.8596773913773321,0.04051960883034189,0.25,0,6,0.0
7.556415556000502,551,808.03,96.6,7.0,-41.2,1.03,1.63,-0.28,0.06,0.96,-0.28,-78.7,-582.2,-70.0,-2.31,15.89,-0.08,0.0,1.0017983829094554,1.948383945735542,0.015120897816731316,0.25,0,6,0.0
7.568874624001182,552,808.04,96.7,7.0,-41.4,1.46,1.42,-0.33,0.02,0.97,-0.25,-84.6,-586.2,-66.0,-2.15,16.07,-0.24,0.0,1.0018981984213766,2.063225629929989,0.014916299062079474,0.25,0,6,0.0
7.576415585999712,553,808.05,96.8,6.9,-41.5,1.69,1.05,-0.37,0.0,1.01,-0.21,-90.5,-589.9,30.0,-1.99,15.8,0.12,0.0,1.0316006979447039,2.0237341722667033,0.043726422613698634,0.25,0,6,0.0
7.588765987000443,554,808.06,97.0,6.9,-41.6,1.39,0.58,-0.33,-0.02,1.02,-0.2,-96.3,-576.6,52.0,-1.83,15.65,0.02,0.0,1.039615313469362,1.5418819669481836,0.05070621737558956,0.25,0,6,0.0
7.598940892999963,555,808.07,97.1,6.9,-41.6,0.93,0.04,-0.39,-0.04,0.98,-0.22,-102.0,-565.9,128.0,-1.68,15.16,-0.02,0.0,1.005186549850325,1.0092571525632108,0.01595190468142149,0.25,0,6,0.0
7.608283982001012,556,808.08,97.2,6.8,-41.6,0.89,-0.58,-0.52,-0.05,0.95,-0.23,-107.5,-553.5,115.0,-1.53,14.87,-0.06,0.0,0.9787236586493656,1.1827510304370907,0.010300766789147153,0.25,0,6,0.0
7.618774784999914,557,808.09,97.3,6.8,-41.5,0.86,-1.16,-0.69,-0.05,0.89,-0.26,-112.9,-531.7,197.0,-1.38,14.19,-0.1,0.0,0.9285472524325297,1.600406198438384,0.0592676295458634,0.25,0,6,0.0
7.628391931000806,558,808.1,97.4,6.7,-41.4,1.13,-1.56,-0.92,-0.01,0.86,-0.25,-118.1,-510.5,204.0,-1.24,13.63,-0.26,0.0,0.8956561840349231,2.134689672996991,0.09031552398460063,0.25,0,6,0.0
7.636464548000731,559,808.11,97.6,6.5,-41.2,1.85,-1.75,-1.14,0.03,0.87,-0.3,-123.1,-493.7,160.0,-1.11,13.26,-0.09,0.0,0.9207605551933684,2.7900896042958907,0.06390692976963219,0.25,0,6,0.0
7.6484763370008295,560,808.12,97.8,6.4,-41.1,2.75,-1.52,-1.3,0.1,0.94,-0.33,-127.9,-471.2,277.0,-0.98,12.3,-0.19,0.0,1.0012492197250393,3.400426443844948,0.016250100066797946,0.25,0,6,0.0
7.658787444001064,561,808.13,98.1,6.2,-41.0,2.82,-1.03,-1.19,0.18,1.09,-0.27,-132.3,-436.0,290.0,-0.87,11.52,-0.01,0.0,1.1372774507568504,3.2294581588867195,0.1492327644766368,0.25,0,6,0.0
7.6684198300008575,562,808.14,98.4,6.2,-40.9,1.8,-0.58,-0.8,0.22,1.15,-0.15,-136.5,-403.2,348.0,-0.76,10.46,-0.31,0.0,1.1804236527620071,2.0533874451744367,0.18853138715215767,0.25,0,6,0.0
7.676467717001287,563,808.15,98.5,6.1,-40.9,0.96,-0.37,-0.73,0.25,1.08,0.01,-140.2,-361.0,391.0,-0.66,9.33,0.01,0.0,1.108602724153247,1.2615070352558482,0.11437624937252966,0.25,0,6,0.0
7.689063234000059,564,808.16,98.6,6.0,-40.8,0.92,-0.55,-1.16,0.27,1.03,0.1,-143.6,-321.6,400.0,-0.58,8.23,0.01,0.0,1.06948585778401,1.5793986197284078,0.0737541953432268,0.25,0,6,0.0
7.698816201000227,565,808.17,98.7,5.9,-40.8,0.42,-0.72,-1.64,0.27,1.03,0.16,-146.5,-276.0,458.0,-0.5,6.88,-0.14,0.0,1.0767543823918249,1.8396738841436,0.07940226555202079,0.25,0,6,0.0
7.708512036000684,566,808.18,98.7,5.7,-40.7,-0.65,-1.08,-1.86,0.24,0.99,0.24,-148.9,-225.4,487.0,-0.44,5.52,-0.32,0.0,1.0465658125507444,2.246886735018034,0.04822942179672152,0.25,0,6,0.0
7.718842858001153,567,808.19,98.6,5.4,-40.6,-0.78,-1.46,-2.31,0.22,0.89,0.24,-150.8,-176.0,489.0,-0.4,4.18,-0.01,0.0,0.9476813810558905,2.8418479903049003,0.0496419095041698,0.25,0,6,0.0
7.728386878001402,568,808.2,98.6,5.1,-40.5,0.25,-1.34,-3.01,0.23,0.91,0.12,-152.2,-126.5,496.0,-0.37,2.82,-0.2,0.0,0.946255779374689,3.3042699647577223,0.05004616096166392,0.25,0,6,0.0
7.736497126001268,569,808.21,98.6,4.8,-40.5,0.75,-0.72,-3.52,0.16,1.02,0.03,-153.1,-77.8,486.0,-0.35,1.52,-0.12,0.0,1.0329085148259742,3.670326960912338,0.03587444299982889,0.25,0,6,0.0
7.748819544000071,570,808.22,98.7,4.4,-40.5,0.51,-0.04,-3.64,0.06,1.15,0.01,-153.6,-28.5,486.0,-0.34,0.2,-0.33,0.0,1.1516075720487426,3.675772027751449,0.15148203021814544,0.25,0,6,0.0
7.7590052940013265,571,808.23,98.7,4.1,-40.6,0.42,0.35,-3.43,0.01,1.21,0.01,-153.6,11.9,382.0,-0.34,-0.66,-0.09,0.0,1.2100826418059223,3.4732981444154776,0.20575795797581864,0.25,0,6,0.0
7.7685400290010875,572,808.24,98.8,3.8,-40.6,1.03,0.43,-3.0,-0.03,1.25,-0.01,-153.3,38.7,306.0,-0.36,-1.37,-0.04,0.0,1.2503999360204718,3.2009061217099135,0.2411537471465608,0.25,0,6,0.0
7.778836239000157,573,808.25,98.9,3.5,-40.7,1.4,0.18,-2.4,-0.07,1.31,0.0,-152.7,62.4,248.0,-0.37,-1.95,0.01,0.0,1.3118688958886098,2.7843132007732176,0.29657025287440475,0.25,0,7,0.0
7.788378122000722,574,808.26,99.1,3.3,-40.7,1.24,-0.38,-1.67,-0.09,1.32,0.02,-151.9,84.1,221.0,-0.4,-2.52,-0.08,0.0,1.3232157798333575,2.1144502831705454,0.3017587940827695,0.25,0,7,0.0
7.796427162000327,575,808.27,99.2,3.2,-40.7,1.53,-1.11,-0.99,-0.07,1.33,0.0,-150.9,103.3,201.0,-0.43,-3.04,-0.04,0.0,1.3318408313308314,2.133799428249994,0.3041761686686386,0.25,0,7,0.0
7.8089841439996235,576,808.28,99.4,3.1,-40.6,2.06,-1.53,-0.27,-0.04,1.32,-0.08,-149.8,120.7,174.0,-0.46,-3.46,0.14,0.0,1.3230268326832983,2.5801937911715083,0.2894549266206834,0.25,0,7,0.0
7.81869351000023,577,808.29,99.6,3.1,-40.4,1.94,-1.9,0.29,-0.02,1.28,-0.1,-148.5,132.6,113.0,-0.5,-3.66,0.05,0.0,1.2840560735419617,2.7308789793764205,0.2454744841297598,0.25,0,7,0.0
7.828386283999862,578,808.3,99.8,3.1,-40.2,1.78,-2.24,0.6,-0.01,1.23,-0.17,-147.2,130.0,-24.0,-0.53,-3.35,0.09,0.0,1.2417326604386307,2.923354237857602,0.1990880496059002,0.25,0,7,0.0
7.836490556999706,579,808.31,99.9,3.1,-39.9,1.05,-2.53,0.8,0.0,1.21,-0.19,-146.0,106.7,-218.0,-0.56,-2.44,0.21,0.0,1.2248265183282079,2.853664311021883,0.1785382693455677,0.25,0,7,0.0
7.848828961001345,580,808.32,100.0,3.1,-39.6,-0.14,-2.84,0.87,0.0,1.17,-0.2,-145.2,60.4,-435.0,-0.57,-0.9,0.27,0.0,1.1869709347747315,2.973566881709574,0.13786903207624945,0.25,0,7,0.0
7.8587072160007665,581,808.33,99.9,3.1,-39.3,-1.77,-3.16,0.83,0.0,1.12,-0.19,-145.1,1.4,-505.0,-0.57,0.54,0.29,0.0,1.136001760562016,3.7158309972333243,0.08516186070626341,0.25,0,7,0.0
7.868714842999907,582,808.34,99.6,3.1,-39.0,-3.74,-3.44,0.8,0.02,1.06,-0.19,-145.3,-39.4,-399.0,-0.56,1.44,0.11,0.0,1.0770793842609745,5.144045100890932,0.025714694717117403,0.25,0,7,0.0
7.8787381230013125,583,808.35,99.2,3.1,-38.6,-5.5,-3.43,0.85,0.06,0.99,-0.2,-145.9,-67.9,-316.0,-0.54,2.18,0.23,0.0,1.0117806086301517,6.537384798220156,0.038792399295431323,0.25,0,7,0.0
7.88842097000088,584,808.36,98.6,3.1,-38.3,-6.22,-3.12,1.03,0.13,0.89,-0.18,-146.8,-95.0,-279.0,-0.51,2.88,0.17,0.0,0.9172785836374902,7.034465153798119,0.13062853580233114,0.25,0,7,0.0
7.896484032000444,585,808.37,98.0,3.2,-38.0,-6.01,-2.56,1.29,0.2,0.79,-0.15,-147.9,-118.7,-239.0,-0.48,3.47,0.06,0.0,0.828613299434664,6.658663529568077,0.21490794360505405,0.25,0,7,0.0
7.90886903899991,586,808.38,97.5,3.3,-37.8,-4.98,-1.85,1.53,0.27,0.69,-0.13,-149.2,-137.2,-195.0,-0.44,3.92,-0.13,0.0,0.7522632517942106,5.528453671687952,0.2854328314205973,0.25,0,7,0.0
7.918887840000025,587,808.39,97.1,3.5,-37.6,-3.38,-1.13,1.58,0.32,0.61,-0.1,-150.7,-150.5,-138.0,-0.4,4.21,0.23,0.0,0.6960603422117941,3.898422757988158,0.33480302618295354,0.25,0,7,0.0
7.928403265999805,588,808.4,96.9,3.6,-37.5,-1.67,-0.41,1.47,0.36,0.6,-0.13,-152.3,-158.7,-89.0,-0.36,4.37,0.25,0.0,0.7116881339463234,2.262277613379932,0.3127917297594559,0.25,0,7,0.0
7.936496166999859,589,808.41,96.8,3.8,-37.5,-0.51,0.46,1.27,0.35,0.64,-0.16,-153.9,-162.3,-39.0,-0.31,4.41,0.07,0.0,0.7467931440499437,1.4438143925034133,0.2721329852627189,0.25,0,7,0.0
7.948798512001304,590,808.42,96.7,3.9,-37.6,0.11,1.34,1.03,0.31,0.7,-0.16,-155.5,-163.6,-30.0,-0.27,4.48,0.03,0.0,0.782112523873643,1.693694187272307,0.23207733333023906,0.25,0,7,0.0
7.958656579001399,591,808.43,96.8,4.0,-37.7,0.43,1.94,0.8,0.25,0.76,-0.14,-157.2,-164.3,-2.0,-0.22,4.44,-0.03,0.0,0.812219182240853,2.142078429936682,0.1979312614637686,0.25,0,7,0.0
7.968445632001021,592,808.44,96.8,4.1,-37.9,0.58,2.22,0.58,0.19,0.82,-0.12,-158.8,-164.2,-4.0,-0.18,4.46,-0.09,0.0,0.850235261559999,2.366685445934884,0.15671687850173022,0.25,0,7,0.0
7.978780331000962,593,808.45,96.8,4.2,-38.2,0.48,2.27,0.37,0.13,0.87,-0.11,-160.5,-164.3,-5.0,-0.13,4.48,-0.03,0.0,0.8865100112237876,2.3495105873351583,0.11803328626118281,0.25,0,7,0.0
7.989007523001419,594,808.46,96.8,4.3,-38.4,-0.1,2.1,0.18,0.07,0.91,-0.1,-162.1,-163.7,11.0,-0.09,4.4,-0.06,0.0,0.9181503144910425,2.110071088849852,0.0846651233340493,0.25,0,7,0.0
7.998719577000884,595,808.47,96.7,4.3,-38.6,-1.14,1.82,0.05,0.02,0.91,-0.08,-163.7,-159.6,37.0,-0.05,4.27,0.07,0.0,0.9137286249209883,2.1481387292258387,0.08730507664602138,0.25,0,7,0.0
8.008479559000989,596,808.48,96.6,4.3,-38.7,-1.69,1.45,0.0,-0.01,0.88,-0.09,-165.3,-154.0,49.0,-0.01,4.12,0.16,0.0,0.8846468221838588,2.226791413671249,0.11405914179548782,0.25,0,7,0.0
8.018795247000526,597,808.49,96.4,4.2,-38.8,-1.64,1.08,0.0,-0.03,0.85,-0.09,-166.8,-150.1,37.0,0.03,4.05,0.02,0.0,0.8552777326693358,1.9636700333813724,0.1405596666838106,0.25,0,7,0.0
8.028456597001423,598,808.5,96.2,4.2,-38.9,-1.14,0.69,0.04,-0.03,0.82,-0.09,-168.3,-146.2,38.0,0.07,3.93,-0.1,0.0,0.8254695633395576,1.3331541546272883,0.16696047929331703,0.25,0,7,0.0
8.038889643001312,599,808.51,96.2,4.1,-39.0,-0.41,0.27,0.0,-0.01,0.79,-0.11,-169.7,-142.8,41.0,0.1,3.81,-0.06,0.0,0.7976841480185,0.4909175083453431,0.19085097672208717,0.25,0,7,0.0
8.048424722001073,600,808.52,96.2,4.0,-39.0,0.28,-0.06,-0.18,0.01,0.8,-0.15,-171.1,-137.3,53.0,0.14,3.65,0.04,0.0,0.814002456998749,0.33823069050575527,0.1710420143870014,0.25,0,7,0.0
8.058670637999967,601,808.53,96.3,4.0,-39.0,0.58,-0.21,-0.33,0.06,0.81,-0.24,-172.4,-130.4,64.0,0.18,3.46,-0.06,0.0,0.8469356528095864,0.6995712972957081,0.13534664220464065,0.25,0,7,0.0
8.068485691001115,602,808.54,96.3,4.0,-39.0,0.79,-0.15,-0.46,0.12,0.81,-0.3,-173.7,-124.2,58.0,0.21,3.3,0.0,0.0,0.8720665112249181,0.926390846241477,0.1080114681135228,0.25,0,7,0.0
8.07886480200068,603,808.55,96.4,3.9,-39.0,1.4,0.02,-0.44,0.17,0.87,-0.37,-174.9,-118.4,56.0,0.24,3.16,-0.03,0.0,0.960572745813663,1.4676511847165865,0.019115128854282237,0.25,0,7,0.0
8.088479214000472,604,808.56,96.6,3.9,-39.0,1.79,0.38,-0.28,0.2,0.89,-0.43,-176.0,-114.6,39.0,0.27,3.07,-0.07,0.0,1.0084641788382966,1.8511888072263185,0.028200778086944323,0.25,0,7,0.0
8.098800781001046,605,808.57,96.8,3.9,-39.1,2.21,0.87,-0.24,0.22,0.88,-0.43,-177.2,-111.4,39.0,0.3,2.96,-0.07,0.0,1.0038426171467318,2.387174061521279,0.023107632067471906,0.25,0,7,0.0
8.108365284000683,606,808.58,97.0,3.9,-39.2,2.48,1.29,-0.4,0.24,0.92,-0.43,-178.2,-107.4,42.0,0.33,2.85,0.19,0.0,1.0435037134576954,2.823915721122003,0.061513353810866755,0.25,0,7,0.0
8.116430598000079,607,808.59,97.3,3.8,-39.3,2.2,1.83,-0.51,0.22,0.98,-0.44,-179.3,-102.3,47.0,0.36,2.71,0.07,0.0,1.096540012949824,2.9067163604314747,0.11225866023693531,0.25,0,7,0.0
8.12905487900025,608,808.6,97.4,3.8,-39.5,1.82,2.28,-0.49,0.18,1.04,-0.38,-180.3,-96.1,59.0,0.39,2.53,-0.1,0.0,1.1217842929904127,2.9581920154040033,0.13475288147197362,0.25,0,7,0.0
8.138704639000935,609,808.61,97.6,3.8,-39.8,1.52,2.49,-0.49,0.12,1.05,-0.32,-181.2,-88.3,78.0,0.41,2.28,0.01,0.0,1.1042191811411357,2.958141308321832,0.11484401423024271,0.25,0,7,0.0
8.148423304000971,610,808.62,97.7,3.8,-40.0,1.22,2.43,-0.47,0.05,1.05,-0.29,-182.0,-79.0,86.0,0.43,2.04,-0.14,0.0,1.0904586191139947,2.7593839892265812,0.09906178315903968,0.25,0,7,0.0
8.156474798001,611,808.63,97.8,3.8,-40.3,1.01,2.08,-0.49,0.0,1.0,-0.3,-182.7,-67.5,112.0,0.45,1.67,-0.09,0.0,1.044030650891055,2.3635989507528556,0.05158113863737812,0.25,0,7,0.0
8.169259886000873,612,808.64,97.9,3.7,-40.5,0.98,1.65,-0.67,0.0,0.93,-0.3,-183.3,-54.3,122.0,0.46,1.33,0.02,0.0,0.9771898484941399,2.0326829560952193,0.014954470484346283,0.25,0,7,0.0
8.178726531999928,613,808.65,98.0,3.7,-40.6,1.38,1.32,-0.83,0.02,0.97,-0.31,-183.7,-41.7,119.0,0.47,1.0,0.02,0.0,1.0185283501208986,2.082234376817365,0.025856350519564142,0.25,0,7,0.0
8.189265379000062,614,808.66,98.2,3.6,-40.8,1.68,1.1,-0.85,0.01,1.03,-0.3,-184.1,-30.1,119.0,0.48,0.67,-0.1,0.0,1.072846680565308,2.180573319106698,0.07857118734469415,0.25,0,7,0.0
8.198680360001163,615,808.67,98.4,3.5,-40.9,2.49,1.33,-0.79,0.02,1.17,-0.29,-184.3,-20.0,98.0,0.49,0.44,0.16,0.0,1.2055704044144413,2.931398983420715,0.20706901296995084,0.25,0,7,0.0
8.208622684000147,616,808.68,98.7,3.5,-41.0,2.88,1.72,-0.46,0.03,1.33,-0.21,-184.4,-9.5,123.0,0.49,0.06,-0.12,0.0,1.3468110483657312,3.385911989405513,0.3413434637828159,0.25,0,7,0.0
8.216380404999654,617,808.69,98.9,3.5,-41.2,2.32,1.86,-0.01,0.06,1.41,-0.11,-184.4,3.2,93.0,0.49,-0.12,-0.06,0.0,1.4155564276990162,2.973566881709574,0.401887066253779,0.25,0,7,0.0
8.228466180000396,618,808.7,99.0,3.5,-41.4,0.85,1.73,0.46,0.11,1.36,-0.02,-184.4,3.3,15.0,0.49,-0.05,-0.3,0.0,1.3645878498652992,1.981665965797465,0.3439001186516608,0.25,0,7,0.0
8.238798629001394,619,808.71,99.0,3.6,-41.6,-0.48,1.55,0.85,0.16,1.2,0.02,-184.4,1.7,6.0,0.49,-0.06,0.01,0.0,1.2107848694132248,1.8317750953651488,0.1862951954355947,0.25,0,7,0.0
8.248420490001081,620,808.72,98.9,3.7,-41.7,-0.98,1.79,1.04,0.14,1.05,0.06,-184.4,3.6,17.0,0.48,-0.12,0.01,0.0,1.0609901036296239,2.2904366395951667,0.03577042105895378,0.25,0,7,0.0
8.256463667999924,621,808.73,98.8,3.9,-41.9,-0.58,2.34,1.16,0.07,0.98,0.12,-184.3,8.7,53.0,0.48,-0.34,-0.12,0.0,0.9897979591815695,2.675369133409444,0.03471328892131864,0.25,0,7,0.0
8.268814316999851,622,808.74,98.8,4.0,-42.1,0.15,3.03,1.3,0.02,0.97,0.21,-184.1,19.6,112.0,0.48,-0.74,-0.03,0.0,0.9926731586982696,3.3005151113121722,0.031201327616526164,0.25,0,7,0.0
8.278959946999748,623,808.75,98.8,4.2,-42.4,0.83,3.41,1.68,0.0,1.02,0.31,-183.8,38.2,162.0,0.47,-1.26,0.04,0.0,1.0660675400742676,3.890938190205545,0.04134919268428239,0.25,0,7,0.0
8.28836165299981,624,808.76,98.9,4.5,-42.8,0.99,3.37,2.29,0.01,1.02,0.39,-183.3,58.7,200.0,0.45,-1.87,-0.17,0.0,1.0920622692868756,4.19298223225427,0.06599704345895252,0.25,0,7,0.0
8.298713011001382,625,808.77,98.9,4.8,-43.0,0.94,2.74,2.91,0.03,1.0,0.4,-182.5,82.7,237.0,0.42,-2.58,-0.01,0.0,1.0774506949276146,4.1060077934655705,0.050357759717697625,0.25,0,7,0.0
8.308921687001202,626,808.78,99.0,5.1,-43.2,0.99,1.67,3.4,0.08,0.96,0.33,-181.5,110.1,258.0,0.39,-3.31,-0.07,0.0,1.0182828683622247,3.915226685646694,0.008633865510738303,0.25,0,7,0.0
8.31873170000108,627,808.79,99.1,5.5,-43.2,1.7,0.67,3.55,0.12,0.95,0.25,-180.2,134.9,246.0,0.36,-3.95,-0.1,0.0,0.9896464014990405,3.99266828073658,0.03652492572644417,0.25,0,7,0.0
8.328394542000751,628,808.8,99.4,5.9,-43.2,2.91,-0.34,3.28,0.13,0.96,0.2,-178.7,158.0,233.0,0.31,-4.57,-0.18,0.0,0.9891915891272024,4.397965438700036,0.03624014333631653,0.25,0,7,0.0
8.336459919000845,629,808.81,99.8,6.1,-43.1,4.01,-1.23,2.5,0.11,1.0,0.07,-177.0,179.8,228.0,0.26,-5.18,-0.17,0.0,1.0084641788382966,4.882929448599477,0.016628202552717797,0.25,0,7,0.0
8.348970712000664,630,808.82,100.2,6.3,-42.9,4.96,-1.9,1.28,0.09,1.07,-0.07,-175.0,203.3,238.0,0.21,-5.84,-0.13,0.0,1.076057619275102,5.463515351859094,0.049945933126405606,0.25,0,7,0.0
8.358983119000186,631,808.83,100.7,6.3,-42.7,4.83,-2.24,0.05,0.07,1.23,-0.2,-172.8,228.4,243.0,0.14,-6.5,-0.2,0.0,1.2481185841096991,5.324377897933242,0.21756676000178277,0.25,0,7,0.0
8.368375068001114,632,808.84,101.1,6.2,-42.4,2.45,-2.23,-0.65,0.08,1.38,-0.33,-170.4,251.0,223.0,0.07,-7.08,-0.25,0.0,1.4211614968046382,3.376077605743091,0.3827974792427875,0.25,1,8,2.5
8.376486629000283,633,808.85,101.2,6.0,-42.2,-0.58,-1.7,-0.82,0.11,1.36,-0.39,-167.7,272.1,216.0,0.0,-7.65,-0.07,0.0,1.4190842117365694,1.97453792062852,0.37310579029122426,0.25,0,8,2.5
8.38927857300041,634,808.86,101.2,5.9,-42.1,-2.16,-0.76,-0.7,0.13,1.21,-0.39,-164.8,311.1,603.0,-0.08,-10.02,2.34,2.91,1.2779280104919837,2.3944101570115346,0.22731059726570568,0.25,0,8,2.5
8.398676659000557,635,808.87,101.0,5.9,-42.1,-1.89,0.24,-0.47,0.12,1.04,-0.36,-160.7,471.0,1389.0,-0.21,-15.02,2.44,2.91,1.1070682002478438,1.9622945752358385,0.05532177128113447,0.25,0,8,2.5
8.408665934000965,636,808.88,100.8,5.8,-42.2,-0.81,0.96,-0.25,0.16,0.95,-0.29,-154.7,646.8,1624.0,-0.4,-19.78,2.49,2.91,1.006081507632458,1.2807029319869616,0.04475162290756618,0.25,0,8,2.5
8.418734701001085,637,808.89,100.8,5.8,-42.3,1.46,1.33,-0.29,0.2,0.84,-0.22,-147.0,827.2,1800.0,-0.63,-24.91,1.94,2.91,0.8910667763978185,1.9961462872244609,0.15657102705936154,0.25,0,8,2.5
8.428439655999682,638,808.9,101.1,5.8,-42.5,2.92,1.55,-0.5,0.22,0.91,-0.19,-137.5,998.4,1547.0,-0.91,-28.57,0.52,2.91,0.9553009996854395,3.3434862045475824,0.09049006769630574,0.25,0,8,2.5
8.438700726999741,639,808.91,101.4,5.8,-42.6,2.84,1.53,-0.64,0.19,0.97,-0.19,-126.9,1071.3,823.0,-1.2,-29.53,0.23,2.91,1.0065286881157436,3.2887839697979553,0.038477131680681564,0.25,0,8,2.5
8.44904930499979,640,808.92,101.6,5.8,-42.8,2.11,1.52,-0.92,0.15,0.97,-0.2,-116.1,1074.2,136.0,-1.49,-28.75,-0.36,2.91,1.0016985574512922,2.7584234627772437,0.042441117098230174,0.25,0,8,2.5
8.458831036999982,641,808.93,101.7,5.8,-43.0,0.38,1.4,-1.07,0.07,1.01,-0.21,-105.6,1044.4,-87.0,-1.77,-28.24,0.26,2.91,1.0339729203417274,1.8025814822082247,0.009963419123639072,0.25,0,8,2.5
8.468405106001228,642,808.94,101.6,5.7,-43.1,-1.63,1.13,-1.0,-0.01,0.97,-0.15,-95.2,1045.4,-20.0,-2.06,-28.38,0.44,2.91,0.981580358401695,2.221215883249532,0.06110886144239813,0.25,0,8,2.5
