host_time_s,seq,device_time_s,roll,pitch,yaw,gyro_x,gyro_y,gyro_z,accel_x,accel_y,accel_z,belt_length,belt_velocity,belt_acceleration,motor_pos,motor_vel,motor_iq_meas,motor_iq_set,acc_mag,gyro_mag,acc_residual,threshold,heel_strike,hs_count,torque_cmd_nm
2.0676455080001688,1,5790.75,-95.1,1.4,-128.7,0.98,-4.46,-0.98,0.1,-0.93,-0.15,-204.3,0.0,0.0,1.03,0.0,0.01,0.0,0.9473119866232033,4.670374717300529,0.0,0.35,0,0,0.0
2.0745529100004205,2,5790.76,-94.9,1.5,-129.6,0.93,-4.08,-0.67,0.14,-0.94,-0.18,-204.3,0.0,0.0,1.03,0.0,0.01,0.0,0.9672641831474997,4.237947616476636,0.01955315259381052,0.35,0,0,0.0
2.0826691360007317,3,5790.77,-94.9,1.5,-130.0,0.88,-3.81,-0.54,0.15,-0.95,-0.18,-204.3,0.0,0.0,1.03,0.0,-0.18,0.0,0.9784681905918046,3.947416876895573,0.03014201683735307,0.35,0,0,0.0
2.093691289000162,4,5790.78,-94.8,1.6,-130.3,0.84,-3.5,-0.44,0.16,-0.95,-0.19,-204.3,0.0,0.0,1.03,0.0,-0.24,0.0,0.981936861514018,3.62618256572942,0.03293847400437522,0.35,0,0,0.0
2.102506686000197,5,5790.79,-94.7,1.6,-130.7,0.67,-3.16,-0.38,0.16,-0.96,-0.2,-204.3,0.1,2.0,1.03,0.0,-0.3,0.0,0.9935793878699376,3.2525220983107865,0.04368938035308889,0.35,0,0,0.0
2.113569388000542,6,5790.8,-94.7,1.6,-131.0,0.42,-2.77,-0.37,0.14,-0.97,-0.2,-204.3,0.6,6.0,1.03,-0.03,-0.08,0.0,1.0002499687578101,2.8259865534004227,0.04935276201614225,0.35,0,0,0.0
2.122591047000242,7,5790.81,-94.6,1.6,-131.2,0.2,-2.41,-0.42,0.13,-0.99,-0.19,-204.3,2.6,19.0,1.02,-0.12,-0.08,0.0,1.0164152694642086,2.4544856895080893,0.06420770146808985,0.35,0,0,0.0
2.1334750519999943,8,5790.82,-94.6,1.6,-131.5,0.04,-2.09,-0.47,0.13,-1.0,-0.18,-204.2,5.2,25.0,1.02,-0.21,0.15,0.0,1.02435345462394,2.142568551995478,0.07070296889526473,0.35,0,0,0.0
2.142564086000675,9,5790.83,-94.6,1.7,-131.7,-0.01,-1.86,-0.55,0.13,-1.02,-0.18,-204.1,13.0,83.0,1.02,-0.57,-0.15,0.0,1.0438869670610893,1.9396391416962075,0.08843175170576589,0.35,0,0,0.0
2.153397407000739,10,5790.84,-94.6,1.7,-131.8,0.0,-1.64,-0.61,0.13,-1.02,-0.18,-203.9,28.1,130.0,1.01,-0.97,-0.18,0.0,1.0438869670610893,1.7497714136423648,0.08666311667165061,0.35,0,0,0.0
2.166681141000481,11,5790.85,-94.6,1.8,-132.0,0.07,-1.44,-0.64,0.13,-1.02,-0.18,-203.5,44.3,159.0,1.0,-1.47,-0.02,0.0,1.0438869670610893,1.5773712308775003,0.08492985433821765,0.35,0,0,0.0
2.1746502500000133,12,5790.86,-94.6,1.8,-132.1,0.23,-1.27,-0.64,0.13,-1.0,-0.17,-202.9,62.6,173.0,0.98,-1.96,-0.09,0.0,1.0226436329435586,1.4406248644251562,0.062412789816273295,0.35,0,0,0.0
2.1863938530004816,13,5790.87,-94.6,1.9,-132.3,0.32,-1.15,-0.58,0.12,-0.98,-0.16,-202.2,79.9,171.0,0.96,-2.43,-0.17,0.0,1.000199980003999,1.3271397816356798,0.039169754139179336,0.35,0,0,0.0
2.194525464000435,14,5790.88,-94.6,1.9,-132.4,0.39,-1.04,-0.54,0.11,-0.98,-0.15,-201.3,97.6,172.0,0.93,-2.91,-0.02,0.0,0.9974968671630001,1.2350303639992015,0.0357373084722169,0.35,0,0,0.0
2.2025623300005464,15,5790.89,-94.5,2.0,-132.5,0.43,-0.96,-0.47,0.11,-0.97,-0.15,-200.2,115.0,175.0,0.9,-3.38,-0.08,0.0,0.987674035297071,1.152128465059344,0.025396187074162024,0.35,0,0,0.0
2.213392098999975,16,5790.9,-94.5,2.0,-132.6,0.51,-0.88,-0.41,0.1,-0.97,-0.15,-198.9,130.6,156.0,0.86,-3.75,-0.06,0.0,0.986610358753647,1.0966312051004201,0.023845860320123258,0.35,0,0,0.0
2.222544197999923,17,5790.91,-94.5,2.1,-132.7,0.63,-0.8,-0.33,0.1,-0.97,-0.15,-197.5,143.8,127.0,0.82,-4.05,0.09,0.0,0.986610358753647,1.070420478129973,0.02336894311372084,0.35,0,0,0.0
2.233436504000565,18,5790.92,-94.5,2.1,-132.7,0.66,-0.75,-0.25,0.1,-0.97,-0.14,-196.0,151.6,86.0,0.78,-4.21,-0.23,0.0,0.9851395840184273,1.0298543586352393,0.021460205010931044,0.35,0,0,0.0
2.2424795510005424,19,5790.93,-94.4,2.2,-132.8,0.72,-0.67,-0.18,0.1,-0.96,-0.14,-194.5,155.9,43.0,0.73,-4.24,0.0,0.0,0.9752948272189287,0.9998499887483122,0.0113831392472038,0.35,0,0,0.0
2.253226736000215,20,5790.94,-94.4,2.2,-132.9,0.75,-0.61,-0.14,0.1,-0.96,-0.14,-192.9,155.5,6.0,0.69,-4.19,-0.14,0.0,0.9752948272189287,0.9768316129200569,0.011155476462259672,0.35,0,0,0.0
2.2625284089999695,21,5790.95,-94.4,2.3,-132.9,0.75,-0.52,-0.11,0.1,-0.96,-0.15,-191.4,151.6,-32.0,0.65,-4.02,0.15,0.0,0.9767804256842988,0.9192388155425117,0.012388253429077234,0.35,0,0,0.0
2.273349828999926,22,5790.96,-94.3,2.3,-133.0,0.71,-0.42,-0.06,0.1,-0.95,-0.15,-189.9,144.6,-65.0,0.61,-3.78,-0.04,0.0,0.9669539802906858,0.8271033792700886,0.0025105718747550076,0.35,0,0,0.0
2.2825189700006376,23,5790.97,-94.2,2.3,-133.0,0.68,-0.3,-0.01,0.1,-0.95,-0.15,-188.5,135.4,-91.0,0.58,-3.52,-0.1,0.0,0.9669539802906858,0.7433034373659253,0.0024603604372599452,0.35,0,0,0.0
2.2933536740001728,24,5790.98,-94.2,2.3,-133.1,0.7,-0.16,0.03,0.1,-0.96,-0.15,-187.2,124.6,-101.0,0.54,-3.21,0.09,0.0,0.9767804256842988,0.718679344353238,0.012041069714255448,0.35,0,0,0.0
2.302538431999892,25,5790.99,-94.1,2.3,-133.1,0.78,-0.03,0.08,0.1,-0.96,-0.15,-186.1,113.9,-105.0,0.51,-2.94,-0.03,0.0,0.9767804256842988,0.7846655338422862,0.011800248319970286,0.35,0,0,0.0
2.313276479000706,26,5791.0,-94.0,2.3,-133.1,0.84,0.1,0.15,0.11,-0.95,-0.15,-185.1,106.2,-109.0,0.49,-2.75,0.31,0.0,0.9680392554023829,0.8591274643497319,0.002997896477293316,0.35,0,0,0.0
2.3225784870001007,27,5791.01,-93.9,2.3,-133.0,0.93,0.26,0.23,0.12,-0.95,-0.16,-183.9,97.2,-82.0,0.46,-2.57,-0.03,0.0,0.9708243919473799,0.9926731586982697,0.005667372361844558,0.35,0,0,0.0
2.333373797000604,28,5791.02,-93.8,2.2,-133.0,1.03,0.43,0.32,0.12,-0.95,-0.16,-183.0,92.4,-57.0,0.43,-2.46,0.02,0.0,0.9708243919473799,1.1611201488218177,0.005554024914607658,0.35,0,0,0.0
2.342510518999916,29,5791.03,-93.7,2.2,-132.9,1.12,0.63,0.4,0.12,-0.95,-0.16,-182.0,91.0,-16.0,0.41,-2.48,0.19,0.0,0.9708243919473799,1.3458454591816997,0.005442944416315543,0.35,0,0,0.0
2.353680271000485,30,5791.04,-93.6,2.2,-132.9,1.19,0.83,0.47,0.13,-0.95,-0.17,-181.1,92.9,6.0,0.38,-2.54,-0.08,0.0,0.9738069623903908,1.5250901612691625,0.008257004562139847,0.35,0,0,0.0
2.362495168999885,31,5791.05,-93.5,2.1,-132.8,1.25,1.04,0.51,0.13,-0.94,-0.17,-180.2,94.5,13.0,0.36,-2.58,0.01,0.0,0.9640539403996023,1.7041713528867923,0.0014660970800756123,0.35,0,0,0.0
2.3735821300006137,32,5791.06,-93.3,2.1,-132.6,1.2,1.23,0.55,0.13,-0.95,-0.16,-179.2,98.7,39.0,0.33,-2.74,-0.07,0.0,0.972111104761179,1.8042727066604982,0.006459245935870994,0.35,0,0,0.0
2.382493384000554,33,5791.07,-93.2,2.0,-132.5,1.12,1.37,0.56,0.12,-0.96,-0.15,-178.2,104.2,47.0,0.3,-2.89,-0.32,0.0,0.9790301323248431,1.8560441805086432,0.013110708029544393,0.35,0,0,0.0
2.3935698300001604,34,5791.08,-93.1,2.0,-132.4,1.04,1.5,0.55,0.11,-0.96,-0.15,-177.1,111.4,74.0,0.27,-3.14,0.0,0.0,0.9778547949465708,1.9063315556324403,0.011696663238246585,0.35,0,0,0.0
2.4025891540004523,35,5791.09,-93.0,1.9,-132.2,0.99,1.62,0.58,0.1,-0.96,-0.15,-175.9,117.7,56.0,0.24,-3.25,0.16,0.0,0.9767804256842988,1.9851700179077862,0.010409848096455065,0.35,0,0,0.0
2.4133526020004865,36,5791.1,-92.9,1.9,-132.0,0.98,1.78,0.66,0.1,-0.95,-0.16,-174.8,121.5,48.0,0.21,-3.36,0.07,0.0,0.9685556256612213,2.1364456463949653,0.0021413471119100524,0.35,0,0,0.0
2.4225032029999056,37,5791.11,-92.8,1.8,-131.8,1.0,1.97,0.76,0.09,-0.94,-0.16,-173.6,124.4,29.0,0.18,-3.4,0.09,0.0,0.9577577981932592,2.3363432966925046,0.008483350748931029,0.35,0,0,0.0
2.4333694820006713,38,5791.12,-92.7,1.7,-131.6,0.95,2.14,0.87,0.08,-0.93,-0.16,-172.4,122.9,-17.0,0.14,-3.27,0.01,0.0,0.9470480452437459,2.497799031147222,0.018809241624475503,0.35,0,0,0.0
2.4425237060004292,39,5791.13,-92.6,1.6,-131.4,0.89,2.29,0.92,0.08,-0.94,-0.15,-171.2,116.3,-58.0,0.11,-3.06,0.05,0.0,0.9552486587271399,2.62347098325863,0.010396455578259856,0.35,0,0,0.0
2.4533581260002393,40,5791.14,-92.5,1.6,-131.2,0.81,2.39,0.95,0.07,-0.94,-0.13,-170.1,104.4,-120.0,0.08,-2.61,-0.04,0.0,0.9515250916292224,2.6964235572328024,0.013837622222653834,0.35,0,0,0.0
2.462479232000078,41,5791.15,-92.5,1.5,-130.9,0.71,2.44,0.95,0.05,-0.94,-0.12,-169.2,86.7,-159.0,0.06,-2.13,0.08,0.0,0.9489467845985885,2.7129688534887384,0.016087610668221952,0.35,0,0,0.0
2.473401909000131,42,5791.16,-92.5,1.4,-130.7,0.56,2.41,0.95,0.04,-0.94,-0.11,-168.4,64.4,-226.0,0.04,-1.39,0.07,0.0,0.9472592042308167,2.6503207353073326,0.01741968721527387,0.35,0,0,0.0
2.4824829190001765,43,5791.17,-92.4,1.4,-130.4,0.54,2.31,0.92,0.03,-0.94,-0.12,-168.0,36.6,-261.0,0.04,-0.64,0.2,0.0,0.9481033698917012,2.544425278918601,0.01624401112330154,0.35,0,0,0.0
2.493630951999876,44,5791.18,-92.4,1.3,-130.2,0.47,2.22,0.92,0.02,-0.91,-0.15,-167.8,6.8,-282.0,0.03,0.15,0.14,0.0,0.9224966124599049,2.4486118516416604,0.041013753183995916,0.35,0,0,0.0
2.502603562999866,45,5791.19,-92.5,1.2,-130.0,0.31,2.14,0.99,0.02,-0.9,-0.18,-167.9,-10.5,-159.0,0.04,0.35,-0.06,0.0,0.9180413934022801,2.378192591023696,0.04455959279678834,0.35,0,0,0.0
2.5133701479999218,46,5791.2,-92.4,1.1,-129.8,0.18,2.09,1.12,0.03,-0.9,-0.2,-168.0,-14.9,-84.0,0.04,0.48,0.09,0.0,0.9224424101265076,2.378003364169193,0.03935540455110953,0.35,0,0,0.0
2.5225861070002793,47,5791.21,-92.4,1.0,-129.5,0.08,2.11,1.27,0.04,-0.91,-0.22,-168.2,-23.2,-101.0,0.05,0.8,0.05,0.0,0.9370699013414101,2.4640211038057283,0.024233355069482876,0.35,0,0,0.0
2.5335487290003584,48,5791.22,-92.4,0.9,-129.3,-0.01,2.2,1.39,0.06,-0.94,-0.24,-168.6,-39.6,-148.0,0.06,1.27,0.2,0.0,0.9720082304178294,2.6023450962545303,0.010490874526797644,0.35,0,0,0.0
2.542558898000607,49,5791.23,-92.4,0.7,-129.1,-0.24,2.34,1.4,0.06,-0.99,-0.24,-169.1,-56.6,-155.0,0.08,1.7,0.0,0.0,1.020441081101697,2.7373710015268298,0.05774525070645209,0.35,0,0,0.0
2.5533540520000315,50,5791.24,-92.5,0.6,-128.8,-0.68,2.52,1.26,0.04,-1.05,-0.22,-169.8,-69.9,-135.0,0.1,2.05,0.22,0.0,1.0735455276791945,2.898344354972335,0.10863270333827058,0.35,0,0,0.0
2.562479245000759,51,5791.25,-92.6,0.5,-128.6,-1.09,2.65,1.01,0.02,-1.09,-0.18,-170.5,-81.4,-128.0,0.12,2.38,0.17,0.0,1.104943437466371,3.0382067079117574,0.13723000086293802,0.35,0,0,0.0
2.5733911770003033,52,5791.26,-92.7,0.4,-128.3,-1.22,2.63,0.77,0.06,-1.08,-0.16,-171.5,-98.1,-180.0,0.15,2.96,0.13,0.0,1.0934349546269317,2.9996999849984998,0.1232070876630289,0.35,0,0,0.0
2.5826458370002,53,5791.27,-92.9,0.4,-128.0,-1.23,2.54,0.64,0.1,-1.04,-0.17,-172.6,-123.1,-228.0,0.18,3.65,0.19,0.0,1.058536725862641,2.8938037252032145,0.0865426817207634,0.35,0,0,0.0
2.593457199000113,54,5791.28,-93.0,0.3,-127.8,-1.34,2.52,0.62,0.11,-1.03,-0.21,-173.9,-141.6,-183.0,0.22,3.99,-0.15,0.0,1.056929515152264,2.920684851195007,0.08323676159017857,0.35,0,0,0.0
2.6025295810004536,55,5791.29,-93.1,0.3,-127.5,-1.69,2.71,0.41,0.04,-1.11,-0.18,-175.3,-147.6,-77.0,0.26,4.02,-0.08,0.0,1.1252110913068714,3.2199844720122486,0.1484879709898902,0.35,0,0,0.0
2.613359343000411,56,5791.3,-93.4,0.3,-127.3,-2.04,2.71,0.04,0.0,-1.13,-0.09,-176.8,-147.3,-11.0,0.3,3.92,0.0,0.0,1.1335784048754634,3.3922411470884555,0.15371817886731254,0.35,0,0,0.0
2.6225969410006655,57,5791.31,-93.6,0.3,-127.0,-2.19,2.44,-0.28,-0.05,-1.2,-0.03,-178.2,-138.8,74.0,0.34,3.57,0.18,0.0,1.2014158314255725,3.2906078465839714,0.21712449330907324,0.35,0,0,0.0
2.6333576780007206,58,5791.32,-93.8,0.3,-126.8,-2.22,2.14,-0.64,-0.07,-1.24,-0.02,-179.5,-124.9,125.0,0.37,3.14,-0.2,0.0,1.2421352583354197,3.149222126176558,0.25268704181454205,0.35,0,0,0.0
2.6425460700002077,59,5791.33,-94.0,0.4,-126.6,-1.93,1.81,-0.93,-0.07,-1.23,0.0,-180.7,-105.4,164.0,0.4,2.65,-0.05,0.0,1.2319902597017558,2.8046211865419544,0.2376912023172606,0.35,0,0,0.0
2.653081286000088,60,5791.34,-94.1,0.5,-126.4,-1.25,1.41,-1.1,-0.06,-1.17,0.01,-181.7,-89.1,156.0,0.42,2.23,0.06,0.0,1.1715801295686095,2.1818799233688364,0.17373545074043195,0.35,0,0,0.0
2.6623056250000445,61,5791.35,-94.2,0.6,-126.3,-0.76,1.24,-1.04,-0.03,-1.06,-0.04,-182.5,-75.6,137.0,0.44,1.89,-0.17,0.0,1.0611785900591852,1.787959731090161,0.06206723300638761,0.35,0,0,0.0
2.6734851370001707,62,5791.36,-94.2,0.7,-126.2,-0.52,1.29,-0.93,0.03,-0.98,-0.09,-183.2,-65.0,108.0,0.46,1.66,0.03,0.0,0.9845811292118085,1.6731407591712062,0.01423962328416939,0.35,0,0,0.0
2.6824970229999963,63,5791.37,-94.3,0.8,-126.1,-0.49,1.52,-0.75,0.1,-0.88,-0.11,-183.8,-56.1,95.0,0.47,1.42,0.0,0.0,0.892468486838611,1.7643695757975424,0.10422522034421955,0.35,0,0,0.0
2.6933544210005493,64,5791.38,-94.4,0.9,-125.9,-0.75,1.86,-0.51,0.17,-0.84,-0.12,-184.3,-47.6,82.0,0.49,1.22,0.21,0.0,0.8653900854527974,2.069347723317664,0.12867754929543251,0.35,0,0,0.0
2.7025530199998684,65,5791.39,-94.5,1.0,-125.7,-1.12,2.24,-0.24,0.23,-0.83,-0.13,-184.7,-42.1,62.0,0.5,1.08,0.0,0.0,0.8710338684574785,2.515869630962622,0.12057309096493629,0.35,0,0,0.0
2.7135751280002296,66,5791.4,-94.6,1.0,-125.4,-1.44,2.56,-0.03,0.27,-0.87,-0.11,-185.1,-37.1,51.0,0.51,0.95,-0.01,0.0,0.9175510884958941,2.9373627627516488,0.07257475350799036,0.35,0,0,0.0
2.722746410000582,67,5791.41,-94.7,1.0,-125.2,-1.58,2.86,0.13,0.28,-0.92,-0.11,-185.4,-35.0,15.0,0.52,0.97,0.28,0.0,0.9679359482941008,3.2699999999999996,0.021746095835587953,0.35,0,0,0.0
2.7334394690005865,68,5791.42,-94.9,1.0,-124.9,-1.62,3.12,0.24,0.25,-0.99,-0.1,-185.8,-38.1,-16.0,0.53,1.08,-0.13,0.0,1.0259629622944486,3.523691246406246,0.03555529980146466,0.35,0,0,0.0
2.7464645950003614,69,5791.43,-95.0,1.0,-124.5,-1.47,3.34,0.33,0.18,-1.03,-0.09,-186.2,-44.0,-44.0,0.54,1.25,0.2,0.0,1.0494760597555335,3.664068776647076,0.0578870293172985,0.35,0,0,0.0
2.754259818000719,70,5791.44,-95.1,1.0,-124.2,-1.04,3.46,0.44,0.09,-1.05,-0.06,-186.7,-49.6,-51.0,0.55,1.41,0.0,0.0,1.0555567251455509,3.6396153642933204,0.06268834081316954,0.35,0,0,0.0
2.7662436310001794,71,5791.45,-95.2,1.0,-123.8,-0.54,3.57,0.52,0.01,-1.05,-0.05,-187.2,-56.4,-64.0,0.57,1.6,0.0,0.0,1.0512373661547614,3.647862387755328,0.0572016021859324,0.35,0,0,0.0
2.7745223190004253,72,5791.46,-95.2,1.0,-123.5,-0.24,3.55,0.58,-0.05,-1.02,-0.01,-187.8,-61.0,-31.0,0.59,1.64,0.04,0.0,1.0212737145349429,3.6050658801192523,0.026693191554791662,0.35,0,0,0.0
2.782513647000087,73,5791.47,-95.2,1.0,-123.1,-0.31,3.48,0.68,-0.09,-0.99,-0.01,-188.5,-60.6,-12.0,0.6,1.65,-0.11,0.0,0.9941327879111522,3.559339826428491,0.0004387803676190183,0.35,0,0,0.0
2.7932645670007332,74,5791.48,-95.3,0.9,-122.8,-0.6,3.35,0.74,-0.09,-0.98,0.0,-189.1,-61.4,-5.0,0.62,1.64,-0.09,0.0,0.9841239759298621,3.482829309627447,0.010238640501930907,0.35,0,0,0.0
2.802324145000057,75,5791.49,-95.3,0.9,-122.4,-0.87,3.18,0.77,-0.09,-0.98,0.0,-189.7,-59.8,8.0,0.64,1.61,0.16,0.0,0.9841239759298621,3.3855870982740943,0.010033867691892295,0.35,0,0,0.0
2.8133481600007144,76,5791.5,-95.4,0.8,-122.1,-1.03,3.05,0.84,-0.06,-0.97,0.0,-190.3,-59.7,6.0,0.65,1.6,0.15,0.0,0.9718538984847466,3.327010670256409,0.021857866234267664,0.35,0,0,0.0
2.8225337990006665,77,5791.51,-95.5,0.8,-121.8,-1.05,3.03,0.94,-0.03,-0.97,-0.02,-190.8,-58.2,17.0,0.67,1.54,0.16,0.0,0.9706698717895801,3.341706151055176,0.022581055070845513,0.35,0,0,0.0
2.8334797060006167,78,5791.52,-95.5,0.7,-121.5,-1.02,3.07,1.01,0.0,-0.97,-0.02,-191.4,-56.8,5.0,0.68,1.55,-0.04,0.0,0.9702061636580134,3.3890116553355196,0.022583867938363977,0.35,0,0,0.0
2.8424852000007377,79,5791.53,-95.6,0.6,-121.2,-0.91,3.2,1.02,0.04,-1.0,-0.02,-192.0,-56.7,0.0,0.7,1.55,-0.09,0.0,1.000999500499376,3.479727000786125,0.008045279524938609,0.35,0,0,0.0
2.853330785000253,80,5791.54,-95.6,0.6,-120.8,-0.74,3.36,0.96,0.07,-1.01,-0.01,-192.6,-57.7,-5.0,0.71,1.57,-0.11,0.0,1.0124722218411721,3.5719462481957924,0.019127640849400107,0.35,0,0,0.0
2.862431741000364,81,5791.55,-95.7,0.5,-120.5,-0.52,3.52,0.88,0.07,-0.99,0.0,-193.1,-55.7,21.0,0.73,1.46,0.0,0.0,0.9924716620639604,3.6654058438323034,0.000855460549255338,0.35,0,0,0.0
2.873528673000692,82,5791.56,-95.7,0.5,-120.1,-0.3,3.7,0.87,0.08,-0.97,0.0,-193.7,-53.5,15.0,0.74,1.44,-0.05,0.0,0.9732933781753578,3.8127286816661896,0.019633069549100823,0.35,0,0,0.0
2.8825756390006063,83,5791.57,-95.7,0.4,-119.7,-0.15,3.89,0.88,0.07,-0.96,0.01,-194.2,-50.8,28.0,0.76,1.32,-0.04,0.0,0.9626006440887104,3.9911151323909464,0.029719287563033214,0.35,0,0,0.0
2.89326279099987,84,5791.58,-95.8,0.4,-119.3,-0.12,4.08,0.87,0.04,-0.95,0.0,-194.7,-47.3,36.0,0.77,1.22,-0.16,0.0,0.9508417323613851,4.173451808754955,0.04064863530455132,0.35,0,0,0.0
2.9024377890000324,85,5791.59,-95.7,0.3,-118.9,-0.13,4.26,0.84,0.01,-0.94,0.0,-195.1,-42.7,42.0,0.78,1.1,-0.19,0.0,0.9400531899844816,4.343972836010833,0.050408434127825696,0.35,0,0,0.0
2.913228989000345,86,5791.6,-95.7,0.3,-118.5,-0.15,4.38,0.84,-0.01,-0.93,0.0,-195.5,-36.1,66.0,0.79,0.87,0.03,0.0,0.9300537618869138,4.462342434193055,0.05919970498088567,0.35,0,0,0.0
2.9225204320000557,87,5791.61,-95.6,0.2,-118.0,-0.18,4.46,0.79,-0.04,-0.93,0.0,-195.8,-26.9,91.0,0.8,0.58,0.04,0.0,0.9308598175880191,4.533001213324346,0.057225776294184794,0.35,0,0,0.0
2.933292595000239,88,5791.62,-95.6,0.2,-117.6,-0.25,4.48,0.72,-0.07,-0.94,0.0,-196.0,-18.6,68.0,0.8,0.45,-0.04,0.0,0.9426027795418386,4.5443701433752075,0.04457315805355799,0.35,0,0,0.0
2.942619340999954,89,5791.63,-95.7,0.2,-117.1,-0.48,4.44,0.63,-0.09,-0.97,-0.03,-196.2,-12.7,59.0,0.81,0.28,0.24,0.0,0.9746281342132496,4.510088690923938,0.012296847314504089,0.35,0,0,0.0
2.9533907740005816,90,5791.64,-95.7,0.2,-116.7,-0.65,4.35,0.52,-0.1,-0.99,-0.05,-196.2,-6.7,68.0,0.81,0.08,0.07,0.0,0.9962931295557548,4.4289276354440466,0.009180785067441133,0.35,0,0,0.0
2.962448747000053,91,5791.65,-95.8,0.1,-116.2,-0.65,4.26,0.47,-0.09,-1.01,-0.07,-196.3,0.1,53.0,0.81,-0.03,0.16,0.0,1.0164152694642086,4.334858705886502,0.028716866476377056,0.35,0,0,0.0
2.9733046410001407,92,5791.66,-95.8,0.1,-115.8,-0.54,4.17,0.45,-0.1,-1.04,-0.07,-196.3,-0.2,14.0,0.81,0.0,-0.08,0.0,1.0471389592599447,4.228829625321881,0.058251745146670975,0.35,0,0,0.0
2.9826149130003614,93,5791.67,-95.9,0.0,-115.4,-0.38,4.08,0.44,-0.1,-1.06,-0.07,-196.3,0.0,1.0,0.81,0.01,-0.16,0.0,1.0670051546267245,4.121213413547035,0.07655558170318177,0.35,0,0,0.0
2.993344490000709,94,5791.68,-95.9,0.0,-115.0,-0.16,3.94,0.4,-0.09,-1.07,-0.07,-196.3,-0.4,-1.0,0.81,0.01,0.0,0.0,1.076057619275102,3.96348331647807,0.08389588542452797,0.35,0,0,0.0
3.0024881469998945,95,5791.69,-95.9,0.0,-114.6,-0.01,3.77,0.37,-0.08,-1.05,-0.07,-196.3,-0.9,-2.0,0.81,0.03,0.07,0.0,1.0553672346628922,3.7881261858602335,0.06194139079607186,0.35,0,0,0.0
3.013225119000708,96,5791.7,-95.8,0.0,-114.2,-0.01,3.56,0.41,-0.06,-1.03,-0.06,-196.3,-1.6,-5.0,0.81,0.05,0.07,0.0,1.0334892355511014,3.5835457301393547,0.039262123850595465,0.35,0,0,0.0
3.0224223820005136,97,5791.71,-95.8,-0.1,-113.9,-0.19,3.36,0.55,-0.04,-1.03,-0.07,-196.3,-3.5,-21.0,0.81,0.14,0.0,0.0,1.0331505214633538,3.410014662725074,0.03814494156759096,0.35,0,0,0.0
3.0332941360002224,98,5791.72,-95.9,-0.1,-113.5,-0.39,3.2,0.71,-0.03,-1.06,-0.09,-196.4,-8.0,-53.0,0.81,0.33,-0.02,0.0,1.0642368157510809,3.300939260271234,0.06784661113821167,0.35,0,0,0.0
3.042580502000419,99,5791.73,-95.9,-0.2,-113.2,-0.47,3.1,0.99,-0.03,-1.06,-0.11,-196.5,-18.4,-86.0,0.82,0.61,0.08,0.0,1.0661144403862093,3.2880085158040577,0.06832975105787331,0.35,0,0,0.0
3.0532759620000434,100,5791.74,-95.9,-0.3,-112.9,-0.41,3.01,1.31,-0.04,-1.08,-0.1,-196.8,-26.2,-69.0,0.83,0.79,0.16,0.0,1.0853570840972109,3.3082170424565556,0.0858209468734974,0.35,0,0,0.0
3.0622960010005045,101,5791.75,-96.0,-0.4,-112.6,-0.08,2.92,1.56,-0.04,-1.09,-0.1,-197.1,-31.6,-58.0,0.83,0.91,0.0,0.0,1.0953081758117211,3.3115555257310723,0.09385659781624756,0.35,0,0,0.0
3.073511958999916,102,5791.76,-95.9,-0.6,-112.3,0.38,2.85,1.66,-0.04,-1.07,-0.09,-197.4,-36.1,-46.0,0.84,1.02,-0.15,0.0,1.074523150053083,3.3200150602068055,0.0716101406164571,0.35,0,0,0.0
3.082472974000666,103,5791.77,-95.9,-0.7,-112.0,0.67,2.75,1.66,-0.05,-1.03,-0.08,-197.8,-39.5,-37.0,0.85,1.11,0.0,0.0,1.034311365112073,3.281310713724014,0.030770388561938145,0.35,0,0,0.0
3.0932723109999642,104,5791.78,-95.8,-0.9,-111.7,0.73,2.62,1.6,-0.06,-1.0,-0.08,-198.2,-41.1,-14.0,0.87,1.11,0.08,0.0,1.004987562112089,3.1555189747488446,0.0014176538507149061,0.35,0,0,0.0
3.102511508000134,105,5791.79,-95.7,-1.1,-111.4,0.7,2.48,1.55,-0.07,-0.98,-0.07,-198.6,-39.9,11.0,0.88,1.04,-0.1,0.0,0.9849873095629201,3.0071414998300297,0.018210946724484756,0.35,0,0,0.0
3.113404248000734,106,5791.8,-95.6,-1.2,-111.2,0.72,2.32,1.5,-0.08,-0.99,-0.07,-199.0,-36.9,18.0,0.89,0.99,-0.09,0.0,0.9956907150315303,2.8549605951746515,0.007357390430757005,0.35,0,0,0.0
3.1223315200004436,107,5791.81,-95.6,-1.4,-111.0,0.87,2.16,1.46,-0.09,-0.99,-0.07,-199.4,-34.2,35.0,0.9,0.86,0.13,0.0,0.9965440281292142,2.7484723029348506,0.006373995786411735,0.35,0,0,0.0
3.1334913620003135,108,5791.82,-95.4,-1.5,-110.7,1.12,1.99,1.43,-0.1,-0.99,-0.07,-199.7,-30.5,26.0,0.9,0.8,-0.07,0.0,0.9974968671630001,2.6943273743181244,0.005312733617573229,0.35,0,0,0.0
3.1427225080005883,109,5791.83,-95.3,-1.7,-110.5,1.43,1.84,1.4,-0.12,-0.98,-0.08,-200.0,-26.9,34.0,0.91,0.68,-0.12,0.0,0.9905553997631833,2.7185474062447392,0.012009116997042213,0.35,0,0,0.0
3.1532873710002605,110,5791.84,-95.2,-1.9,-110.3,1.69,1.68,1.41,-0.12,-0.97,-0.09,-200.2,-23.7,34.0,0.92,0.59,0.02,0.0,0.9815294188153506,2.768862582361212,0.020614395985977363,0.35,0,0,0.0
3.1624323410005672,111,5791.85,-95.0,-2.1,-110.2,1.9,1.54,1.39,-0.12,-0.95,-0.08,-200.4,-20.2,38.0,0.92,0.48,0.08,0.0,0.9608850087289321,2.813129929455801,0.0404336299509479,0.35,0,0,0.0
3.173292303999915,112,5791.86,-94.8,-2.2,-110.0,2.03,1.43,1.36,-0.12,-0.95,-0.08,-200.6,-14.8,49.0,0.93,0.34,0.0,0.0,0.9608850087289321,2.831148176976966,0.039624957351928836,0.35,0,0,0.0
3.182677667000462,113,5791.87,-94.6,-2.4,-109.9,2.08,1.33,1.26,-0.12,-0.95,-0.07,-200.7,-5.7,90.0,0.93,0.0,-0.04,0.0,0.9601041610158764,2.7718044664081196,0.039597688963684874,0.35,0,0,0.0
3.1932663300003696,114,5791.88,-94.4,-2.6,-109.7,1.97,1.2,1.12,-0.13,-0.94,-0.06,-200.7,2.2,53.0,0.93,-0.04,0.0,0.0,0.9508417323613851,2.5642347786425486,0.047882915265812565,0.35,0,0,0.0
3.2027253800006292,115,5791.89,-94.2,-2.7,-109.6,1.72,1.05,0.92,-0.13,-0.94,-0.07,-200.7,-0.2,3.0,0.93,0.01,0.0,0.0,0.9515250916292224,2.215242650365869,0.046255564878015853,0.35,0,0,0.0
3.213057910000316,116,5791.9,-94.1,-2.8,-109.5,1.48,0.93,0.69,-0.12,-0.95,-0.07,-200.7,0.1,7.0,0.93,-0.01,0.01,0.0,0.9601041610158764,1.8792019582790989,0.03692296558153463,0.35,0,0,0.0
3.222579296000731,117,5791.91,-93.9,-2.9,-109.4,1.31,0.81,0.46,-0.12,-0.96,-0.08,-200.7,0.1,-2.0,0.93,0.0,-0.07,0.0,0.9707728879609278,1.607420293513803,0.02572915386375363,0.35,0,0,0.0
3.233468009000717,118,5791.92,-93.8,-3.0,-109.3,1.21,0.73,0.26,-0.11,-0.97,-0.09,-200.7,0.1,2.0,0.93,0.0,0.06,0.0,0.9803570778037969,1.4368716017793657,0.015822064740466768,0.35,0,0,0.0
3.2425081830006093,119,5791.93,-93.7,-3.1,-109.3,1.16,0.64,0.07,-0.11,-0.98,-0.09,-200.7,0.0,0.0,0.93,0.0,-0.07,0.0,0.9902524930541705,1.3266876045248934,0.005808116500291227,0.35,0,0,0.0
3.2533912600001713,120,5791.94,-93.7,-3.1,-109.2,1.1,0.54,-0.11,-0.1,-0.99,-0.09,-200.7,0.1,2.0,0.93,0.0,-0.07,0.0,0.9990995946350895,1.230325160272682,0.002978205379015164,0.35,0,0,0.0
3.2622656769999594,121,5791.95,-93.6,-3.1,-109.2,1.02,0.48,-0.25,-0.09,-0.99,-0.09,-200.7,0.0,1.0,0.93,0.0,0.0,0.0,0.9981482855768475,1.1546861045323096,0.00198635839435779,0.35,0,0,0.0
3.2734136760000183,122,5791.96,-93.5,-3.1,-109.1,0.91,0.46,-0.34,-0.07,-0.99,-0.08,-200.7,0.0,0.0,0.93,0.0,0.08,0.0,0.9956907150315303,1.0748488265798126,0.0004617879079402698,0.35,0,0,0.0
3.282407014000455,123,5791.97,-93.4,-3.0,-109.1,0.85,0.44,-0.4,-0.06,-0.99,-0.08,-200.7,-0.4,-5.0,0.93,0.03,-0.01,0.0,0.9950376877284598,1.0373523991392701,0.0010925189067905183,0.35,0,0,0.0
3.2932180950001566,124,5791.98,-93.3,-3.0,-109.0,0.88,0.38,-0.44,-0.05,-0.99,-0.08,-200.7,-0.4,-4.0,0.93,0.02,-0.02,0.0,0.9944847912361455,1.0547037498748169,0.0016125070911227057,0.35,0,0,0.0
3.3024070700002994,125,5791.99,-93.3,-2.9,-109.0,0.99,0.28,-0.52,-0.04,-0.98,-0.08,-200.7,-1.3,-7.0,0.93,0.03,0.05,0.0,0.9840731680114034,1.1527792503337315,0.01178364770954754,0.35,0,0,0.0
3.3131964220001464,126,5792.0,-93.2,-2.9,-109.0,1.04,0.17,-0.58,-0.04,-0.95,-0.09,-200.7,-2.1,-15.0,0.93,0.09,-0.04,0.0,0.9550916186418976,1.20287156421623,0.039949893137472325,0.35,0,0,0.0
3.3224483660005717,127,5792.01,-93.1,-2.8,-109.0,0.95,0.05,-0.63,-0.06,-0.94,-0.1,-200.7,-6.1,-38.0,0.93,0.23,0.0,0.0,0.9472064188971694,1.1410083259994206,0.0468783910245566,0.35,0,0,0.0
3.3333705420000115,128,5792.02,-93.1,-2.8,-109.0,0.81,-0.02,-0.63,-0.08,-0.93,-0.1,-200.9,-12.5,-51.0,0.93,0.39,0.05,0.0,0.9387757985802574,1.026352765865616,0.054202831114639194,0.35,0,0,0.0
3.3423919990000286,129,5792.03,-93.0,-2.8,-109.0,0.67,-0.07,-0.56,-0.11,-0.94,-0.1,-201.0,-16.1,-43.0,0.94,0.5,0.08,0.0,0.9516827202382104,0.8760136985230311,0.04046999126755246,0.35,0,0,0.0
3.3535859849998815,130,5792.04,-93.0,-2.8,-109.0,0.6,-0.1,-0.45,-0.13,-0.96,-0.1,-201.2,-21.4,-58.0,0.94,0.68,-0.18,0.0,0.973909646733207,0.7566372975210778,0.01787820347710478,0.35,0,0,0.0
3.36225841400028,131,5792.05,-93.0,-2.8,-109.0,0.58,-0.17,-0.38,-0.14,-0.98,-0.1,-201.5,-28.5,-63.0,0.95,0.85,0.07,0.0,0.9949874371066199,0.7139327699440613,0.0031355951583819097,0.35,0,0,0.0
3.373262982000597,132,5792.06,-92.9,-2.8,-109.0,0.54,-0.26,-0.38,-0.14,-0.98,-0.1,-201.8,-32.8,-47.0,0.96,0.94,-0.07,0.0,0.9949874371066199,0.7096477999684069,0.003072883255214265,0.35,0,0,0.0
3.3824562899999364,133,5792.07,-92.9,-2.8,-109.1,0.42,-0.35,-0.41,-0.13,-0.98,-0.1,-202.1,-36.0,-39.0,0.97,1.02,0.13,0.0,0.9936297097007516,0.6833739825307954,0.0016808527323590727,0.35,0,0,0.0
3.3931706630000917,134,5792.08,-92.9,-2.8,-109.1,0.21,-0.45,-0.47,-0.11,-0.97,-0.11,-202.5,-38.7,-26.0,0.98,1.08,-0.02,0.0,0.9823950325607311,0.6837397165588672,0.009362747919508196,0.35,0,0,0.0
3.4024224089998825,135,5792.09,-92.9,-2.8,-109.1,0.02,-0.58,-0.54,-0.1,-0.95,-0.11,-202.9,-41.6,-28.0,0.99,1.16,-0.08,0.0,0.9615612304996495,0.7927168473042566,0.02959261898097809,0.35,0,0,0.0
3.413063515000431,136,5792.1,-93.0,-2.8,-109.2,-0.17,-0.76,-0.62,-0.09,-0.93,-0.11,-203.3,-41.3,0.0,1.0,1.1,0.03,0.0,0.9407975340103736,0.9954396013822235,0.04934918916084896,0.35,0,0,0.0
3.4224835370005167,137,5792.11,-93.1,-2.7,-109.3,-0.36,-0.94,-0.69,-0.09,-0.92,-0.12,-203.7,-39.2,15.0,1.02,1.04,0.13,0.0,0.932148056909416,1.2203687967167958,0.0568386929365704,0.35,0,0,0.0
3.4333122560001357,138,5792.12,-93.1,-2.7,-109.4,-0.52,-1.19,-0.8,-0.09,-0.92,-0.11,-204.1,-37.8,5.0,1.03,1.05,-0.08,0.0,0.9309135298189624,1.5252868582663395,0.05691175562648365,0.35,0,0,0.0
3.4425219009999637,139,5792.13,-93.2,-2.6,-109.6,-0.66,-1.46,-0.91,-0.11,-0.91,-0.1,-204.5,-40.3,-7.0,1.04,1.09,0.08,0.0,0.922062904578641,1.8426339842735995,0.06444713324946882,0.35,0,0,0.0
3.4533251430002565,140,5792.14,-93.3,-2.6,-109.7,-0.9,-1.78,-0.97,-0.12,-0.9,-0.09,-204.9,-40.1,-1.0,1.05,1.09,0.0,0.0,0.9124143795447329,2.2179495034828904,0.07261374511770935,0.35,0,0,0.0
3.4622516059998816,141,5792.15,-93.4,-2.6,-109.9,-1.17,-2.08,-0.91,-0.11,-0.93,-0.09,-205.3,-41.2,-12.0,1.06,1.14,0.05,0.0,0.9407975340103736,2.554094751570505,0.043345978839027355,0.35,0,0,0.0
3.473254659000304,142,5792.16,-93.6,-2.5,-110.1,-1.24,-2.35,-0.79,-0.11,-0.95,-0.08,-205.7,-42.9,-20.0,1.07,1.19,-0.07,0.0,0.9596874491208062,2.7720389607651623,0.023966942454022866,0.35,0,0,0.0
3.482518552000329,143,5792.17,-93.7,-2.5,-110.4,-1.26,-2.65,-0.55,-0.1,-0.99,-0.07,-206.2,-44.0,-7.0,1.08,1.19,-0.06,0.0,0.9974968671630001,2.985397795939429,0.013565626076407655,0.35,0,0,0.0
3.4933461870004976,144,5792.18,-93.8,-2.5,-110.7,-1.13,-2.89,-0.21,-0.07,-1.03,-0.08,-206.6,-44.4,-13.0,1.09,1.24,-0.13,0.0,1.0354709073653396,3.110160767548842,0.05050887295317219,0.35,0,0,0.0
3.502481285000613,145,5792.19,-93.9,-2.6,-111.0,-0.71,-3.01,0.04,-0.05,-1.06,-0.11,-207.1,-49.4,-50.0,1.11,1.44,0.03,0.0,1.0668645649753299,3.0928627515620537,0.08026447995189923,0.35,0,0,0.0
3.513232500000413,146,5792.2,-94.0,-2.6,-111.3,-0.17,-3.02,0.22,-0.04,-1.05,-0.13,-207.7,-56.7,-54.0,1.12,1.6,0.08,0.0,1.058772874605314,3.0327710101489695,0.07072933379024571,0.35,0,0,0.0
3.522544159000063,147,5792.21,-94.0,-2.6,-111.6,0.19,-2.99,0.28,-0.04,-1.04,-0.11,-208.3,-63.8,-72.0,1.14,1.83,0.06,0.0,1.0465658125507444,3.0090862400403218,0.05735182630096258,0.35,0,0,0.0
3.5332059640004445,148,5792.22,-93.9,-2.7,-111.9,0.29,-3.06,0.21,-0.04,-1.04,-0.08,-209.0,-70.2,-61.0,1.16,1.97,0.0,0.0,1.0438390680559912,3.08087649866073,0.05353258017008522,0.35,0,0,0.0
3.54263425299996,149,5792.23,-93.9,-2.7,-112.2,0.19,-3.14,0.16,-0.02,-1.03,-0.07,-209.7,-75.3,-51.0,1.18,2.1,-0.04,0.0,1.032569610244268,3.149809518050258,0.04141785991119484,0.35,0,0,0.0
3.553184469000371,150,5792.24,-93.9,-2.7,-112.5,0.04,-3.11,0.18,0.0,-1.05,-0.07,-210.5,-79.1,-44.0,1.2,2.2,-0.21,0.0,1.0523307464861036,3.115461442547476,0.059955416229969694,0.35,0,0,0.0
3.56252765499994,151,5792.25,-93.9,-2.7,-112.8,-0.08,-2.97,0.23,0.0,-1.08,-0.06,-211.3,-81.5,-22.0,1.23,2.22,0.17,0.0,1.0816653826391969,2.9799664427640793,0.08750425133540174,0.35,0,0,0.0
3.573308553000061,152,5792.26,-93.9,-2.8,-113.1,-0.04,-2.82,0.28,0.0,-1.09,-0.06,-212.1,-82.3,-10.0,1.25,2.23,-0.07,0.0,1.0916501271011698,2.8341489022279687,0.09553921588142722,0.35,0,0,0.0
3.582527795000715,153,5792.27,-93.8,-2.8,-113.4,0.11,-2.66,0.32,0.0,-1.07,-0.07,-212.9,-81.6,3.0,1.27,2.21,0.08,0.0,1.0722872749408154,2.6814361823470647,0.07465283644665133,0.35,0,0,0.0
3.593297282000094,154,5792.28,-93.8,-2.8,-113.6,0.18,-2.53,0.33,0.0,-1.03,-0.07,-213.7,-80.0,12.0,1.29,2.15,-0.16,0.0,1.0323759005323594,2.5577724683794685,0.034046632797431364,0.35,0,0,0.0
3.6024123070001224,155,5792.29,-93.8,-2.8,-113.9,0.01,-2.51,0.36,-0.02,-1.0,-0.06,-214.5,-77.7,18.0,1.31,2.09,0.04,0.0,1.0019980039900278,2.5357050301641944,0.0035953615299977315,0.35,0,0,0.0
3.6131588170001123,156,5792.3,-93.8,-2.9,-114.1,-0.17,-2.5,0.4,-0.05,-1.01,-0.07,-215.3,-76.0,20.0,1.33,2.03,-0.01,0.0,1.0136567466356645,2.5374987684726076,0.014949022092121789,0.35,0,0,0.0
3.6224697590005235,157,5792.31,-93.8,-2.9,-114.4,-0.2,-2.52,0.38,-0.08,-1.03,-0.06,-216.0,-74.4,7.0,1.35,2.03,0.08,0.0,1.034842983258813,2.5563254878829498,0.03541255354096495,0.35,0,0,0.0
3.6335250030006137,158,5792.32,-93.8,-3.0,-114.6,-0.15,-2.65,0.28,-0.09,-1.05,-0.05,-216.8,-73.5,12.0,1.37,1.97,-0.29,0.0,1.055035544424926,2.6689698387205505,0.05449301241293636,0.35,0,0,0.0
3.6424955370002863,159,5792.33,-93.8,-3.1,-114.9,-0.14,-2.88,0.13,-0.09,-1.06,-0.04,-217.5,-72.6,7.0,1.39,1.96,-0.11,0.0,1.0645656391223606,2.8863298494801315,0.06274264496816362,0.35,0,0,0.0
3.6532891840006414,160,5792.34,-93.8,-3.1,-115.2,-0.19,-3.07,-0.02,-0.07,-1.07,-0.04,-218.2,-72.0,0.0,1.41,1.97,0.07,0.0,1.0730330842988953,3.075938881057294,0.06978588834180433,0.35,0,0,0.0
3.662523761000557,161,5792.35,-93.8,-3.1,-115.5,-0.18,-3.19,-0.16,-0.04,-1.08,-0.04,-218.9,-74.2,-15.0,1.43,2.03,-0.04,0.0,1.081480466767662,3.19907799217212,0.07666860539435971,0.35,0,0,0.0
3.673295046000021,162,5792.36,-93.7,-3.1,-115.8,-0.16,-3.29,-0.28,-0.02,-1.08,-0.03,-219.7,-75.0,-9.0,1.45,2.05,0.02,0.0,1.0806016842481785,3.3057676869374837,0.07427402641737868,0.35,0,0,0.0
3.682583028999943,163,5792.37,-93.7,-3.1,-116.2,-0.07,-3.4,-0.37,-0.01,-1.08,-0.02,-220.5,-75.9,-8.0,1.47,2.07,0.01,0.0,1.0802314566795397,3.420789382584084,0.07242572287176507,0.35,0,0,0.0
3.693117245000394,164,5792.38,-93.7,-3.0,-116.5,-0.05,-3.51,-0.46,0.0,-1.06,-0.01,-221.2,-77.8,-20.0,1.5,2.15,0.02,0.0,1.0600471687618434,3.5403672125925016,0.05119660625498734,0.35,0,0,0.0
3.7025498080001853,165,5792.39,-93.6,-3.0,-116.9,-0.15,-3.62,-0.56,0.0,-1.05,0.0,-222.0,-78.8,-4.0,1.52,2.13,-0.12,0.0,1.05,3.6661287484211464,0.04032644874328106,0.35,0,0,0.0
3.713371821000692,166,5792.4,-93.6,-2.9,-117.3,-0.14,-3.75,-0.69,0.0,-1.04,0.0,-222.8,-79.1,-15.0,1.54,2.18,0.09,0.0,1.04,3.815520934289314,0.02971991976841548,0.35,0,0,0.0
3.7225551370001995,167,5792.41,-93.5,-2.8,-117.7,-0.09,-3.89,-0.77,0.0,-1.01,0.02,-223.6,-80.9,-11.0,1.56,2.2,-0.15,0.0,1.010198000393982,3.9664971952593135,8.043824085035567e-05,0.35,0,0,0.0
3.7332264710003074,168,5792.42,-93.5,-2.7,-118.1,0.0,-4.06,-0.73,0.0,-0.97,0.02,-224.4,-81.9,-4.0,1.58,2.21,0.01,0.0,0.9702061636580134,4.125106059242598,0.039270829477282665,0.35,0,0,0.0
3.742554752000615,169,5792.43,-93.4,-2.7,-118.5,0.22,-4.21,-0.63,-0.01,-0.94,0.02,-225.2,-80.8,3.0,1.6,2.18,0.0,0.0,0.9402659198333203,4.262557917495081,0.06782685183593617,0.35,0,0,0.0
3.753377248000106,170,5792.44,-93.3,-2.6,-118.9,0.41,-4.3,-0.48,-0.02,-0.91,0.02,-226.0,-80.9,5.0,1.63,2.18,-0.15,0.0,0.910439454329611,4.346090196947136,0.09570025099285262,0.35,0,0,0.0
3.7624195369999143,171,5792.45,-93.2,-2.6,-119.4,0.58,-4.41,-0.39,-0.03,-0.9,0.01,-226.9,-80.5,0.0,1.65,2.19,0.0,0.0,0.9005553841935542,4.465041993083604,0.10347263470633139,0.35,0,0,0.0
3.7732422389999556,172,5792.46,-93.0,-2.6,-119.8,0.71,-4.46,-0.35,-0.03,-0.89,0.01,-227.7,-80.6,4.0,1.67,2.17,-0.08,0.0,0.8905616205518853,4.529701976951685,0.11119707038104021,0.35,0,0,0.0
3.782584895000582,173,5792.47,-92.9,-2.6,-120.3,0.74,-4.48,-0.31,-0.03,-0.87,0.0,-228.5,-80.3,0.0,1.69,2.18,0.09,0.0,0.8705170877128146,4.5512745467616,0.1286167711557087,0.35,0,0,0.0
3.7932289300006232,174,5792.48,-92.8,-2.5,-120.7,0.68,-4.46,-0.31,0.0,-0.89,0.0,-229.3,-81.4,-8.0,1.71,2.22,0.11,0.0,0.89,4.52217867846904,0.10695118169115281,0.35,0,0,0.0
3.80586696499995,175,5792.49,-92.7,-2.5,-121.2,0.64,-4.41,-0.31,0.02,-0.91,0.0,-230.1,-80.5,11.0,1.74,2.15,-0.07,0.0,0.9102197536858888,4.466967651550658,0.0849967994451587,0.35,0,0,0.0
3.8139780350002184,176,5792.5,-92.6,-2.4,-121.6,0.65,-4.3,-0.31,0.05,-0.93,0.0,-230.9,-76.6,37.0,1.76,2.0,-0.12,0.0,0.9313431161500041,4.359885319592706,0.06259596824142255,0.35,0,0,0.0
3.8225207430004957,177,5792.51,-92.5,-2.4,-122.0,0.61,-4.17,-0.38,0.07,-0.96,0.0,-231.6,-70.4,59.0,1.78,1.81,-0.05,0.0,0.9625487000666512,4.231477283408243,0.03076257663827997,0.35,0,0,0.0
3.833457497999916,178,5792.52,-92.4,-2.4,-122.4,0.46,-4.15,-0.48,0.09,-0.97,0.0,-232.2,-63.5,65.0,1.79,1.64,-0.03,0.0,0.9741663102366043,4.202915654637861,0.018762067138960337,0.35,0,0,0.0
3.842541603000427,179,5792.53,-92.3,-2.3,-122.9,0.22,-4.15,-0.58,0.08,-0.99,0.0,-232.8,-55.5,74.0,1.81,1.41,0.0,0.0,0.9932270636667125,4.196105337095341,0.0002927125653249263,0.35,0,0,0.0
3.853316270000505,180,5792.54,-92.3,-2.3,-123.3,0.0,-4.17,-0.65,0.06,-1.0,0.0,-233.3,-46.4,86.0,1.82,1.15,-0.07,0.0,1.0017983829094554,4.2203554352684565,0.008686751171906426,0.35,0,0,0.0
3.862441909000154,181,5792.55,-92.3,-2.2,-123.7,-0.08,-4.25,-0.68,0.04,-1.01,-0.01,-233.7,-35.1,117.0,1.83,0.77,-0.14,0.0,1.0108412338245805,4.3047996469057646,0.01737501004529085,0.35,0,0,0.0
3.873388996000358,182,5792.56,-92.3,-2.1,-124.1,-0.03,-4.31,-0.65,0.03,-1.0,-0.02,-234.0,-20.8,147.0,1.83,0.33,-0.15,0.0,1.000649788887201,4.358841589229872,0.007039893805753206,0.35,0,0,0.0
3.8825376140002845,183,5792.57,-92.2,-2.0,-124.6,0.04,-4.35,-0.66,0.02,-1.01,-0.04,-234.0,-2.8,163.0,1.83,-0.11,-0.17,0.0,1.0109896141899777,4.3999659089588405,0.017032124726359288,0.35,0,0,0.0
3.893324940000639,184,5792.58,-92.2,-1.9,-125.0,-0.11,-4.35,-0.64,0.0,-1.02,-0.05,-234.0,8.8,113.0,1.83,-0.33,-0.16,0.0,1.0212247548899311,4.3982041789803255,0.026721920117786513,0.35,0,0,0.0
3.902577333999943,185,5792.59,-92.3,-1.9,-125.4,-0.33,-4.35,-0.64,0.0,-1.05,-0.06,-233.8,16.0,79.0,1.83,-0.5,0.12,0.0,1.0517128885774862,4.409194937854301,0.05606585272923481,0.35,0,0,0.0
3.9131654810007603,186,5792.6,-92.3,-1.8,-125.9,-0.39,-4.31,-0.7,0.0,-1.07,-0.06,-233.6,22.0,73.0,1.82,-0.7,-0.07,0.0,1.0716809226630846,4.383856749484408,0.07451320907853642,0.35,0,0,0.0
3.922517398000309,187,5792.61,-92.3,-1.7,-126.3,-0.36,-4.29,-0.79,0.0,-1.08,-0.06,-233.4,31.7,86.0,1.81,-0.96,-0.29,0.0,1.0816653826391969,4.376962417019365,0.08280771567355572,0.35,0,0,0.0
3.9333273900001586,188,5792.62,-92.4,-1.6,-126.7,-0.3,-4.21,-0.87,0.0,-1.07,-0.08,-233.0,43.2,128.0,1.8,-1.38,0.0,0.0,1.0729864864013898,4.309408312053988,0.0726462430470336,0.35,0,0,0.0
3.942544975000601,189,5792.63,-92.4,-1.5,-127.2,-0.2,-4.07,-0.97,0.01,-1.04,-0.1,-232.4,60.8,164.0,1.78,-1.88,-0.1,0.0,1.04484448603608,4.188770702724129,0.043614157828089306,0.35,0,0,0.0
3.953288166000675,190,5792.64,-92.5,-1.4,-127.6,-0.27,-3.91,-1.04,0.02,-1.02,-0.1,-231.7,80.4,187.0,1.76,-2.44,0.08,0.0,1.02508536229916,4.054947595222409,0.02337793340934602,0.35,0,0,0.0
3.96244151800056,191,5792.65,-92.5,-1.3,-128.0,-0.27,-3.8,-1.13,0.04,-1.0,-0.09,-230.7,100.9,202.0,1.73,-3.0,-0.1,0.0,1.0048382954485762,3.9736381314860565,0.003068249227586861,0.35,0,0,0.0
3.973390166000172,192,5792.66,-92.5,-1.2,-128.3,-0.3,-3.69,-1.17,0.06,-0.99,-0.11,-229.6,122.9,222.0,1.7,-3.63,0.1,0.0,0.9978977903573091,3.882653731663435,0.0037948107464066405,0.35,0,0,0.0
3.9824007719998917,193,5792.67,-92.6,-1.1,-128.7,-0.34,-3.59,-1.22,0.08,-0.99,-0.12,-228.2,145.5,220.0,1.66,-4.23,-0.28,0.0,1.0004498987955368,3.80684909078361,0.0012178482620153197,0.35,0,0,0.0
3.993142655000156,194,5792.68,-92.6,-1.0,-129.1,-0.3,-3.43,-1.2,0.09,-0.98,-0.13,-226.6,169.1,239.0,1.61,-4.92,0.0,0.0,0.9926731586982696,3.6462172178848586,0.008814696592096993,0.35,0,0,0.0
4.00260097499995,195,5792.69,-92.6,-0.9,-129.4,-0.12,-3.27,-1.12,0.1,-0.97,-0.14,-224.7,195.0,253.0,1.56,-5.62,0.14,0.0,0.9851395840184273,3.458569068270865,0.016021305846500522,0.35,0,0,0.0
4.013389321999966,196,5792.7,-92.6,-0.8,-129.7,0.06,-3.08,-1.04,0.1,-0.96,-0.15,-222.6,220.3,252.0,1.49,-6.3,-0.1,0.0,0.9767804256842988,3.2513996985913622,0.023892854897016425,0.35,0,0,0.0
4.022533457999998,197,5792.71,-92.6,-0.7,-130.0,0.17,-2.86,-0.98,0.1,-0.95,-0.15,-220.2,247.4,273.0,1.43,-7.08,-0.07,0.0,0.9669539802906858,3.0280191544968798,0.03304491428481682,0.35,0,0,0.0
4.03333904200008,198,5792.72,-92.6,-0.6,-130.3,0.17,-2.67,-0.91,0.1,-0.94,-0.15,-217.5,275.4,258.0,1.35,-7.75,-0.15,0.0,0.9571311299921239,2.825933474093118,0.04201040929171118,0.35,0,0,0.0
4.042543382000076,199,5792.73,-92.6,-0.5,-130.6,0.1,-2.48,-0.87,0.09,-0.94,-0.16,-214.6,296.7,219.0,1.27,-8.3,-0.15,0.0,0.9577577981932592,2.6300760445279905,0.04055606626876429,0.35,0,0,0.0
4.053250111000125,200,5792.74,-92.5,-0.5,-130.8,0.1,-2.3,-0.85,0.09,-0.94,-0.16,-211.5,317.8,230.0,1.18,-8.95,-0.01,0.0,0.9577577981932592,2.454078238361605,0.03974494494338898,0.35,0,0,0.0
4.0622437629999695,201,5792.75,-92.5,-0.4,-131.0,0.15,-2.15,-0.81,0.09,-0.94,-0.16,-208.1,341.9,222.0,1.09,-9.52,-0.09,0.0,0.9577577981932592,2.3024117789830734,0.038950046044521236,0.35,0,0,0.0
4.073468301000503,202,5792.76,-92.5,-0.3,-131.2,0.23,-1.97,-0.76,0.1,-0.94,-0.17,-204.6,356.5,149.0,0.99,-9.81,-0.07,0.0,0.9604686356149273,2.1240056497100004,0.0355144244503961,0.35,0,0,0.0
4.082459453000411,203,5792.77,-92.5,-0.2,-131.4,0.36,-1.74,-0.69,0.12,-0.93,-0.18,-201.0,368.9,144.0,0.89,-10.2,0.08,0.0,0.954829827770373,1.9061217169950087,0.04033016764905151,0.35,0,0,0.0
4.09323498699996,204,5792.78,-92.4,-0.2,-131.6,0.47,-1.52,-0.6,0.13,-0.93,-0.19,-197.2,375.5,39.0,0.79,-10.13,0.01,0.0,0.9580709785814411,1.7003823099526765,0.036347236501223734,0.35,0,0,0.0
4.102494181000111,205,5792.79,-92.4,-0.1,-131.7,0.51,-1.26,-0.52,0.15,-0.94,-0.2,-193.5,362.3,-103.0,0.69,-9.6,-0.01,0.0,0.9726767191621274,1.4553693689232299,0.021306666002126717,0.35,0,0,0.0
4.113143074000618,206,5792.8,-92.3,-0.1,-131.8,0.48,-0.94,-0.48,0.15,-0.94,-0.21,-190.1,341.3,-183.0,0.6,-8.98,-0.01,0.0,0.9747820269167872,1.1594826432508594,0.018817331082517597,0.35,0,0,0.0
4.1224960859999555,207,5792.81,-92.3,0.0,-131.9,0.44,-0.62,-0.42,0.14,-0.95,-0.21,-186.8,314.6,-252.0,0.51,-8.18,-0.03,0.0,0.9829547293746543,0.8685620300243386,0.010431736052157414,0.35,0,0,0.0
4.133243316000517,208,5792.82,-92.2,0.0,-132.0,0.45,-0.35,-0.36,0.12,-0.96,-0.2,-183.9,284.3,-285.0,0.44,-7.36,-0.06,0.0,0.9879271228182775,0.6742403132415029,0.0053501557563635505,0.35,0,0,0.0
4.1423419640004795,209,5792.83,-92.2,0.0,-132.0,0.55,-0.15,-0.28,0.1,-0.95,-0.2,-181.3,252.2,-322.0,0.37,-6.41,0.24,0.0,0.9759610647971567,0.6351377803280168,0.016969889501934676,0.35,0,0,0.0
4.153175860000374,210,5792.84,-92.1,0.0,-132.0,0.7,0.04,-0.15,0.09,-0.93,-0.21,-179.0,216.8,-340.0,0.31,-5.47,0.13,0.0,0.9576533819707421,0.717007670809734,0.03457202088178224,0.35,0,0,0.0
4.162327445000301,211,5792.85,-92.0,0.0,-132.0,0.86,0.24,0.01,0.08,-0.92,-0.22,-177.0,184.9,-303.0,0.26,-4.7,0.0,0.0,0.9493155429044655,0.8929165694509201,0.04205166274909766,0.35,0,0,0.0
4.17333825500009,212,5792.86,-91.9,0.0,-132.0,0.98,0.46,0.19,0.08,-0.91,-0.21,-175.4,161.0,-246.0,0.22,-4.13,-0.06,0.0,0.9373366524360391,1.099136024339117,0.0529499421531735,0.35,0,0,0.0
4.182464421000077,213,5792.87,-91.8,0.0,-131.9,1.11,0.66,0.37,0.08,-0.9,-0.21,-173.9,144.8,-172.0,0.18,-3.78,-0.04,0.0,0.9276313923105449,1.343354011420668,0.06140209823309439,0.35,0,0,0.0
4.193373163000615,214,5792.88,-91.7,0.0,-131.8,1.21,0.86,0.51,0.09,-0.89,-0.21,-172.5,135.2,-104.0,0.14,-3.62,0.03,0.0,0.9188579868510695,1.5696496424361712,0.06877199361871844,0.35,0,0,0.0
4.20245843200064,215,5792.89,-91.6,-0.1,-131.7,1.2,1.04,0.6,0.1,-0.89,-0.2,-171.2,133.9,-23.0,0.11,-3.7,-0.12,0.0,0.9176600677810929,1.6975276139138356,0.06857051443492113,0.35,0,0,0.0
4.213326914999925,216,5792.9,-91.5,-0.1,-131.6,1.05,1.2,0.65,0.11,-0.89,-0.19,-169.8,138.4,33.0,0.07,-3.86,0.01,0.0,0.9166787877986488,1.7219175357722565,0.06816075852901793,0.35,0,0,0.0
4.226572405000297,217,5792.91,-91.4,-0.2,-131.5,0.91,1.32,0.63,0.12,-0.88,-0.19,-168.3,147.1,73.0,0.03,-4.12,0.0,0.0,0.9082400563727632,1.722614292289484,0.07506750015580543,0.35,0,0,0.0
4.234427372000027,218,5792.92,-91.3,-0.3,-131.3,0.73,1.42,0.6,0.12,-0.88,-0.18,-166.8,159.7,123.0,0.0,-4.53,-0.15,0.0,0.9062008607367353,1.705667024949477,0.07556456187599658,0.35,0,0,0.0
4.242424552000557,219,5792.93,-91.2,-0.3,-131.2,0.52,1.49,0.52,0.13,-0.9,-0.16,-165.1,175.7,147.0,-0.05,-4.97,0.0,0.0,0.9233092656309694,1.6615956186750132,0.0572870338421273,0.35,0,0,0.0
4.253271040000072,220,5792.94,-91.2,-0.4,-131.0,0.24,1.52,0.4,0.12,-0.93,-0.14,-163.2,191.5,145.0,-0.11,-5.37,-0.09,0.0,0.9481033698917012,1.5899685531481433,0.031843070989767575,0.35,0,0,0.0
4.262477109999963,221,5792.95,-91.2,-0.4,-130.9,-0.03,1.45,0.25,0.11,-0.97,-0.11,-161.2,202.2,101.0,-0.16,-5.56,-0.15,0.0,0.9823950325607311,1.4716996976285617,0.002399619845677159,0.35,0,0,0.0
4.273197919000268,222,5792.96,-91.2,-0.4,-130.7,-0.23,1.31,0.1,0.1,-1.0,-0.09,-159.2,204.9,32.0,-0.22,-5.53,-0.01,0.0,1.0090094152187083,1.3337915879176927,0.028433722453581334,0.35,0,0,0.0
4.282508903000235,223,5792.97,-91.2,-0.4,-130.6,-0.31,1.15,0.0,0.09,-1.01,-0.09,-157.2,199.1,-48.0,-0.27,-5.27,-0.08,0.0,1.017988212112498,1.1910499569707393,0.03666426896042352,0.35,0,0,0.0
4.293383938000261,224,5792.98,-91.3,-0.4,-130.5,-0.22,0.98,-0.07,0.07,-1.0,-0.11,-155.3,182.9,-152.0,-0.32,-4.68,0.21,0.0,1.0084641788382966,1.0068266980965492,0.026597430972497782,0.35,0,0,0.0
4.302402033999897,225,5792.99,-91.3,-0.4,-130.4,0.06,0.87,-0.02,0.05,-0.96,-0.17,-153.6,151.2,-315.0,-0.36,-3.54,0.25,0.0,0.9762171889492625,0.8722958213817146,0.0055365677382056555,0.35,0,0,0.0
4.313226471000235,226,5793.0,-91.3,-0.4,-130.3,0.43,0.93,0.14,0.05,-0.9,-0.22,-152.7,106.5,-613.0,-0.38,-1.76,0.36,0.0,0.9278469701410896,1.0341179816636012,0.05282865081545096,0.35,0,0,0.0
4.322389749000649,227,5793.01,-91.2,-0.4,-130.2,0.68,1.16,0.58,0.08,-0.86,-0.26,-152.0,22.0,-707.0,-0.38,0.25,0.24,0.0,0.9019977827023744,1.4643770006388384,0.07710428148908288,0.35,0,0,0.0
4.333273879000444,228,5793.02,-91.1,-0.5,-130.1,0.45,1.6,0.78,0.08,-0.92,-0.28,-152.2,-28.4,-472.0,-0.38,1.1,-0.13,0.0,0.9649870465451855,1.8360010893242957,0.013832717293346342,0.35,0,0,0.0
4.342545434000385,229,5793.03,-91.1,-0.6,-129.9,-0.3,2.09,0.75,0.05,-0.99,-0.25,-152.7,-51.9,-313.0,-0.36,1.72,0.08,0.0,1.02230132544177,2.240669542792957,0.0426119303711735,0.35,0,0,0.0
4.353211579999879,230,5793.04,-91.2,-0.6,-129.7,-0.85,2.46,0.57,0.08,-1.04,-0.21,-153.4,-77.8,-284.0,-0.34,2.44,0.15,0.0,1.0640018796975879,2.6643948656308436,0.08262623493445143,0.35,0,0,0.0
4.362373597000442,231,5793.05,-91.3,-0.7,-129.4,-1.11,2.61,0.38,0.12,-1.04,-0.19,-154.3,-106.1,-290.0,-0.31,3.25,0.18,0.0,1.0640018796975879,2.8615729940017256,0.08097371023576239,0.35,0,0,0.0
4.3731929010000385,232,5793.06,-91.4,-0.7,-129.1,-1.39,2.7,0.19,0.13,-1.02,-0.22,-155.6,-134.2,-277.0,-0.27,3.97,0.07,0.0,1.05152270541344,3.0427290382155294,0.06712464523258221,0.35,0,0,0.0
4.382549786000709,233,5793.07,-91.6,-0.7,-128.9,-1.61,2.92,0.01,0.13,-1.0,-0.21,-157.1,-158.8,-240.0,-0.23,4.57,0.18,0.0,1.030048542545447,3.334456477448761,0.044737472717297555,0.35,0,0,0.0
4.393273798000337,234,5793.08,-91.8,-0.7,-128.6,-1.83,3.16,-0.19,0.11,-1.0,-0.16,-158.8,-179.2,-209.0,-0.18,5.08,0.09,0.0,1.0186756107809787,3.6565831044842945,0.03269725013377256,0.35,0,0,0.0
4.402393540000048,235,5793.09,-92.0,-0.6,-128.2,-2.19,3.34,-0.48,0.09,-1.05,-0.09,-160.7,-193.4,-141.0,-0.12,5.34,0.0,0.0,1.0576861538282516,4.022698099534689,0.07027363731742453,0.35,0,0,0.0
4.413248583000495,236,5793.1,-92.2,-0.5,-127.9,-2.7,3.23,-0.96,0.04,-1.16,-0.02,-162.7,-201.2,-90.0,-0.07,5.53,0.04,0.0,1.160861748874516,4.317927743721518,0.1699802477164153,0.35,0,0,0.0
4.422482050999861,237,5793.11,-92.5,-0.4,-127.6,-2.96,2.87,-1.48,0.01,-1.23,0.04,-164.8,-203.2,-22.0,-0.01,5.47,-0.05,0.0,1.230690862889621,4.380513668509665,0.23501317449688974,0.35,0,0,0.0
4.433405617000062,238,5793.12,-92.7,-0.2,-127.3,-3.18,2.5,-2.07,-0.02,-1.41,0.12,-166.8,-200.0,17.0,0.03,5.37,-0.04,0.0,1.4152384958020325,4.5439300170667245,0.4111695912611153,0.35,0,1,0.0
4.442512107000766,239,5793.13,-93.1,0.0,-127.1,-3.35,1.98,-2.88,-0.13,-1.55,0.15,-168.7,-192.2,76.0,0.08,5.07,-0.08,0.0,1.5626579920123278,4.841208526804025,0.5474173057219824,0.35,0,1,0.0
4.453544390999923,240,5793.14,-93.4,0.3,-127.0,-3.26,1.35,-3.53,-0.3,-1.57,0.14,-170.5,-177.4,130.0,0.13,4.62,-0.15,0.0,1.6045248517863473,4.991092064869171,0.5774984821860818,0.35,0,1,0.0
4.462377607000235,241,5793.15,-93.7,0.7,-126.9,-2.01,0.61,-3.46,-0.28,-1.43,0.11,-172.2,-161.2,154.0,0.17,4.17,-0.22,0.0,1.4613007903919029,4.04769069964591,0.42558893237580464,0.35,0,1,0.0
4.473281739000413,242,5793.16,-93.8,1.0,-126.9,-0.18,0.16,-2.57,-0.08,-1.2,0.06,-173.7,-144.5,157.0,0.21,3.74,-0.15,0.0,1.2041594578792296,2.5812593825495336,0.1650786478658688,0.35,0,1,0.0
4.482527963999928,243,5793.17,-93.7,1.2,-126.9,0.64,0.0,-1.44,0.1,-1.04,0.01,-175.0,-129.2,143.0,0.25,3.37,-0.12,0.0,1.04484448603608,1.5758172482873767,0.005648402502264727,0.35,0,1,0.0
4.493460313000469,244,5793.18,-93.6,1.3,-126.9,0.39,0.31,-0.46,0.3,-0.93,-0.05,-176.3,-118.4,111.0,0.28,3.12,0.23,0.0,0.9784681905918046,0.6780855403265874,0.05951333508317036,0.35,0,1,0.0
4.5025356780006405,245,5793.19,-93.6,1.3,-126.8,-0.25,0.94,0.34,0.41,-0.87,-0.08,-177.3,-112.1,79.0,0.3,2.99,-0.25,0.0,0.965090669315583,1.0303882763308208,0.07143303923220423,0.35,0,1,0.0
4.513328983000065,246,5793.2,-93.7,1.2,-126.7,-0.69,1.76,1.05,0.46,-0.85,-0.08,-178.4,-109.6,30.0,0.33,2.98,-0.2,0.0,0.9697937925146768,2.1624523116129057,0.06539531771244811,0.35,0,1,0.0
4.52249516000029,247,5793.21,-93.8,1.1,-126.5,-0.67,2.74,1.61,0.47,-0.88,-0.11,-179.5,-111.0,-4.0,0.36,3.04,-0.06,0.0,1.0036931802099684,3.247860834457043,0.030866011416813333,0.35,0,1,0.0
4.533262438000747,248,5793.22,-93.8,0.9,-126.1,-0.3,3.89,1.89,0.39,-0.91,-0.09,-180.6,-114.8,-30.0,0.4,3.17,0.0,0.0,0.9941327879111522,4.335227791016292,0.03961787564131691,0.35,0,1,0.0
4.5425018539999655,249,5793.23,-93.8,0.8,-125.7,-0.08,4.69,1.89,0.25,-0.91,-0.04,-181.8,-118.2,-25.0,0.43,3.23,-0.03,0.0,0.9445633912025175,5.057133575455566,0.0874035269029525,0.35,0,1,0.0
4.553011691000393,250,5793.24,-93.8,0.6,-125.1,0.13,5.25,1.73,0.12,-0.9,0.01,-183.0,-117.9,0.0,0.46,3.18,-0.09,0.0,0.9080198235721508,5.529222368470995,0.12146815264265287,0.35,0,1,0.0
4.5623800490002395,251,5793.25,-93.7,0.5,-124.6,0.24,5.63,1.53,0.0,-0.88,0.04,-184.1,-113.0,45.0,0.49,2.99,-0.12,0.0,0.8809086218218096,5.839126647025221,0.14560776730513414,0.35,0,1,0.0
4.573165390000213,252,5793.26,-93.7,0.4,-124.0,0.23,5.85,1.3,-0.08,-0.89,0.06,-185.2,-103.9,95.0,0.52,2.64,0.14,0.0,0.8956003573022959,5.997115973532611,0.12829771118815492,0.35,0,1,0.0
4.582523609999953,253,5793.27,-93.7,0.3,-123.4,0.16,5.91,1.08,-0.14,-0.89,0.07,-186.2,-87.7,143.0,0.54,2.17,-0.17,0.0,0.9036592278065886,6.01,0.11783406387018502,0.35,0,1,0.0
4.593196620000526,254,5793.28,-93.7,0.3,-122.8,0.05,5.83,0.91,-0.17,-0.89,0.08,-186.9,-70.9,163.0,0.56,1.69,0.13,0.0,0.9096153033013462,5.90080502982432,0.10964042860791878,0.35,0,1,0.0
4.602473046999876,255,5793.29,-93.6,0.2,-122.2,0.06,5.66,0.76,-0.16,-0.89,0.07,-187.5,-51.7,192.0,0.58,1.13,-0.08,0.0,0.9069729874698584,5.711111975788953,0.11003708955061842,0.35,0,1,0.0
4.613318738000089,256,5793.3,-93.6,0.2,-121.7,0.11,5.4,0.58,-0.14,-0.91,0.06,-187.9,-31.3,191.0,0.58,0.61,-0.08,0.0,0.9226592003551474,5.432172677667749,0.09246385913202293,0.35,0,1,0.0
4.622364001000278,257,5793.31,-93.6,0.2,-121.2,0.0,5.11,0.37,-0.11,-0.93,0.04,-188.1,-12.3,175.0,0.59,0.17,-0.05,0.0,0.9373366524360393,5.123377792043058,0.07623067891010848,0.35,0,1,0.0
4.6331292109998685,258,5793.32,-93.6,0.2,-120.7,-0.3,4.88,0.19,-0.09,-0.94,0.0,-188.1,-3.1,101.0,0.59,0.02,-0.1,0.0,0.9442986815621421,4.8929030237682,0.06788327678832551,0.35,0,1,0.0
4.642605048000405,259,5793.33,-93.7,0.2,-120.2,-0.58,4.76,0.13,-0.07,-0.96,0.0,-188.1,0.9,55.0,0.59,-0.05,0.21,0.0,0.9625487000666512,4.796967792262108,0.04864059311814006,0.35,0,1,0.0
4.653145768000286,260,5793.34,-93.7,0.2,-119.7,-0.63,4.65,0.12,-0.05,-1.01,0.0,-188.1,-1.0,-7.0,0.59,0.07,0.02,0.0,1.011236866416568,4.694017469076996,4.662176714131938e-05,0.35,0,1,0.0
4.662357653000072,261,5793.35,-93.7,0.1,-119.3,-0.49,4.41,0.19,-0.03,-1.04,0.0,-188.2,-4.5,-22.0,0.59,0.16,0.07,0.0,1.0404326023342405,4.441204791495209,0.028657510531117536,0.35,0,1,0.0
4.673117121999894,262,5793.36,-93.7,0.1,-118.8,-0.38,4.23,0.36,-0.02,-1.05,-0.02,-188.2,-8.3,-34.0,0.59,0.27,0.15,0.0,1.050380883299006,4.262264656259628,0.037833675665965405,0.35,0,1,0.0
4.682473457000015,263,5793.37,-93.7,0.1,-118.4,-0.25,4.15,0.58,-0.01,-1.06,-0.04,-188.4,-15.2,-69.0,0.59,0.51,0.14,0.0,1.060801583709225,4.197785130280015,0.04728928855466075,0.35,0,1,0.0
4.693280213000435,264,5793.38,-93.7,0.0,-118.0,0.05,4.17,0.86,0.0,-1.07,-0.07,-188.6,-27.4,-118.0,0.6,0.93,-0.04,0.0,1.0722872749408154,4.258051197437626,0.05759948019052619,0.35,0,1,0.0
4.702487661000305,265,5793.39,-93.7,0.0,-117.6,0.37,4.15,1.07,-0.01,-1.05,-0.07,-189.0,-42.2,-143.0,0.62,1.35,-0.06,0.0,1.0523782589924593,4.301662469325087,0.036936654957326676,0.35,0,1,0.0
4.712977812000645,266,5793.4,-93.7,0.0,-117.1,0.57,4.09,1.21,-0.02,-1.03,-0.08,-189.5,-56.2,-138.0,0.63,1.7,0.09,0.0,1.0332956982393762,4.303150009005031,0.017497012320158767,0.35,0,1,0.0
4.722326471000088,267,5793.41,-93.6,-0.2,-116.7,0.71,4.08,1.22,-0.03,-1.02,-0.09,-190.1,-68.8,-124.0,0.65,2.0,0.12,0.0,1.0244022647378324,4.317279235815075,0.00843150724224273,0.35,0,1,0.0
4.733119894000083,268,5793.42,-93.6,-0.3,-116.3,0.75,3.99,1.34,-0.04,-0.98,-0.09,-190.9,-78.8,-99.0,0.67,2.23,0.12,0.0,0.9849365461794988,4.275301158982838,0.030413527089768966,0.35,0,1,0.0
4.7426534920005,269,5793.43,-93.5,-0.4,-115.9,0.71,3.87,1.5,-0.05,-0.97,-0.09,-191.8,-86.0,-79.0,0.7,2.42,0.24,0.0,0.9754486147409304,4.210819397694468,0.03910342935777067,0.35,0,1,0.0
4.753254148000451,270,5793.44,-93.5,-0.6,-115.5,0.67,3.75,1.61,-0.06,-0.98,-0.09,-192.7,-92.7,-63.0,0.72,2.56,0.05,0.0,0.9859513172565875,4.135637798453825,0.028028712305271375,0.35,0,1,0.0
4.762502356000368,271,5793.45,-93.4,-0.8,-115.1,0.68,3.59,1.6,-0.07,-0.99,-0.09,-193.6,-94.9,-28.0,0.75,2.58,0.12,0.0,0.9965440281292142,3.988796811069724,0.01708728140399174,0.35,0,1,0.0
4.77310046599996,272,5793.46,-93.4,-0.9,-114.8,0.84,3.4,1.54,-0.09,-1.0,-0.08,-194.6,-95.1,-4.0,0.77,2.57,-0.06,0.0,1.0072239075796403,3.825859380583662,0.006279253914494243,0.35,0,1,0.0
4.782356516000618,273,5793.47,-93.3,-1.1,-114.4,1.04,3.13,1.53,-0.1,-0.99,-0.08,-195.5,-92.9,23.0,0.8,2.45,0.08,0.0,0.9982484660644363,3.6358492818047337,0.01494960152110425,0.35,0,1,0.0
4.793205285000113,274,5793.48,-93.2,-1.3,-114.1,1.27,2.89,1.55,-0.11,-0.99,-0.09,-196.4,-86.4,56.0,0.82,2.25,0.0,0.0,1.0001499887516871,3.516745654721137,0.012787117257176295,0.35,0,1,0.0
4.80247019700073,275,5793.49,-93.1,-1.5,-113.9,1.58,2.61,1.51,-0.13,-0.98,-0.08,-197.2,-78.4,75.0,0.84,2.02,0.0,0.0,0.9918165152889923,3.4042032841767838,0.020698178905473763,0.35,0,1,0.0
4.813319841000521,276,5793.5,-92.9,-1.6,-113.6,1.91,2.27,1.5,-0.14,-0.96,-0.09,-197.9,-68.8,97.0,0.86,1.73,0.03,0.0,0.9743202758846805,3.324304438525449,0.03743052994358975,0.35,0,1,0.0
4.8224792179998985,277,5793.51,-92.7,-1.8,-113.4,2.22,1.94,1.43,-0.16,-0.96,-0.09,-198.5,-55.3,126.0,0.88,1.31,0.08,0.0,0.9773944955850733,3.2767209218973776,0.03366918403833297,0.35,0,1,0.0
4.833100976999958,278,5793.52,-92.5,-1.9,-113.2,2.54,1.6,1.31,-0.17,-0.95,-0.09,-199.0,-40.9,130.0,0.89,0.98,-0.09,0.0,0.9692780818733084,3.2753167785727233,0.04094988579509584,0.35,0,1,0.0
4.842439529999865,279,5793.53,-92.2,-2.0,-113.1,2.81,1.32,1.14,-0.19,-0.93,-0.08,-199.3,-28.1,135.0,0.89,0.57,-0.08,0.0,0.9525754563287887,3.3072798490602517,0.056499461112823335,0.35,0,1,0.0
4.853247067000666,280,5793.54,-91.9,-2.1,-112.9,3.0,0.95,0.86,-0.21,-0.9,-0.07,-199.5,-13.4,130.0,0.9,0.24,-0.03,0.0,0.9268225288586808,3.2622231683316825,0.08060734081127274,0.35,0,1,0.0
4.862483724000413,281,5793.55,-91.6,-2.2,-112.9,2.98,0.6,0.6,-0.21,-0.88,-0.07,-199.6,-4.1,97.0,0.9,0.01,-0.09,0.0,0.9074139077620532,3.098451226015991,0.09801564266974239,0.35,0,1,0.0
4.873074715000257,282,5793.56,-91.3,-2.2,-112.8,2.68,0.25,0.37,-0.21,-0.84,-0.08,-199.6,1.1,55.0,0.9,-0.05,-0.04,0.0,0.8695401083331349,2.716946815821024,0.13317165325668756,0.35,0,1,0.0
4.882468073999917,283,5793.57,-91.1,-2.3,-112.8,2.06,-0.09,0.17,-0.18,-0.83,-0.09,-199.5,1.5,7.0,0.9,0.0,0.0,0.0,0.854049178911847,2.0689610919492902,0.14568933102441595,0.35,0,1,0.0
4.893314212000405,284,5793.58,-90.9,-2.3,-112.8,1.43,-0.4,-0.01,-0.15,-0.84,-0.1,-199.5,-1.0,-11.0,0.9,0.05,0.04,0.0,0.8591274643497319,1.4849242404917498,0.13779882467480042,0.35,0,1,0.0
4.90256506500009,285,5793.59,-90.8,-2.3,-112.9,0.96,-0.7,-0.16,-0.12,-0.84,-0.11,-199.6,-1.7,-6.0,0.9,0.04,-0.05,0.0,0.855628424025289,1.1988327656516566,0.13847190769925832,0.35,0,1,0.0
4.912995352000507,286,5793.6,-90.7,-2.2,-113.0,0.62,-1.0,-0.28,-0.1,-0.84,-0.13,-199.6,-2.9,-17.0,0.9,0.12,0.03,0.0,0.8558621384311844,1.2094626906192685,0.13547342942749574,0.35,0,1,0.0
4.922606170000108,287,5793.61,-90.7,-2.2,-113.1,0.24,-1.26,-0.37,-0.07,-0.84,-0.15,-199.6,-8.0,-52.0,0.9,0.32,0.1,0.0,0.8561541917201596,1.334953182699678,0.13247774861575012,0.35,0,1,0.0
4.933191222999994,288,5793.62,-90.7,-2.2,-113.2,-0.15,-1.45,-0.45,-0.07,-0.85,-0.16,-199.8,-18.0,-84.0,0.91,0.61,-0.1,0.0,0.8677557259966654,1.5256146302392357,0.11845869005245946,0.35,0,1,0.0
4.942600330999994,289,5793.63,-90.7,-2.1,-113.4,-0.52,-1.57,-0.51,-0.09,-0.85,-0.18,-200.0,-29.7,-114.0,0.91,0.97,0.17,0.0,0.8734987120768982,1.7307223925286228,0.11046138989278209,0.35,0,1,0.0
4.953075355000692,290,5793.64,-90.8,-2.1,-113.6,-0.82,-1.61,-0.46,-0.11,-0.87,-0.17,-200.4,-44.2,-143.0,0.93,1.41,0.08,0.0,0.8932524839036273,1.8644302078651267,0.08889346570473189,0.35,0,1,0.0
4.962594547000663,291,5793.65,-90.9,-2.0,-113.7,-0.99,-1.62,-0.31,-0.11,-0.9,-0.16,-201.0,-60.0,-150.0,0.94,1.82,0.08,0.0,0.9207062506576134,1.9236943624183132,0.06021090497173098,0.35,0,1,0.0
4.973050937000153,292,5793.66,-91.0,-2.0,-113.9,-0.89,-1.6,-0.11,-0.11,-0.93,-0.15,-201.7,-76.8,-166.0,0.97,2.31,-0.01,0.0,0.9484197383015602,1.8341755641159327,0.03184746898122848,0.35,0,1,0.0
4.982487633000346,293,5793.67,-91.0,-2.0,-114.0,-0.8,-1.52,0.13,-0.1,-0.94,-0.16,-202.6,-93.8,-171.0,0.99,2.77,0.12,0.0,0.9587491851365507,1.7225852663946712,0.02108766170331322,0.35,0,1,0.0
4.993314930999986,294,5793.68,-91.1,-2.1,-114.2,-0.93,-1.48,0.42,-0.07,-0.97,-0.16,-203.7,-110.9,-169.0,1.02,3.22,0.07,0.0,0.9855962662266938,1.7976929659983654,0.00564423099909328,0.35,0,1,0.0
5.0025654110004325,295,5793.69,-91.2,-2.1,-114.3,-0.87,-1.46,0.52,-0.06,-1.0,-0.16,-204.9,-128.1,-163.0,1.06,3.66,0.18,0.0,1.0144949482377918,1.7773294573601146,0.033852054749987426,0.35,0,1,0.0
5.013019357000303,296,5793.7,-91.3,-2.2,-114.5,-1.09,-1.56,0.58,-0.09,-1.0,-0.13,-206.3,-141.5,-129.0,1.1,3.96,0.15,0.0,1.0124228365658292,1.9894974239742056,0.03114434421646428,0.35,0,1,0.0
5.022466813999927,297,5793.71,-91.4,-2.3,-114.6,-1.6,-1.8,0.73,-0.09,-1.03,-0.08,-207.7,-151.7,-108.0,1.14,4.24,0.05,0.0,1.0370149468546728,2.5165253823476528,0.054621725415201716,0.35,0,1,0.0
5.03296731699993,298,5793.72,-91.6,-2.4,-114.8,-1.8,-1.98,0.98,-0.06,-1.04,-0.09,-209.3,-159.8,-77.0,1.18,4.4,0.01,0.0,1.045609869884557,2.84970173877899,0.061952315476184294,0.35,0,1,0.0
5.042430387999957,299,5793.73,-91.9,-2.5,-115.0,-1.76,-1.86,1.28,-0.03,-1.07,-0.15,-211.0,-164.1,-57.0,1.23,4.52,-0.14,0.0,1.0808792717042917,2.8627958362412085,0.09527728295000049,0.35,0,1,0.0
5.053263408000021,300,5793.74,-92.1,-2.6,-115.2,-1.79,-1.51,1.53,-0.01,-1.14,-0.17,-212.6,-167.7,-39.0,1.27,4.6,-0.03,0.0,1.1526491226735045,2.797338020332902,0.16370619124082908,0.35,0,1,0.0
5.062582053999904,301,5793.75,-92.3,-2.8,-115.3,-2.01,-1.31,1.59,-0.02,-1.22,-0.11,-214.3,-172.6,-51.0,1.32,4.76,0.02,0.0,1.225112239756015,2.878245993656553,0.23144592215687276,0.35,0,1,0.0
5.072995262999939,302,5793.76,-92.5,-2.9,-115.4,-2.33,-1.09,1.75,-0.02,-1.25,-0.08,-216.1,-179.5,-66.0,1.37,4.97,-0.16,0.0,1.252717047062105,3.111189483139849,0.25386971487370347,0.35,0,1,0.0
5.082631713999945,303,5793.77,-92.8,-3.1,-115.5,-2.44,-0.62,2.17,0.02,-1.34,-0.1,-218.0,-187.8,-80.0,1.42,5.21,0.23,0.0,1.3438749941865873,3.3236877109620275,0.33812710875822205,0.35,0,1,0.0
5.093288813000072,304,5793.78,-93.0,-3.3,-115.5,-1.96,-0.14,2.5,0.09,-1.48,-0.05,-219.9,-195.3,-64.0,1.47,5.36,0.04,0.0,1.4835767590522575,3.179811315156923,0.4682722961514145,0.35,1,2,3.0
5.10254778000035,305,5793.79,-93.1,-3.5,-115.5,-0.03,0.09,2.32,0.05,-1.55,0.0,-221.9,-199.6,-48.0,1.53,5.47,0.22,0.0,1.5508062419270823,2.3219388450172413,0.5247917434457146,0.35,0,2,3.0
5.113038657000288,306,5793.8,-93.0,-3.7,-115.5,1.52,-0.09,1.58,-0.06,-1.37,0.04,-223.9,-192.1,256.0,1.58,4.14,2.79,3.49,1.3718964975536603,2.194288039433292,0.33896435909084666,0.35,0,2,3.0
5.122591496000496,307,5793.81,-92.8,-3.8,-115.5,1.17,-0.66,0.74,-0.14,-1.16,0.11,-224.9,-57.4,1127.0,1.59,-0.29,3.06,3.49,1.1735842534730943,1.5336557632011167,0.13783907271007512,0.35,0,2,3.0
5.133093774000372,308,5793.82,-92.7,-3.8,-115.7,0.06,-1.62,-0.11,-0.22,-1.11,0.15,-224.7,55.7,888.0,1.57,-2.18,3.29,3.49,1.1414902540100813,1.6248384535085327,0.10363017178212086,0.35,0,2,3.0
5.142573937000634,309,5793.83,-92.8,-3.8,-115.9,-0.85,-2.68,-0.79,-0.29,-1.06,0.17,-223.8,88.4,356.0,1.55,-2.28,3.44,3.49,1.1120251795710383,2.920445171544914,0.07268179539621622,0.35,0,2,3.0
5.153150877000371,310,5793.84,-92.8,-3.7,-116.2,-1.15,-3.66,-1.1,-0.33,-1.1,0.18,-223.0,71.9,-13.0,1.53,-1.67,3.69,3.49,1.1624543001770007,3.991002380355091,0.12064869768213504,0.35,0,2,3.0
5.162549338000645,311,5793.85,-92.9,-3.6,-116.6,-0.52,-4.5,-1.21,-0.34,-1.11,0.2,-222.5,38.0,-294.0,1.52,-0.42,3.63,3.49,1.1780067911519017,4.688763163138014,0.13347716488389527,0.35,0,2,3.0
5.173071391000121,312,5793.86,-92.9,-3.5,-117.1,0.35,-5.38,-1.04,-0.26,-1.04,0.21,-222.4,-1.4,-256.0,1.52,0.14,3.58,3.49,1.092382716816776,5.490764974026843,0.04689602873779419,0.35,0,2,3.0
5.182565776000047,313,5793.87,-92.8,-3.5,-117.7,0.89,-6.31,-0.71,-0.14,-0.92,0.24,-222.5,-1.0,-60.0,1.52,0.0,3.58,3.49,0.9610411021387171,6.411887397638857,0.08275667422145938,0.35,0,2,3.0
5.192961716999889,314,5793.88,-92.6,-3.5,-118.4,1.03,-7.01,-0.29,-0.01,-0.84,0.19,-222.5,-0.8,-27.0,1.52,0.03,3.48,3.49,0.861278120005379,7.091198770306752,0.17886926322770158,0.35,0,2,3.0
5.202461789000154,315,5793.89,-92.5,-3.5,-119.1,0.93,-7.21,0.09,0.06,-0.81,0.14,-222.5,-0.8,-8.0,1.52,0.03,3.49,3.49,0.8241965784932622,7.270288852583506,0.21163178864502197,0.35,0,2,3.0
5.213126913999986,316,5793.9,-92.4,-3.5,-119.8,0.68,-7.06,0.33,0.09,-0.84,0.08,-222.5,-0.5,1.0,1.52,0.0,3.57,3.49,0.8485870609430713,7.100345062037478,0.18349648007130848,0.35,0,2,3.0
5.222567578000053,317,5793.91,-92.3,-3.6,-120.5,0.4,-6.71,0.33,0.09,-0.88,0.06,-222.5,-0.1,4.0,1.52,0.0,3.57,3.49,0.8866228059327146,6.730007429416404,0.14255152038003183,0.35,0,2,3.0
5.232970517000467,318,5793.92,-92.2,-3.7,-121.2,0.25,-6.34,0.25,0.09,-0.91,0.07,-222.5,0.2,3.0,1.52,0.0,3.49,3.49,0.9171150418568,6.34985039193838,0.10981809876682747,0.35,0,2,3.0
5.242548527000508,319,5793.93,-92.1,-3.7,-121.8,0.08,-6.05,0.1,0.06,-0.95,0.08,-222.5,0.5,6.0,1.52,-0.03,3.58,3.49,0.95524865872714,6.051355220113921,0.07025079225855779,0.35,0,2,3.0
5.2531501640005445,320,5793.94,-92.1,-3.7,-122.4,0.0,-5.63,-0.07,0.06,-0.96,0.02,-222.5,0.5,6.0,1.52,-0.03,3.5,3.49,0.9620810776644555,5.6304351519220965,0.06215000585481745,0.35,0,2,3.0
5.262544906000585,321,5793.95,-92.1,-3.7,-122.9,-0.11,-5.0,-0.27,0.09,-0.97,0.0,-222.5,3.1,35.0,1.52,-0.18,3.54,3.49,0.9741663102366043,5.008492787256461,0.049063477817015366,0.35,0,2,3.0
5.2731604290002,322,5793.96,-92.1,-3.7,-123.4,-0.5,-4.5,-0.54,0.1,-1.0,0.03,-222.4,15.4,132.0,1.51,-0.7,3.19,3.49,1.0054352291420865,4.559780696480917,0.017438667733302493,0.35,0,2,3.0
5.282568323000305,323,5793.97,-92.1,-3.7,-123.8,-0.89,-4.16,-0.89,0.11,-0.99,0.02,-222.0,43.7,284.0,1.5,-1.73,3.39,3.49,0.9962931295557548,4.346239754086284,0.026049151973241425,0.35,0,2,0.0
5.293014477000725,324,5793.98,-92.2,-3.6,-124.2,-1.04,-3.9,-1.2,0.1,-0.95,0.0,-221.3,92.2,412.0,1.47,-3.03,3.52,3.49,0.95524865872714,4.210890642132612,0.06575175034581893,0.35,0,2,0.0
5.302591229999962,325,5793.99,-92.3,-3.4,-124.6,-1.07,-3.7,-1.38,0.09,-0.94,0.0,-220.1,113.3,-30.0,1.44,-2.15,0.51,0.0,0.9442986815621421,4.09136896405103,0.07516769296060044,0.35,0,2,0.0
5.313309440000012,326,5794.0,-92.4,-3.3,-125.0,-1.23,-3.55,-1.58,0.06,-1.01,0.0,-219.7,53.9,-717.0,1.44,0.33,0.26,0.0,1.0117806086301517,4.0757575982877094,0.0075320505747389355,0.35,0,2,0.0
5.3225562500001615,327,5794.01,-92.5,-3.1,-125.3,-1.49,-3.44,-1.91,-0.01,-1.01,0.0,-219.8,-27.9,-443.0,1.45,0.86,-0.05,0.0,1.0100495037373167,4.207350710363945,0.009077892358222428,0.35,0,2,0.0
5.333098547000191,328,5794.02,-92.6,-2.9,-125.7,-1.38,-3.46,-1.98,0.0,-0.96,-0.02,-220.1,-27.4,-105.0,1.46,0.61,-0.02,0.0,0.9602083107326242,4.218577959455057,0.05774070365565653,0.35,0,2,0.0
5.342560441000387,329,5794.03,-92.6,-2.7,-126.0,-0.92,-3.52,-1.87,0.04,-0.94,-0.03,-220.2,-9.9,100.0,1.46,0.0,-0.05,0.0,0.9413288479590965,4.090684539291682,0.0750877631006005,0.35,0,2,0.0
5.353094773000521,330,5794.04,-92.7,-2.5,-126.4,-0.4,-3.53,-1.67,0.07,-0.93,-0.06,-220.2,7.9,122.0,1.46,-0.35,-0.11,0.0,0.9345587193964862,3.9255318111053437,0.08022073382994677,0.35,0,2,0.0
5.362553468000442,331,5794.05,-92.7,-2.3,-126.8,-0.19,-3.42,-1.43,0.09,-0.92,-0.09,-220.1,16.4,91.0,1.45,-0.54,-0.05,0.0,0.9287626176801045,3.711792020035605,0.0842964988354018,0.35,0,2,0.0
5.3730652750000445,332,5794.06,-92.7,-2.2,-127.1,-0.09,-3.19,-1.25,0.11,-0.92,-0.12,-219.8,28.5,129.0,1.44,-0.97,0.01,0.0,0.9342911751697112,3.4273459119266034,0.07719258251887928,0.35,0,2,0.0
5.382569936000436,333,5794.07,-92.7,-2.1,-127.4,0.0,-2.88,-1.08,0.11,-0.92,-0.13,-219.4,44.1,162.0,1.43,-1.46,-0.19,0.0,0.9356281312572854,3.075841348314311,0.07433851390267887,0.35,0,2,0.0
5.392981847000556,334,5794.08,-92.7,-2.0,-127.7,0.0,-2.6,-0.96,0.11,-0.93,-0.12,-218.9,63.8,202.0,1.41,-2.09,-0.16,0.0,0.9441398201537736,2.7715699522112014,0.06451028850606688,0.35,0,2,0.0
5.402524377000191,335,5794.09,-92.7,-1.9,-127.9,-0.01,-2.35,-0.92,0.1,-0.95,-0.12,-218.0,89.9,224.0,1.39,-2.73,-0.16,0.0,0.9627564593395361,2.5236877778362365,0.044975776333898265,0.35,0,2,0.0
5.413077468000665,336,5794.1,-92.7,-1.9,-128.2,0.1,-2.14,-0.89,0.1,-0.94,-0.13,-217.0,113.1,231.0,1.36,-3.37,-0.14,0.0,0.95420123663722,2.3198491330256803,0.05246037905549017,0.35,0,2,0.0
5.422442943000533,337,5794.11,-92.6,-1.8,-128.4,0.23,-1.84,-0.97,0.11,-0.97,-0.15,-215.7,137.6,236.0,1.32,-4.02,-0.17,0.0,0.987674035297071,2.0927016031914345,0.018607828787726488,0.35,0,2,0.0
5.433017917000143,338,5794.12,-92.6,-1.7,-128.5,0.52,-1.53,-0.97,0.11,-0.92,-0.16,-214.1,160.2,230.0,1.27,-4.63,-0.09,0.0,0.9402659198333203,1.884728097100481,0.06469562536644768,0.35,0,2,0.0
5.442508498000279,339,5794.13,-92.5,-1.6,-128.7,0.56,-1.23,-0.88,0.12,-0.91,-0.16,-212.4,184.5,245.0,1.22,-5.33,-0.05,0.0,0.9317188417113824,1.6127306036657207,0.07177784941861787,0.35,0,2,0.0
5.4531772750005985,340,5794.14,-92.5,-1.5,-128.8,0.51,-0.99,-0.76,0.13,-0.91,-0.16,-210.3,210.4,256.0,1.16,-6.04,-0.05,0.0,0.9330594836343501,1.3482581355215328,0.06902846334573709,0.35,0,2,0.0
5.462527833999957,341,5794.15,-92.4,-1.4,-128.9,0.46,-0.78,-0.68,0.13,-0.92,-0.16,-208.3,233.7,256.0,1.1,-6.72,0.0,0.0,0.9428149341201592,1.1324310133513653,0.058087552602729464,0.35,0,2,0.0
5.473044187000596,342,5794.16,-92.4,-1.4,-129.0,0.45,-0.61,-0.57,0.13,-0.93,-0.16,-205.5,257.7,217.0,1.03,-7.24,-0.13,0.0,0.9525754563287887,0.9484197383015602,0.047360489786217874,0.35,0,2,0.0
5.482539184000416,343,5794.17,-92.3,-1.3,-129.0,0.52,-0.41,-0.4,0.12,-0.94,-0.17,-202.8,278.7,231.0,0.95,-7.9,-0.08,0.0,0.9627564593395361,0.7736278174936576,0.036435897039961085,0.35,0,2,0.0
5.493059103000633,344,5794.18,-92.3,-1.3,-129.0,0.77,-0.18,-0.2,0.11,-0.95,-0.18,-199.8,306.4,267.0,0.87,-8.68,0.16,0.0,0.973139250056229,0.8156592425762121,0.025532044196802772,0.35,0,2,0.0
5.502518604000215,345,5794.19,-92.2,-1.3,-129.1,1.04,-0.04,-0.02,0.11,-0.95,-0.17,-196.6,330.7,231.0,0.77,-9.23,-0.02,0.0,0.9713392816107047,1.0409610943738483,0.026785372389480533,0.35,0,2,0.0
5.5129416460003995,346,5794.2,-92.1,-1.3,-129.1,1.25,0.05,0.17,0.1,-0.93,-0.19,-193.2,350.0,208.0,0.68,-9.77,-0.07,0.0,0.9544631999192007,1.2624975247500487,0.042788224999364854,0.35,0,2,0.0
5.522526198999913,347,5794.21,-91.9,-1.3,-129.0,1.43,0.22,0.33,0.1,-0.92,-0.2,-189.5,370.6,208.0,0.58,-10.33,0.02,0.0,0.94678403028357,1.4839811319555245,0.04945804674229559,0.35,0,2,0.0
5.533030872999916,348,5794.22,-91.8,-1.4,-129.0,1.53,0.41,0.55,0.12,-0.9,-0.2,-185.7,389.0,186.0,0.47,-10.8,0.21,0.0,0.9297311439335568,1.6767528142215835,0.0651807144304627,0.35,0,2,0.0
5.542520771999989,349,5794.23,-91.6,-1.4,-128.9,1.45,0.65,0.68,0.12,-0.9,-0.2,-181.6,410.4,209.0,0.36,-11.41,-0.02,0.0,0.9297311439335568,1.7284096736595755,0.06387710014185344,0.35,0,2,0.0
5.552894264000315,350,5794.24,-91.5,-1.5,-128.9,1.3,0.9,0.79,0.11,-0.91,-0.22,-177.4,423.5,129.0,0.24,-11.61,-0.06,0.0,0.9426558226627575,1.7675123761942941,0.049933372984399704,0.35,0,2,0.0
5.563258068000323,351,5794.25,-91.4,-1.6,-128.8,1.2,1.16,0.83,0.12,-0.89,-0.22,-173.1,431.6,83.0,0.13,-11.76,0.11,0.0,0.9246080250571049,1.8640010729610645,0.0666215471782512,0.35,0,2,0.0
5.573008994000702,352,5794.26,-91.2,-1.7,-128.6,1.15,1.46,0.91,0.15,-0.86,-0.22,-168.9,419.3,-153.0,0.01,-10.94,0.16,0.0,0.9002777349240622,2.069347723317664,0.08913280056506812,0.35,0,2,0.0
5.582461379000051,353,5794.27,-91.1,-1.8,-128.5,1.02,1.72,1.01,0.18,-0.85,-0.21,-164.9,380.2,-313.0,-0.08,-9.84,0.32,0.0,0.8938679992034617,2.2402901597784157,0.09363168555995516,0.35,0,2,0.0
5.593207628000528,354,5794.28,-91.1,-1.9,-128.3,0.67,2.06,1.01,0.17,-0.87,-0.21,-161.4,336.5,-422.0,-0.17,-8.52,0.16,0.0,0.9109884741312593,2.390104600221505,0.07498098641951445,0.35,0,2,0.0
5.602518991000579,355,5794.29,-91.0,-2.0,-128.0,0.06,2.31,0.9,0.12,-0.9,-0.18,-158.4,283.0,-499.0,-0.24,-7.04,0.13,0.0,0.9256349172324908,2.4798588669519077,0.05912785245191721,0.35,0,2,0.0
5.613097116000063,356,5794.3,-91.1,-2.0,-127.8,-0.45,2.44,0.7,0.07,-0.93,-0.15,-156.0,232.5,-485.0,-0.31,-5.76,0.08,0.0,0.9446163242290492,2.5780031031788924,0.03934351654625168,0.35,0,2,0.0
5.622470168000291,357,5794.31,-91.1,-2.1,-127.6,-0.68,2.34,0.51,0.03,-0.94,-0.11,-154.0,187.1,-460.0,-0.35,-4.54,0.24,0.0,0.9468896451012652,2.4895983611819794,0.036328791760554924,0.35,0,2,0.0
5.633014677000574,358,5794.32,-91.2,-2.1,-127.3,-0.7,2.09,0.4,0.02,-0.95,-0.1,-152.4,144.4,-431.0,-0.39,-3.41,0.21,0.0,0.9554580053565933,2.240111604362604,0.02720522287512228,0.35,0,2,0.0
5.64252033899993,359,5794.33,-91.3,-2.2,-127.1,-0.58,1.78,0.33,0.02,-0.94,-0.11,-151.2,102.8,-423.0,-0.42,-2.28,0.24,0.0,0.9466255859631092,1.9009734348485778,0.0353168894232343,0.35,0,2,0.0
5.653075457000341,360,5794.34,-91.3,-2.2,-127.0,-0.46,1.37,0.29,0.03,-0.92,-0.14,-150.5,56.8,-482.0,-0.43,-0.86,0.08,0.0,0.931074647920348,1.4739742195845897,0.049850470916675604,0.35,0,2,0.0
5.6623729940001795,361,5794.35,-91.4,-2.2,-126.9,-0.42,1.16,0.3,0.06,-0.91,-0.18,-150.3,3.2,-463.0,-0.43,0.3,0.08,0.0,0.9295697929687691,1.2696456198483101,0.05032821935088949,0.35,0,2,0.0
5.673187211000368,362,5794.36,-91.4,-2.2,-126.7,-0.45,1.23,0.28,0.07,-0.97,-0.22,-150.5,-24.7,-354.0,-0.42,1.12,0.06,0.0,0.9970957827611147,1.3393281898026337,0.01685381503262695,0.35,0,2,0.0
5.682474440000078,363,5794.37,-91.5,-2.3,-126.6,-0.55,1.24,0.19,0.1,-0.99,-0.24,-151.0,-62.6,-369.0,-0.4,2.14,0.32,0.0,1.0235721762533407,1.3697445017228578,0.04246360435435592,0.35,0,2,0.0
5.693247156000325,364,5794.38,-91.6,-2.3,-126.5,-0.75,1.68,0.12,0.07,-1.11,-0.27,-151.9,-100.1,-379.0,-0.38,3.21,0.23,0.0,1.1445086281894077,1.8437190675371342,0.16013205516461437,0.35,0,2,0.0
5.7024783630004094,365,5794.39,-91.7,-2.3,-126.3,-1.22,2.06,-0.36,0.0,-1.2,-0.2,-153.2,-140.3,-401.0,-0.34,4.32,0.23,0.0,1.2165525060596438,2.4210741417808745,0.2275324143741535,0.35,0,2,0.0
5.7131477240000095,366,5794.4,-91.9,-2.2,-126.1,-1.58,2.08,-0.94,-0.03,-1.24,-0.1,-154.9,-183.8,-424.0,-0.28,5.52,0.18,0.0,1.244387399486189,2.776040345528141,0.25025996164468467,0.35,0,2,0.0
5.7225547220004955,367,5794.41,-92.1,-2.0,-125.9,-1.92,1.72,-1.55,-0.09,-1.26,-0.1,-157.0,-219.9,-335.0,-0.22,6.27,0.13,0.0,1.267162183779172,3.007873002638243,0.2675740510189144,0.35,0,2,0.0
5.733193726000536,368,5794.42,-92.3,-1.9,-125.7,-2.57,1.51,-2.14,-0.14,-1.32,-0.07,-159.3,-237.6,-193.0,-0.16,6.56,-0.1,0.0,1.3292479076530457,3.669414122172639,0.32306657939493233,0.35,0,2,0.0
5.742490872000417,369,5794.43,-92.6,-1.7,-125.6,-3.12,1.19,-2.95,-0.16,-1.45,0.04,-161.7,-241.3,-62.0,-0.09,6.51,-0.02,0.0,1.459349170006959,4.455670544373765,0.44410448491386867,0.35,0,3,0.0
5.752761679000287,370,5794.44,-92.9,-1.3,-125.5,-3.31,0.51,-3.75,-0.22,-1.5,0.1,-164.1,-229.2,101.0,-0.03,5.96,-0.04,0.0,1.519341962824696,5.027792756269892,0.4940153321769736,0.35,0,3,0.0
5.763072491999992,371,5794.45,-93.3,-0.9,-125.6,-3.22,-0.3,-4.11,-0.23,-1.5,0.09,-166.2,-205.3,193.0,0.01,5.3,-0.26,0.0,1.520197355608804,5.229770549460081,0.4849733104618599,0.35,0,3,0.0
5.772952454000006,372,5794.46,-93.5,-0.5,-125.6,-2.03,-0.91,-3.81,-0.1,-1.33,0.05,-168.1,-182.9,199.0,0.06,4.75,-0.14,0.0,1.3346909754696028,4.411927016622101,0.2934775917162056,0.35,0,3,0.0
5.782507805000023,373,5794.47,-93.6,-0.2,-125.8,-0.63,-1.04,-2.68,0.1,-1.14,-0.01,-169.8,-166.4,168.0,0.11,4.34,0.06,0.0,1.1444212511134175,2.9429407061644994,0.10114371001281985,0.35,0,3,0.0
5.792940934000399,374,5794.48,-93.6,0.0,-125.9,0.0,-0.69,-1.29,0.28,-0.99,-0.13,-171.4,-155.2,113.0,0.15,4.12,-0.1,0.0,1.0370149468546728,1.4629422408283932,0.0061373423610064926,0.35,0,3,0.0
5.802493940000204,375,5794.49,-93.6,0.0,-125.9,-0.06,0.43,0.0,0.45,-0.93,-0.23,-172.9,-152.2,38.0,0.19,4.16,-0.1,0.0,1.0584422516131904,0.43416586692184816,0.014984163149560858,0.35,0,3,0.0
5.812772097000561,376,5794.5,-93.7,0.0,-125.7,-0.37,2.14,0.92,0.52,-0.96,-0.25,-174.4,-152.9,11.0,0.23,4.16,-0.16,0.0,1.120044641967453,2.358580081320115,0.07505482243374706,0.35,0,3,0.0
5.821933623000405,377,5794.51,-93.7,-0.1,-125.4,-0.16,3.91,1.29,0.48,-1.01,-0.18,-176.0,-153.8,1.0,0.27,4.17,-0.07,0.0,1.132651755836718,4.12041260069911,0.08590869757695185,0.35,0,3,0.0
5.832794798000577,378,5794.52,-93.7,-0.2,-124.9,0.29,5.39,1.31,0.38,-1.0,-0.09,-177.5,-152.5,13.0,0.32,4.12,0.02,0.0,1.0735455276791945,5.554484674567029,0.02626642003103985,0.35,0,3,0.0
5.842916309999964,379,5794.53,-93.7,-0.3,-124.3,0.65,6.5,1.17,0.24,-0.99,0.0,-179.0,-149.0,39.0,0.36,3.96,-0.01,0.0,1.0186756107809787,6.636369489412114,0.028031426929832515,0.35,0,3,0.0
5.853226204000748,380,5794.54,-93.6,-0.3,-123.6,0.99,7.11,0.9,0.08,-0.96,0.06,-180.4,-141.8,64.0,0.39,3.75,0.05,0.0,0.9651942809610923,7.234790943766102,0.07988250161472443,0.35,0,3,0.0
5.862636792000558,381,5794.55,-93.5,-0.4,-122.9,1.26,7.24,0.58,-0.02,-0.93,0.13,-181.8,-131.8,99.0,0.43,3.41,-0.07,0.0,0.9392550239418472,7.371675521887815,0.10370532346129002,0.35,0,3,0.0
5.873009626000567,382,5794.56,-93.3,-0.4,-122.2,1.12,7.07,0.22,-0.11,-0.95,0.16,-183.0,-114.7,163.0,0.46,2.86,-0.19,0.0,0.969639108122192,7.161543129801007,0.07185481449532638,0.35,0,3,0.0
5.882683096000619,383,5794.57,-93.3,-0.3,-121.5,0.58,6.7,-0.16,-0.19,-0.96,0.15,-184.0,-91.9,214.0,0.48,2.19,-0.08,0.0,0.9900505037623081,6.726960680723502,0.05041455047810606,0.35,0,3,0.0
5.893303378999917,384,5794.58,-93.2,-0.3,-120.9,0.36,6.14,-0.43,-0.25,-0.95,0.16,-184.7,-67.7,232.0,0.5,1.54,-0.05,0.0,0.9952889027814988,6.165557557918018,0.044272628429737004,0.35,0,3,0.0
5.9025352070002555,385,5794.59,-93.2,-0.2,-120.3,0.64,5.44,-0.44,-0.24,-0.91,0.15,-185.3,-43.8,226.0,0.51,0.93,-0.05,0.0,0.9529952780575568,5.49516150809055,0.08483492809060555,0.35,0,3,0.0
5.913175352000508,386,5794.6,-93.1,-0.1,-119.8,0.94,4.71,-0.17,-0.19,-0.87,0.11,-185.6,-25.2,175.0,0.52,0.54,-0.16,0.0,0.8972736483370054,4.8058922168521425,0.13774542665493383,0.35,0,3,0.0
5.922557396000229,387,5794.61,-93.0,-0.1,-119.4,0.9,4.08,0.15,-0.13,-0.85,0.07,-185.7,-14.5,111.0,0.52,0.34,0.16,0.0,0.8627282306729043,4.180777439663585,0.16884502743265428,0.35,0,3,0.0
5.933219604000442,388,5794.62,-92.9,-0.1,-119.0,0.43,3.65,0.43,-0.09,-0.86,0.03,-185.9,-13.8,18.0,0.53,0.44,-0.09,0.0,0.8652167358529306,3.7003107977573992,0.16302939180757536,0.35,0,3,0.0
5.942591843000628,389,5794.63,-92.9,-0.2,-118.6,-0.02,3.39,0.67,-0.06,-0.91,0.0,-186.1,-23.7,-69.0,0.53,0.77,0.0,0.0,0.9119758768739445,3.4556330823743426,0.11394484577083008,0.35,0,3,0.0
5.95323121399997,390,5794.64,-92.9,-0.3,-118.3,-0.07,3.22,0.84,-0.06,-0.97,0.0,-186.4,-33.5,-89.0,0.54,1.05,0.0,0.0,0.9718538984847466,3.3284981598312475,0.052985487676827536,0.35,0,3,0.0
5.962589384000239,391,5794.65,-92.9,-0.4,-118.0,0.02,3.09,1.03,-0.06,-1.02,0.01,-186.8,-45.3,-115.0,0.56,1.39,0.06,0.0,1.0218121158021176,3.2572073928443674,0.0029667249522673522,0.35,0,3,0.0
5.973208068000531,392,5794.66,-92.8,-0.5,-117.7,0.5,2.97,1.09,-0.05,-1.03,0.0,-187.3,-59.4,-136.0,0.57,1.8,0.15,0.0,1.031212878119741,3.202967374170396,0.006305356618048874,0.35,0,3,0.0
5.982586410000295,393,5794.67,-92.7,-0.6,-117.4,0.95,2.87,1.04,-0.06,-1.0,0.0,-188.0,-73.3,-129.0,0.59,2.14,0.0,0.0,1.0017983829094554,3.1970298716152152,0.02264695582039189,0.35,0,3,0.0
5.993107498000427,394,5794.68,-92.6,-0.7,-117.1,1.16,2.77,0.88,-0.06,-0.98,0.0,-188.8,-85.3,-126.0,0.62,2.47,-0.17,0.0,0.9818350166906862,3.1293609571284677,0.04175811559837794,0.35,0,3,0.0
6.002588102000118,395,5794.69,-92.4,-0.8,-116.8,1.12,2.67,0.69,-0.08,-0.96,-0.01,-189.8,-96.9,-118.0,0.64,2.77,0.04,0.0,0.9633794683301071,2.9764744245499575,0.05900939067977795,0.35,0,3,0.0
6.0132875369999965,396,5794.7,-92.3,-0.9,-116.5,0.9,2.53,0.51,-0.09,-0.97,-0.01,-190.8,-106.6,-95.0,0.67,2.99,0.12,0.0,0.9742176348229383,2.7333130080545107,0.047207799703207876,0.35,0,3,0.0
6.022632621000412,397,5794.71,-92.2,-1.0,-116.3,0.88,2.43,0.32,-0.1,-0.96,-0.01,-191.9,-113.9,-70.0,0.7,3.15,0.05,0.0,0.9652460826131334,2.6041697333315277,0.05505576487475261,0.35,0,3,0.0
6.033209801999874,398,5794.72,-92.1,-1.1,-116.1,0.83,2.25,0.31,-0.09,-0.97,-0.02,-193.1,-118.3,-42.0,0.74,3.23,0.01,0.0,0.9743715923609432,2.4181604578687494,0.04501165002440388,0.35,0,3,0.0
6.04264977100047,399,5794.73,-92.0,-1.1,-115.8,0.79,2.06,0.38,-0.08,-0.97,-0.03,-194.3,-119.1,-17.0,0.77,3.24,-0.25,0.0,0.973755616158387,2.2387719848166765,0.04471507370242078,0.35,0,3,0.0
6.053066199000568,400,5794.74,-92.0,-1.2,-115.7,0.7,1.84,0.54,-0.07,-0.94,-0.03,-195.5,-118.8,4.0,0.8,3.18,-0.26,0.0,0.9430800602281866,2.0413720875920687,0.0738828170399688,0.35,0,3,0.0
6.062484974000654,401,5794.75,-91.9,-1.3,-115.5,0.58,1.7,0.52,-0.07,-0.99,-0.04,-196.6,-115.0,27.0,0.83,3.07,-0.07,0.0,0.9932774033471213,1.869973261840928,0.023211764442613414,0.35,0,3,0.0
6.073027342000387,402,5794.76,-91.9,-1.4,-115.3,0.88,1.61,0.39,-0.07,-1.0,-0.05,-197.8,-109.9,51.0,0.86,2.89,-0.09,0.0,1.0036931802099682,1.8757931655702342,0.012540067828171297,0.35,0,3,0.0
6.082575360000192,403,5794.77,-91.8,-1.4,-115.2,1.13,1.44,0.44,-0.07,-0.96,-0.05,-198.8,-102.5,68.0,0.89,2.68,-0.1,0.0,0.9638464608017192,1.88257801963159,0.05133905149169182,0.35,0,3,0.0
6.093079078000301,404,5794.78,-91.7,-1.5,-115.0,1.26,1.29,0.5,-0.08,-0.97,-0.07,-199.8,-94.4,73.0,0.91,2.48,0.15,0.0,0.9758073580374356,1.87128298234126,0.03859059117085595,0.35,0,3,0.0
6.102545032000307,405,5794.79,-91.6,-1.6,-114.9,1.37,1.11,0.44,-0.09,-0.97,-0.09,-200.7,-87.6,78.0,0.94,2.25,-0.07,0.0,0.9783148777362021,1.8173056980046038,0.03536141004264759,0.35,0,3,0.0
6.113299051000467,406,5794.8,-91.5,-1.6,-114.8,1.48,0.95,0.32,-0.11,-0.95,-0.1,-201.5,-79.0,77.0,0.96,2.06,-0.24,0.0,0.9615612304996495,1.7875402093379604,0.05107275613361617,0.35,0,3,0.0
6.122583534000114,407,5794.81,-91.3,-1.7,-114.7,1.61,0.77,0.15,-0.13,-0.93,-0.11,-202.2,-71.8,74.0,0.98,1.86,-0.15,0.0,0.9454628496138809,1.7909494688572318,0.06582771427899703,0.35,0,3,0.0
6.133188611000151,408,5794.82,-91.1,-1.7,-114.6,1.77,0.52,-0.11,-0.13,-0.91,-0.12,-202.9,-66.4,50.0,1.0,1.77,0.0,0.0,0.9270382947861432,1.84808008484481,0.08256722372460013,0.35,0,3,0.0
6.142556204000357,409,5794.83,-90.9,-1.6,-114.6,1.87,0.28,-0.4,-0.14,-0.89,-0.12,-203.6,-63.2,35.0,1.01,1.69,0.0,0.0,0.9089004345911602,1.932692422502867,0.09869098224119144,0.35,0,3,0.0
6.153190359000291,410,5794.84,-90.8,-1.6,-114.6,1.81,-0.08,-0.63,-0.15,-0.84,-0.08,-204.2,-61.9,8.0,1.03,1.71,-0.15,0.0,0.857029754442633,1.9181762171396037,0.1475504291419244,0.35,0,3,0.0
6.162535230000685,411,5794.85,-90.6,-1.5,-114.6,1.41,-0.58,-0.69,-0.15,-0.8,-0.08,-204.8,-64.3,-11.0,1.05,1.77,0.0,0.0,0.8178630692236935,1.6734993277560644,0.18298277207364655,0.35,0,3,0.0
6.173275468000611,412,5794.86,-90.5,-1.5,-114.7,0.93,-0.98,-0.57,-0.14,-0.8,-0.11,-205.5,-67.6,-29.0,1.07,1.89,-0.16,0.0,0.8195730595865143,1.4663560277095053,0.17764732607660916,0.35,0,3,0.0
6.182618495000497,413,5794.87,-90.4,-1.4,-114.8,0.55,-1.3,-0.37,-0.13,-0.81,-0.13,-206.2,-70.8,-25.0,1.09,1.94,-0.21,0.0,0.8306021911842035,1.4592463808418372,0.16328583058934154,0.35,0,3,0.0
6.192762120000225,414,5794.88,-90.4,-1.4,-115.0,0.18,-1.56,-0.15,-0.13,-0.82,-0.13,-206.9,-74.0,-37.0,1.11,2.08,-0.08,0.0,0.8403570669661795,1.577498019016189,0.1504603357112182,0.35,0,3,0.0
6.202934848000041,415,5794.89,-90.4,-1.4,-115.1,-0.09,-1.84,-0.04,-0.12,-0.83,-0.14,-207.7,-80.4,-56.0,1.13,2.27,-0.08,0.0,0.850235261559999,1.8426339842735997,0.13777049829505073,0.35,0,3,0.0
6.213319108000178,416,5794.9,-90.4,-1.4,-115.3,-0.34,-2.1,-0.11,-0.14,-0.82,-0.16,-208.5,-88.4,-75.0,1.15,2.51,0.08,0.0,0.8471127433818947,2.130187785149469,0.13807515614369192,0.35,0,3,0.0
6.2224868370003605,417,5794.91,-90.4,-1.4,-115.6,-0.98,-2.33,-0.12,-0.14,-0.79,-0.18,-209.5,-97.8,-92.0,1.18,2.79,0.0,0.0,0.8222530024268686,2.5305532991818214,0.1596761991567437,0.35,0,3,0.0
6.2329888640006175,418,5794.92,-90.6,-1.3,-115.8,-1.69,-2.46,-0.19,-0.12,-0.83,-0.19,-210.6,-108.9,-112.0,1.21,3.12,0.1,0.0,0.8598837130682264,2.990618665092559,0.11960457874507813,0.35,0,3,0.0
6.242624254000475,419,5794.93,-90.8,-1.3,-116.1,-1.95,-2.59,-0.4,-0.08,-0.89,-0.17,-211.7,-122.1,-126.0,1.24,3.49,0.09,0.0,0.9096153033013462,3.2665884344373715,0.06847552874171914,0.35,0,3,0.0
6.253239513000153,420,5794.94,-90.9,-1.3,-116.3,-1.86,-2.61,-0.65,-0.04,-0.94,-0.18,-213.0,-136.0,-141.0,1.28,3.89,-0.03,0.0,0.9579144011862437,3.270198770717156,0.019772902239685197,0.35,0,3,0.0
6.262568412000292,421,5794.95,-91.1,-1.2,-116.6,-1.38,-2.51,-0.92,-0.01,-0.97,-0.18,-214.5,-152.4,-153.0,1.32,4.33,-0.08,0.0,0.986610358753647,3.0084713726409293,0.008744594221163693,0.35,0,3,0.0
6.273184734000097,422,5794.96,-91.2,-1.1,-116.8,-1.12,-2.5,-1.15,0.0,-0.96,-0.18,-216.1,-166.6,-141.0,1.37,4.69,0.01,0.0,0.9767292357659824,2.971009929300136,0.0011137981911709671,0.35,0,3,0.0
6.282604076000098,423,5794.97,-91.3,-1.0,-117.1,-1.33,-2.57,-1.21,0.03,-0.96,-0.19,-217.9,-179.8,-131.0,1.42,5.03,-0.01,0.0,0.979081201943945,3.1365426826364087,0.0012134046270558807,0.35,0,3,0.0
6.293173138999919,424,5794.98,-91.5,-0.9,-117.4,-1.16,-2.66,-1.31,0.04,-0.99,-0.19,-219.8,-190.0,-97.0,1.47,5.24,0.02,0.0,1.0088607436113273,3.183912687245051,0.03037308736854938,0.35,0,3,0.0
6.302544109000337,425,5794.99,-91.6,-0.7,-117.6,-1.15,-2.99,-1.26,0.05,-1.0,-0.16,-221.7,-194.9,-64.0,1.52,5.36,-0.12,0.0,1.0139526616169021,3.4424119451338187,0.034755705266641734,0.35,0,3,0.0
6.313074413000322,426,5795.0,-91.7,-0.6,-118.0,-1.51,-3.44,-0.8,0.08,-1.01,-0.16,-222.9,-197.6,-70.0,1.58,5.5,0.16,0.0,1.0257192598367255,3.8410545427004807,0.04559185741673588,0.35,0,3,0.0
6.322423567000442,427,5795.01,-91.9,-0.6,-118.3,-1.87,-3.56,0.0,0.16,-1.08,-0.21,-225.7,-208.2,-94.0,1.63,5.79,0.12,0.0,1.1118003417880389,4.021256022687439,0.12903948058068826,0.35,0,3,0.0
6.332970367000598,428,5795.02,-92.0,-0.7,-118.7,-1.77,-3.16,0.98,0.24,-1.21,-0.21,-227.9,-219.4,-106.0,1.7,6.11,0.11,0.0,1.2513193037750197,3.752186029503335,0.2631872737163157,0.35,0,3,0.0
6.342645067000376,429,5795.03,-92.2,-0.8,-118.9,-0.95,-2.46,1.8,0.26,-1.36,-0.16,-230.2,-231.7,-120.0,1.76,6.45,0.06,0.0,1.3938436067220743,3.192820070094774,0.3975973451301029,0.35,1,4,3.0
6.352814855000361,430,5795.04,-92.2,-1.1,-119.1,0.22,-1.82,2.53,0.27,-1.46,-0.14,-232.6,-245.9,-147.0,1.83,6.91,0.14,0.0,1.4913416778190034,3.124371936885876,0.4851935079024914,0.35,0,4,3.0
6.363547949999884,431,5795.05,-92.1,-1.4,-119.3,1.54,-1.05,2.95,0.26,-1.52,-0.07,-235.1,-248.2,189.0,1.89,5.69,2.7,3.49,1.5436644713149292,3.4894985313079014,0.5267659753704488,0.35,0,4,3.0
6.3730364620005275,432,5795.06,-91.9,-1.7,-119.3,2.33,-0.6,3.2,0.16,-1.38,0.0,-236.8,-115.6,1098.0,1.92,1.27,2.88,3.49,1.3892443989449803,4.003610870202048,0.3648989849404898,0.35,0,4,3.0
6.382568312999865,433,5795.07,-91.7,-2.0,-119.4,2.03,-0.28,3.46,0.08,-1.37,0.06,-237.0,15.1,1037.0,1.91,-1.34,3.26,3.49,1.373644786689776,4.021305758084058,0.34231338523157984,0.35,0,4,3.0
6.393187036000199,434,5795.08,-91.5,-2.3,-119.4,2.11,-0.18,3.16,-0.03,-1.35,0.15,-236.4,66.6,579.0,1.89,-2.17,3.49,3.49,1.3586390249069102,3.803958464547162,0.3207614709797397,0.35,0,4,3.0
6.402585169000304,435,5795.09,-91.3,-2.6,-119.4,2.03,-0.52,2.54,-0.19,-1.3,0.24,-235.6,89.3,289.0,1.86,-2.5,3.51,3.49,1.3355523202031436,3.29285590331554,0.29172127095045375,0.35,0,4,3.0
6.413332393000019,436,5795.1,-91.1,-2.8,-119.5,1.72,-1.19,1.79,-0.34,-1.26,0.31,-234.7,89.8,73.0,1.84,-2.33,3.59,3.49,1.341379886534758,2.752925716397012,0.29159786053642667,0.35,0,4,3.0
6.422632707000048,437,5795.11,-90.9,-3.0,-119.7,1.75,-2.16,1.2,-0.42,-1.17,0.37,-233.9,66.7,-183.0,1.82,-1.41,3.44,3.49,1.296996530450255,3.0278870520546173,0.24227021436288543,0.35,0,4,3.0
6.433101996000005,438,5795.12,-90.7,-3.1,-119.9,2.06,-3.35,0.89,-0.43,-1.09,0.41,-233.4,36.9,-260.0,1.82,-0.58,3.72,3.49,1.2414104881142256,4.032145830696107,0.1829504885863189,0.35,0,4,3.0
6.442610406000313,439,5795.13,-90.4,-3.2,-120.3,2.33,-4.46,0.85,-0.33,-1.02,0.37,-233.3,5.7,-257.0,1.81,0.06,3.58,3.49,1.1341075786714416,5.103234268579095,0.07413462756066425,0.35,0,4,3.0
6.453208836000158,440,5795.14,-90.2,-3.3,-120.8,2.28,-5.39,0.82,-0.19,-0.99,0.31,-233.3,-0.3,-90.0,1.81,0.02,3.44,3.49,1.0546563421323556,5.909560051306696,0.0052102767988533305,0.35,0,4,3.0
6.462631784000223,441,5795.15,-89.9,-3.4,-121.4,2.06,-5.91,0.88,-0.07,-1.0,0.27,-233.3,0.0,-30.0,1.81,0.0,3.34,3.49,1.0381714694596456,6.320292714740354,0.021261246482132012,0.35,0,4,3.0
6.473270079000031,442,5795.16,-89.7,-3.4,-122.0,2.2,-6.19,0.88,0.0,-1.02,0.23,-233.3,0.1,-9.0,1.81,0.0,3.41,3.49,1.0456098698845568,6.6280087507486,0.013546389136076309,0.35,0,4,3.0
6.482485877000727,443,5795.17,-89.4,-3.5,-122.6,2.43,-6.1,0.79,0.01,-1.04,0.2,-233.3,3.5,46.0,1.81,-0.22,3.39,3.49,1.059103394386025,6.613546703547197,5.180734191601033e-05,0.35,0,4,3.0
6.4932387080007175,444,5795.18,-89.1,-3.6,-123.2,2.42,-5.85,0.46,0.0,-1.04,0.17,-233.2,18.8,133.0,1.81,-0.74,3.5,3.49,1.0538026380684384,6.347479814855656,0.005245512386312656,0.35,0,4,3.0
6.502461787999891,445,5795.19,-88.9,-3.6,-123.8,2.11,-5.41,-0.11,0.0,-1.01,0.11,-232.8,38.9,191.0,1.8,-1.35,3.07,3.49,1.0159724405711013,5.8079514460780395,0.04221419568597695,0.35,0,4,3.0
6.512873620999926,446,5795.2,-88.7,-3.5,-124.3,1.4,-4.91,-0.73,0.03,-0.96,0.13,-232.2,77.2,403.0,1.77,-2.82,3.29,3.49,0.9692264957170744,5.157615728221714,0.08718093772920366,0.35,0,4,3.0
6.52247630400052,447,5795.21,-88.5,-3.4,-124.8,0.52,-4.65,-1.23,0.06,-0.93,0.14,-231.1,131.0,485.0,1.73,-4.24,3.59,3.49,0.9423905772024677,4.8379541130523345,0.11173651911893412,0.35,0,4,3.0
6.532979223999973,448,5795.22,-88.5,-3.3,-125.2,0.19,-4.42,-1.53,0.09,-0.9,0.11,-229.4,186.0,543.0,1.68,-5.78,3.16,3.49,0.9111531155629113,4.681175066155933,0.1401145011433207,0.35,0,4,0.0
6.542420122000294,449,5795.23,-88.4,-3.1,-125.7,0.36,-4.23,-1.62,0.09,-0.86,0.11,-227.1,243.5,555.0,1.61,-7.3,3.11,3.49,0.8716650732936361,4.5438860020911624,0.1760104925443441,0.35,0,4,0.0
6.55327401500017,450,5795.24,-88.4,-2.9,-126.1,0.54,-4.05,-1.55,0.08,-0.84,0.11,-224.3,282.8,180.0,1.54,-7.06,0.36,0.0,0.8509406559801922,4.369965674922401,0.19280021166063221,0.35,0,4,0.0
6.562368083000365,451,5795.25,-88.3,-2.8,-126.5,0.52,-3.89,-1.51,0.06,-0.87,0.08,-222.0,199.7,-586.0,1.49,-4.3,0.2,0.0,0.875728268357257,4.205068370431092,0.16465234729789613,0.35,0,4,0.0
6.572886042999926,452,5795.26,-88.2,-2.6,-126.8,0.32,-3.77,-1.64,-0.01,-0.85,0.08,-220.6,122.0,-611.0,1.46,-2.67,0.26,0.0,0.8538149682454623,4.123699795086932,0.1828343344614971,0.35,0,4,0.0
6.583487243000491,453,5795.27,-88.1,-2.4,-127.2,0.14,-3.8,-1.62,-0.02,-0.8,0.04,-219.7,78.1,-437.0,1.44,-1.77,0.02,0.0,0.8012490249604053,4.13327956954281,0.23069227219162303,0.35,0,4,0.0
6.592976200000521,454,5795.28,-88.1,-2.2,-127.6,0.16,-3.85,-1.54,0.01,-0.79,0.02,-219.1,57.8,-235.0,1.42,-1.45,0.06,0.0,0.7903163923391695,4.149662636889896,0.23679240671660173,0.35,0,4,0.0
6.602388818000691,455,5795.29,-88.1,-2.0,-128.0,0.15,-3.88,-1.39,0.06,-0.79,0.0,-218.5,55.2,-56.0,1.41,-1.59,0.13,0.0,0.7922752047110904,4.124196891517184,0.23013692245778716,0.35,0,4,0.0
6.613251468000271,456,5795.3,-88.1,-1.8,-128.4,0.08,-3.67,-1.24,0.11,-0.82,-0.06,-217.9,64.4,50.0,1.39,-1.9,0.09,0.0,0.8295179322956194,3.8746483711428574,0.18903631097579288,0.35,0,4,0.0
6.622493887000019,457,5795.31,-88.0,-1.7,-128.7,0.0,-3.34,-1.13,0.15,-0.85,-0.08,-217.2,76.9,108.0,1.37,-2.28,0.09,0.0,0.8668333173107733,3.5259750424527962,0.1486865074414262,0.35,0,4,0.0
6.633187555000404,458,5795.32,-88.0,-1.6,-129.0,-0.11,-2.88,-1.03,0.17,-0.89,-0.1,-216.3,94.7,169.0,1.34,-2.83,-0.06,0.0,0.9115920140062659,3.060620852049466,0.10184925453101501,0.35,0,4,0.0
6.642438918000153,459,5795.33,-88.0,-1.5,-129.3,-0.17,-2.38,-0.94,0.19,-0.91,-0.12,-215.2,117.1,208.0,1.31,-3.46,-0.05,0.0,0.9373366524360391,2.5645467435786777,0.07458252377921681,0.35,0,4,0.0
6.652954222000517,460,5795.34,-88.1,-1.4,-129.5,-0.19,-1.88,-0.86,0.2,-0.93,-0.15,-213.9,140.1,226.0,1.27,-4.1,-0.11,0.0,0.9630160954002794,2.0760780332155147,0.04792501919867698,0.35,0,4,0.0
6.662466379000762,461,5795.35,-88.1,-1.3,-129.6,-0.1,-1.39,-0.83,0.2,-0.93,-0.15,-212.3,164.4,239.0,1.22,-4.77,-0.07,0.0,0.9630160954002794,1.6220357579289058,0.04696651881470337,0.35,0,4,0.0
6.672864730000583,462,5795.36,-88.1,-1.2,-129.7,-0.06,-0.93,-0.84,0.2,-0.93,-0.17,-210.5,188.7,242.0,1.17,-5.43,-0.01,0.0,0.9663332758422428,1.2546314199795892,0.042776351605285146,0.35,0,4,0.0
6.683522085000732,463,5795.37,-88.1,-1.1,-129.8,-0.3,-0.52,-0.74,0.19,-0.91,-0.17,-208.4,213.3,245.0,1.11,-6.11,-0.04,0.0,0.9450396817065408,0.9528903399657277,0.06278854682616741,0.35,0,4,0.0
6.692911054000433,464,5795.38,-88.1,-1.1,-129.9,-0.57,-0.19,-0.63,0.16,-0.91,-0.19,-206.1,235.9,219.0,1.05,-6.65,0.0,0.0,0.9432921074619462,0.8705745229444749,0.06324539864934686,0.35,0,4,0.0
6.702993140000217,465,5795.39,-88.2,-1.0,-129.9,-0.75,0.08,-0.57,0.13,-0.92,-0.19,-203.6,255.5,211.0,0.98,-7.21,0.1,0.0,0.9483670175622938,0.9454099639838793,0.05700707877801925,0.35,0,4,0.0
6.713225751000209,466,5795.4,-88.3,-0.9,-129.8,-0.66,0.32,-0.56,0.11,-0.94,-0.2,-200.9,279.5,243.0,0.9,-7.93,0.02,0.0,0.9673158739522473,0.9228217596047463,0.03729705794030436,0.35,0,4,0.0
6.7224761110001054,467,5795.41,-88.3,-0.9,-129.8,-0.33,0.52,-0.45,0.11,-0.93,-0.21,-197.9,304.6,232.0,0.81,-8.53,0.05,0.0,0.9597395480024776,0.7627581530209953,0.04397591621227248,0.35,0,4,0.0
6.732919867999954,468,5795.42,-88.4,-0.9,-129.7,-0.07,0.74,-0.22,0.1,-0.92,-0.22,-194.8,324.6,205.0,0.73,-9.05,-0.21,0.0,0.9512097560475292,0.7751773990513398,0.05145559400387656,0.35,0,4,0.0
6.742991934000202,469,5795.43,-88.3,-0.9,-129.6,0.2,0.99,0.04,0.1,-0.9,-0.23,-191.4,344.8,215.0,0.63,-9.65,-0.02,0.0,0.9342911751697112,1.0107917688624102,0.06700669138406079,0.35,0,4,0.0
6.7531800090000615,470,5795.44,-88.3,-0.9,-129.5,0.55,1.21,0.25,0.1,-0.88,-0.23,-187.8,369.0,230.0,0.53,-10.31,0.15,0.0,0.9150409826887537,1.352442235365341,0.08453174618771797,0.35,0,4,0.0
6.762434389000191,471,5795.45,-88.2,-0.9,-129.4,1.01,1.47,0.41,0.11,-0.85,-0.23,-183.9,394.5,260.0,0.42,-11.08,-0.05,0.0,0.8874119674649423,1.8300546439929055,0.10991754618329874,0.35,0,4,0.0
6.773078132000592,472,5795.46,-88.1,-1.0,-129.2,1.32,1.83,0.58,0.15,-0.82,-0.24,-179.8,420.6,225.0,0.31,-11.62,-0.13,0.0,0.8674675786448736,2.3297424750388185,0.12726469630330017,0.35,0,4,0.0
6.782485463000739,473,5795.47,-88.0,-1.1,-129.0,1.24,2.25,0.83,0.18,-0.78,-0.23,-175.4,437.6,201.0,0.19,-12.15,0.06,0.0,0.8328865468957942,2.6998148084637212,0.15860881349133193,0.35,0,4,0.0
6.793021178000345,474,5795.48,-87.9,-1.2,-128.8,0.91,2.65,1.01,0.2,-0.79,-0.22,-170.9,460.0,201.0,0.06,-12.69,-0.14,0.0,0.8440971508067067,2.9783720385472328,0.14445024538881113,0.35,0,4,0.0
6.802391582999917,475,5795.49,-87.8,-1.3,-128.5,0.65,3.03,1.1,0.23,-0.8,-0.21,-166.2,473.7,181.0,-0.06,-13.16,-0.19,0.0,0.8584870412533903,3.288373458109647,0.12745914784328494,0.35,0,4,0.0
6.812906676000239,476,5795.5,-87.8,-1.4,-128.2,0.32,3.44,1.11,0.23,-0.8,-0.21,-161.3,499.7,222.0,-0.2,-13.83,0.09,0.0,0.8584870412533903,3.628787676345917,0.12490996488641926,0.35,0,4,0.0
6.823219778000748,477,5795.51,-87.8,-1.5,-127.8,-0.08,3.81,1.03,0.23,-0.78,-0.21,-156.2,513.7,150.0,-0.34,-14.11,-0.04,0.0,0.8398809439438426,3.947581538106591,0.14064574095204763,0.35,0,4,0.0
6.832980541999859,478,5795.52,-87.8,-1.6,-127.4,-0.58,4.05,0.9,0.22,-0.79,-0.19,-151.0,527.7,144.0,-0.48,-14.5,0.1,0.0,0.8417838202293983,4.189140723346496,0.13596800737316206,0.35,0,4,0.0
6.8424262320004345,479,5795.53,-87.9,-1.7,-127.0,-1.12,4.21,0.63,0.21,-0.79,-0.15,-145.6,540.8,118.0,-0.63,-14.77,-0.03,0.0,0.8310836299675263,4.401749652126981,0.14373483368233342,0.35,0,4,0.0
6.852912482000647,480,5795.54,-88.1,-1.8,-126.6,-1.79,4.29,0.4,0.19,-0.79,-0.14,-140.3,518.4,-277.0,-0.77,-13.32,0.07,0.0,0.8244998483929515,4.6656403633370624,0.14731224295177003,0.35,0,4,0.0
6.863053443999888,481,5795.55,-88.3,-1.8,-126.2,-2.31,4.13,0.35,0.22,-0.78,-0.13,-135.6,435.8,-770.0,-0.88,-10.4,0.61,0.0,0.8207923001588161,4.745050052423051,0.1479993953621873,0.35,0,4,0.0
6.873059934000594,482,5795.56,-88.6,-1.9,-125.7,-2.7,4.11,0.45,0.17,-0.88,-0.18,-132.1,305.6,-1196.0,-0.96,-6.5,0.74,0.0,0.914166286842826,4.9380765486168805,0.0535329005046139,0.35,0,4,0.0
6.88265793500068,483,5795.57,-88.9,-1.9,-125.3,-2.92,4.12,0.4,0.01,-0.98,-0.21,-130.1,157.6,-1387.0,-0.99,-2.45,0.54,0.0,1.002297361066066,5.065649020609304,0.033906210244253554,0.35,0,4,0.0
6.892875002999972,484,5795.58,-89.2,-2.0,-124.9,-2.51,4.19,0.46,-0.07,-1.05,-0.24,-129.6,9.2,-1373.0,-0.99,1.19,0.23,0.0,1.0793516572461452,4.905894413865835,0.10874129629584617,0.35,0,4,0.0
6.902583478999986,485,5795.59,-89.4,-2.0,-124.5,-1.71,4.21,0.46,-0.14,-1.16,-0.18,-130.2,-80.6,-909.0,-0.97,2.89,0.09,0.0,1.182201336490532,4.567253003721165,0.20735915602942823,0.35,0,4,0.0
6.913121413000226,486,5795.6,-89.6,-2.1,-124.1,-1.53,4.06,0.32,-0.29,-1.31,-0.09,-131.4,-135.7,-656.0,-0.93,4.31,0.16,0.0,1.3447304562625182,4.3505057177298365,0.36249051028538615,0.35,0,5,0.0
6.922558842000399,487,5795.61,-89.7,-2.1,-123.7,-1.39,3.65,-0.03,-0.27,-1.4,-0.03,-133.1,-188.8,-596.0,-0.88,5.86,0.31,0.0,1.4261135999632006,3.9058289773107067,0.4349961809063472,0.35,0,5,0.0
6.933232625000528,488,5795.62,-89.9,-2.1,-123.4,-1.15,3.16,-0.55,-0.2,-1.41,0.0,-135.4,-245.3,-553.0,-0.81,7.27,0.35,0.0,1.4241137595009745,3.407433051433293,0.42433641363523866,0.35,0,5,0.0
6.942638082000485,489,5795.63,-90.0,-2.1,-123.1,-1.35,2.46,-0.89,-0.13,-1.29,0.01,-138.1,-289.3,-442.0,-0.73,8.3,0.22,0.0,1.2965724044572289,2.9438410283165766,0.29085915741966306,0.35,0,5,0.0
6.95289551299993,490,5795.64,-90.2,-2.0,-122.8,-1.93,2.16,-1.15,-0.02,-1.23,-0.01,-141.2,-319.9,-323.0,-0.64,8.97,0.11,0.0,1.2302032352420473,3.1165686259089496,0.22000018844039193,0.35,0,5,0.0
6.962566958000025,491,5795.65,-90.4,-1.8,-122.6,-3.05,2.03,-1.54,0.01,-1.3,0.06,-144.6,-333.2,-141.0,-0.55,9.04,-0.35,0.0,1.3014222988715078,3.974292389847531,0.2853948670284554,0.35,0,5,0.0
6.973100831000011,492,5795.66,-90.7,-1.6,-122.5,-4.27,1.55,-2.19,-0.07,-1.48,0.19,-147.8,-322.0,78.0,-0.46,8.46,0.01,0.0,1.4937871334296597,5.042965397462092,0.4682045075548751,0.35,0,5,0.0
6.982651156999964,493,5795.67,-91.2,-1.4,-122.3,-4.83,1.11,-2.88,-0.15,-1.7,0.29,-150.9,-297.7,189.0,-0.38,7.78,-0.04,0.0,1.731069033863179,5.731963014535248,0.6913766798286263,0.35,0,5,0.0
6.992867014000694,494,5795.68,-91.7,-1.0,-122.3,-4.28,0.27,-3.43,-0.22,-1.78,0.33,-153.7,-270.3,258.0,-0.31,6.98,0.0,0.0,1.8236501857538359,5.491466106605777,0.7682786750848976,0.35,0,5,0.0
7.00261808400046,495,5795.69,-92.0,-0.7,-122.3,-2.35,-0.56,-3.21,-0.21,-1.62,0.24,-156.2,-239.0,296.0,-0.24,6.1,-0.17,0.0,1.6510905486980416,4.017486776580602,0.5838046572685212,0.35,0,5,0.0
7.013116636000632,496,5795.7,-92.1,-0.4,-122.4,-0.1,-0.61,-2.16,-0.04,-1.33,0.07,-158.3,-206.4,316.0,-0.19,5.21,-0.2,0.0,1.3324413683160696,2.2467087038599374,0.2598523673488182,0.35,0,5,0.0
7.022410606000449,497,5795.71,-92.0,-0.3,-122.4,0.91,-0.03,-1.13,0.17,-1.09,0.0,-160.2,-173.8,322.0,-0.14,4.33,-0.17,0.0,1.103177229641729,1.4511719401917884,0.029976464100988087,0.35,0,5,0.0
7.030605564000325,498,5795.72,-91.9,-0.2,-122.4,0.8,0.89,-0.19,0.38,-0.93,-0.08,-161.7,-141.9,314.0,-0.11,3.48,-0.1,0.0,1.0078194282707593,1.2116930304330384,0.0640737105245821,0.35,0,5,0.0
7.043303019000632,499,5795.73,-91.9,-0.2,-122.2,0.01,2.06,0.32,0.48,-0.87,-0.09,-162.9,-114.2,268.0,-0.08,2.83,0.14,0.0,0.9976973488989535,2.0847301983710027,0.07271187409846014,0.35,0,5,0.0
7.053226333000566,500,5795.74,-91.9,-0.3,-122.0,-0.81,3.17,0.46,0.48,-0.91,-0.04,-163.9,-95.1,207.0,-0.05,2.37,-0.23,0.0,1.0296115772464878,3.3040278449189864,0.039981692835907356,0.35,0,5,0.0
7.0623939309998605,501,5795.75,-92.0,-0.3,-121.6,-1.12,4.0,0.35,0.42,-0.98,0.0,-164.8,-80.5,157.0,-0.03,2.03,0.01,0.0,1.0662082348209472,4.168560902757689,0.003317334556218965,0.35,0,5,0.0
7.073069494000265,502,5795.76,-92.1,-0.3,-121.2,-0.77,4.54,0.1,0.28,-1.02,0.01,-165.5,-68.8,123.0,-0.01,1.74,0.2,0.0,1.0577806956075537,4.605920103518948,0.011509976294220126,0.35,0,5,0.0
7.082437244000175,503,5795.77,-92.2,-0.3,-120.7,0.03,4.8,-0.1,0.11,-0.99,0.03,-166.1,-62.1,71.0,0.0,1.64,-0.09,0.0,0.9965440281292142,4.801135282409776,0.0712917108971085,0.35,0,5,0.0
7.092902200000026,504,5795.78,-92.1,-0.2,-120.2,0.99,4.75,-0.27,-0.04,-0.93,0.06,-166.7,-56.6,65.0,0.01,1.46,0.0,0.0,0.9327915093953204,4.859578170993857,0.1323433450383823,0.35,0,5,0.0
7.102460650000467,505,5795.79,-92.0,-0.2,-119.7,1.35,4.57,-0.18,-0.14,-0.89,0.07,-167.2,-51.4,43.0,0.02,1.38,-0.01,0.0,0.9036592278065886,4.7686266366743375,0.1582461140945718,0.35,0,5,0.0
7.112923093000063,506,5795.8,-91.8,-0.2,-119.3,1.3,4.15,-0.08,-0.19,-0.87,0.09,-167.7,-50.7,18.0,0.04,1.37,0.02,0.0,0.8950418984606252,4.349586187213676,0.16352617457172447,0.35,0,5,0.0
7.122710779000045,507,5795.81,-91.7,-0.1,-118.9,0.98,3.56,0.16,-0.22,-0.82,0.1,-168.2,-51.0,-3.0,0.05,1.42,0.26,0.0,0.8548684109265003,3.6958896087410404,0.19962566886373234,0.35,0,5,0.0
7.132948684000439,508,5795.82,-91.6,-0.2,-118.6,0.52,3.04,0.56,-0.2,-0.82,0.08,-168.8,-54.8,-31.0,0.07,1.56,0.09,0.0,0.8478207357690657,3.13458131175441,0.20253987714074362,0.35,0,5,0.0
7.142483336000623,509,5795.83,-91.6,-0.2,-118.3,0.2,2.76,0.94,-0.16,-0.85,0.06,-169.4,-61.1,-51.0,0.08,1.73,-0.08,0.0,0.8670063436907482,2.9225331478017487,0.17968718383467985,0.35,0,5,0.0
7.15318729000046,510,5795.84,-91.6,-0.4,-118.0,0.07,2.53,1.26,-0.12,-0.87,0.04,-170.0,-70.1,-98.0,0.1,2.08,0.01,0.0,0.8791473141629905,2.8272601578206418,0.16419528909518888,0.35,0,5,0.0
7.162495836000744,511,5795.85,-91.6,-0.5,-117.8,0.27,2.41,1.43,-0.09,-0.89,0.02,-170.8,-84.3,-122.0,0.13,2.45,0.22,0.0,0.8947625383307014,2.815297497601275,0.14560846362892854,0.35,0,5,0.0
7.173178570000346,512,5795.86,-91.5,-0.7,-117.6,0.66,2.36,1.43,-0.06,-0.88,0.01,-171.8,-99.5,-145.0,0.15,2.88,-0.36,0.0,0.8820997676000147,2.837269814451914,0.15510580967242282,0.35,0,5,0.0
7.182658628999889,513,5795.87,-91.4,-0.8,-117.3,0.89,2.38,1.36,-0.03,-0.84,-0.01,-172.9,-114.8,-153.0,0.19,3.31,0.05,0.0,0.8405950273467003,2.8820305341893935,0.19267833892722253,0.35,0,5,0.0
7.192717124999945,514,5795.88,-91.3,-0.9,-117.1,0.74,2.43,1.25,0.0,-0.81,-0.02,-174.1,-130.5,-156.0,0.22,3.74,0.07,0.0,0.810246875958186,2.831077533378413,0.21856596050942212,0.35,0,5,0.0
7.203045842000392,515,5795.89,-91.3,-1.0,-116.8,0.28,2.42,1.16,0.01,-0.8,-0.03,-175.5,-144.9,-142.0,0.26,4.09,0.0,0.0,0.8006247560499239,2.6982216365599028,0.22362431880933065,0.35,0,5,0.0
7.21317901600014,516,5795.9,-91.3,-1.1,-116.6,-0.25,2.39,1.16,0.01,-0.81,-0.03,-177.1,-158.3,-132.0,0.31,4.44,0.18,0.0,0.8106170489201422,2.668370289146542,0.20935938542033006,0.35,0,5,0.0
7.22245207800006,517,5795.91,-91.4,-1.2,-116.3,-0.42,2.33,1.17,0.0,-0.85,-0.04,-178.8,-169.2,-111.0,0.35,4.71,-0.02,0.0,0.8509406559801923,2.6408710684166317,0.1656550627930743,0.35,0,5,0.0
7.233012310000049,518,5795.92,-91.4,-1.3,-116.1,-0.28,2.33,1.23,0.0,-0.87,-0.06,-180.5,-177.1,-75.0,0.4,4.86,0.0,0.0,0.8720665112249181,2.649566002197341,0.14163862339738154,0.35,0,5,0.0
7.242607529999987,519,5795.93,-91.5,-1.4,-115.9,-0.2,2.33,1.34,-0.02,-0.87,-0.08,-182.3,-179.9,-31.0,0.45,4.88,-0.14,0.0,0.8738993077008357,2.695273641024228,0.13700971038303456,0.35,0,5,0.0
7.253103975000158,520,5795.94,-91.6,-1.6,-115.6,-0.28,2.35,1.48,-0.04,-0.87,-0.09,-184.1,-177.1,11.0,0.5,4.78,-0.09,0.0,0.8755569655939013,2.791290024343583,0.1326450114401696,0.35,0,5,0.0
7.262617877000594,521,5795.95,-91.7,-1.8,-115.4,-0.41,2.33,1.53,-0.06,-0.88,-0.11,-185.8,-172.6,37.0,0.54,4.63,0.07,0.0,0.8888756943465155,2.8174279050225937,0.11693975703380421,0.35,0,5,0.0
7.272905700000592,522,5795.96,-91.8,-1.9,-115.1,-0.58,2.35,1.54,-0.07,-0.9,-0.12,-187.5,-167.1,51.0,0.59,4.46,-0.07,0.0,0.910659101969557,2.8688848007544676,0.09325322242254741,0.35,0,5,0.0
7.282612243000585,523,5795.97,-91.8,-2.1,-114.9,-0.71,2.36,1.47,-0.09,-0.93,-0.13,-189.1,-158.6,86.0,0.63,4.17,-0.14,0.0,0.9433451118228154,2.8695992751602097,0.05935586831790329,0.35,0,5,0.0
7.292904186000669,524,5795.98,-91.9,-2.2,-114.7,-0.74,2.39,1.36,-0.12,-0.97,-0.14,-190.6,-144.8,134.0,0.67,3.73,0.1,0.0,0.9873702446397703,2.847683268904743,0.015024120790929407,0.35,0,5,0.0
7.302600564000386,525,5795.99,-92.0,-2.3,-114.4,-0.66,2.32,1.25,-0.13,-1.0,-0.14,-192.0,-128.3,149.0,0.71,3.29,-0.12,0.0,1.0180864403379508,2.7167075661542963,0.015378233409106157,0.35,0,5,0.0
7.313055972000257,526,5796.0,-92.1,-2.4,-114.2,-0.37,2.17,1.04,-0.14,-1.02,-0.14,-192.9,-116.0,208.0,0.74,2.83,0.1,0.0,1.039038016628843,2.4346252278328175,0.03560321350599849,0.35,0,5,0.0
7.322616207000465,527,5796.01,-92.1,-2.5,-114.0,0.0,1.98,0.72,-0.15,-1.02,-0.14,-194.3,-96.3,167.0,0.76,2.47,-0.16,0.0,1.0404326023342405,2.1068459839295324,0.036257843227168074,0.35,0,5,0.0
7.333152720000726,528,5796.02,-92.1,-2.5,-113.8,0.34,1.72,0.31,-0.17,-1.01,-0.14,-195.1,-84.3,128.0,0.79,2.16,-0.01,0.0,1.0337311062360464,1.780477464052831,0.028965220186394358,0.35,0,5,0.0
7.342596989000413,529,5796.03,-92.0,-2.5,-113.6,0.81,1.36,-0.13,-0.19,-0.98,-0.12,-195.9,-73.5,112.0,0.81,1.88,0.01,0.0,1.0054352291420865,1.5882694985423602,0.0006559562305858968,0.35,0,5,0.0
7.35315172600076,530,5796.04,-91.9,-2.5,-113.5,1.35,0.83,-0.54,-0.21,-0.95,-0.09,-196.6,-64.9,87.0,0.82,1.67,-0.02,0.0,0.9770875088752287,1.6742162345408074,0.027137928755546437,0.35,0,5,0.0
7.362648514000284,531,5796.05,-91.8,-2.4,-113.5,1.65,0.16,-0.89,-0.23,-0.88,-0.09,-197.2,-57.3,80.0,0.84,1.48,0.03,0.0,0.9140021881811881,1.8815419208723465,0.08841878446059537,0.35,0,5,0.0
7.3729256320002605,532,5796.06,-91.6,-2.3,-113.5,1.29,-0.52,-1.04,-0.23,-0.83,-0.12,-197.7,-53.1,37.0,0.85,1.44,0.0,0.0,0.8695976080923866,1.7366922582887274,0.1301668972584089,0.35,0,5,0.0
7.382639545000529,533,5796.07,-91.5,-2.2,-113.6,0.54,-1.16,-1.03,-0.22,-0.83,-0.13,-198.2,-52.5,10.0,0.87,1.45,0.08,0.0,0.8684468895678077,1.642589419179364,0.12869126346732807,0.35,0,5,0.0
7.392947547999938,534,5796.08,-91.5,-2.1,-113.7,-0.03,-1.66,-0.97,-0.2,-0.85,-0.13,-198.8,-54.0,-5.0,0.88,1.48,0.16,0.0,0.8828363381737296,1.9228624495787523,0.11201577856417799,0.35,0,5,0.0
7.402570342000217,535,5796.09,-91.5,-2.0,-113.9,-0.22,-2.08,-0.91,-0.17,-0.9,-0.13,-199.3,-57.5,-32.0,0.9,1.62,0.15,0.0,0.9250945897582582,2.2809866286324434,0.0683623764400565,0.35,0,5,0.0
7.413037841000005,536,5796.1,-91.5,-2.0,-114.2,-0.2,-2.41,-0.84,-0.13,-0.91,-0.14,-200.0,-65.1,-73.0,0.92,1.9,0.05,0.0,0.9298386956886662,2.5600195311754947,0.06234590509945559,0.35,0,5,0.0
7.4226170400006595,537,5796.11,-91.5,-1.9,-114.4,-0.24,-2.64,-0.78,-0.1,-0.9,-0.16,-200.7,-77.5,-109.0,0.94,2.25,0.0,0.0,0.9195651146058119,2.7632589455206693,0.0711670964586637,0.35,0,5,0.0
7.432947631999923,538,5796.12,-91.5,-1.8,-114.7,-0.58,-2.75,-0.68,-0.09,-0.89,-0.17,-201.6,-89.6,-117.0,0.96,2.59,0.09,0.0,0.9105492847726586,2.8915912574221134,0.07857926776598068,0.35,0,5,0.0
7.442451732000336,539,5796.13,-91.6,-1.8,-115.0,-1.16,-2.76,-0.48,-0.06,-0.91,-0.18,-202.5,-103.1,-134.0,0.99,2.99,0.0,0.0,0.9295697929687691,3.032094985319556,0.05836758437847278,0.35,0,5,0.0
7.453073871000015,540,5796.14,-91.8,-1.7,-115.2,-1.46,-2.53,-0.28,-0.01,-0.96,-0.19,-203.7,-118.5,-146.0,1.02,3.4,0.02,0.0,0.9786725703727472,2.9344335058065294,0.00907951083500469,0.35,0,5,0.0
7.462596865000705,541,5796.15,-91.9,-1.7,-115.5,-1.07,-2.27,-0.21,0.02,-1.04,-0.21,-205.0,-134.5,-158.0,1.06,3.86,0.05,0.0,1.0611785900591852,2.5183129273384592,0.07195797867440468,0.35,0,5,0.0
7.473152694000419,542,5796.16,-91.9,-1.7,-115.7,-0.22,-1.85,-0.13,0.02,-1.06,-0.26,-206.4,-151.7,-161.0,1.1,4.3,0.16,0.0,1.0916043239196151,1.8675652599039212,0.10033603828413784,0.35,0,5,0.0
7.482669117000114,543,5796.17,-91.9,-1.7,-115.9,0.35,-1.57,-0.05,0.01,-1.06,-0.23,-207.9,-164.8,-143.0,1.14,4.63,-0.03,0.0,1.0847119433287347,1.6093166251549134,0.09157478453939216,0.35,0,5,0.0
7.492977966000581,544,5796.18,-91.9,-1.7,-116.0,0.21,-1.55,0.02,0.01,-1.08,-0.22,-209.6,-175.2,-105.0,1.19,4.85,0.04,0.0,1.102225022397877,1.5642889758609182,0.10690610633636366,0.35,0,5,0.0
7.502565663000496,545,5796.19,-91.9,-1.7,-116.2,-0.09,-1.66,-0.01,0.01,-1.1,-0.2,-211.4,-183.1,-85.0,1.24,5.07,0.06,0.0,1.1180787092150535,1.662468044805674,0.12030459729046938,0.35,0,5,0.0
7.513034985000559,546,5796.2,-91.9,-1.7,-116.3,-0.49,-1.81,0.08,-0.01,-1.11,-0.14,-213.3,-189.7,-78.0,1.29,5.26,0.14,0.0,1.1188386836358495,1.8768590783540464,0.11864328027704008,0.35,0,5,0.0
7.5226359400003275,547,5796.21,-92.0,-1.8,-116.5,-0.79,-1.83,0.45,0.0,-1.12,-0.12,-215.3,-198.6,-91.0,1.35,5.53,0.06,0.0,1.126410227226298,2.0434040227032932,0.12369052739013875,0.35,0,5,0.0
7.532828725999934,548,5796.22,-92.1,-1.8,-116.7,-0.86,-1.65,0.89,0.02,-1.16,-0.19,-217.3,-208.3,-93.0,1.41,5.78,-0.03,0.0,1.175627492022877,2.0625712108918806,0.1694496363429836,0.35,0,5,0.0
7.543099685000016,549,5796.23,-92.2,-1.9,-116.8,-0.88,-1.31,1.31,0.03,-1.2,-0.18,-219.5,-217.3,-91.0,1.46,6.03,-0.08,0.0,1.2137956994486345,2.0509997562164655,0.2034654868933663,0.35,0,5,0.0
7.552932485000383,550,5796.24,-92.3,-2.1,-117.0,-0.91,-1.04,1.69,0.04,-1.24,-0.12,-221.7,-226.7,-94.0,1.53,6.27,0.02,0.0,1.2464349160706307,2.1830712310870664,0.2313826094450553,0.35,0,5,0.0
7.562525127000299,551,5796.25,-92.4,-2.2,-117.0,-1.08,-0.81,2.0,0.1,-1.3,-0.11,-224.0,-238.7,-123.0,1.59,6.67,0.02,0.0,1.3084723917607128,2.4129857024027306,0.28755168343243476,0.35,0,5,0.0
7.573135772000569,552,5796.26,-92.5,-2.4,-117.1,-0.82,-0.3,2.13,0.12,-1.38,-0.05,-226.5,-254.1,-145.0,1.66,7.1,-0.22,0.0,1.3861096637712327,2.3020208513391007,0.35788517633409556,0.35,1,6,3.0
7.582647019000433,553,5796.27,-92.6,-2.6,-117.1,-0.13,-0.03,2.27,0.04,-1.36,-0.01,-229.2,-269.8,-148.0,1.74,7.5,0.03,0.0,1.3606248564538281,2.2739173247943736,0.3257523616363571,0.35,0,6,3.0
7.592975336000563,554,5796.28,-92.5,-2.8,-117.1,0.26,0.11,2.46,0.0,-1.35,0.04,-232.0,-274.4,119.0,1.81,6.61,2.76,3.49,1.3505924625881784,2.4761461992378395,0.3094055684152932,0.35,0,6,3.0
7.602645132999896,555,5796.29,-92.4,-3.0,-117.1,0.68,-0.14,2.21,-0.06,-1.28,0.13,-234.0,-150.7,1084.0,1.84,2.12,2.97,3.49,1.2879829191413992,2.3164844053004114,0.24186010446914374,0.35,0,6,3.0
7.6129663179999625,556,5796.3,-92.4,-3.2,-117.1,0.64,-0.75,1.67,-0.16,-1.24,0.2,-234.4,-9.7,1142.0,1.84,-0.93,3.36,3.49,1.266175343307553,1.9393297811357408,0.21565147806259177,0.35,0,6,3.0
7.622627814000225,557,5796.31,-92.3,-3.3,-117.2,0.45,-1.71,1.04,-0.25,-1.15,0.25,-234.0,51.4,589.0,1.83,-1.58,3.51,3.49,1.2031209415515964,2.051389772812568,0.14954513478050235,0.35,0,6,3.0
7.632939470000565,558,5796.32,-92.3,-3.4,-117.4,0.2,-2.76,0.62,-0.28,-1.14,0.29,-233.4,63.9,253.0,1.81,-1.76,3.44,3.49,1.2091732712891068,2.835842026629833,0.15248551522765252,0.35,0,6,3.0
7.642562861000442,559,5796.33,-92.2,-3.5,-117.8,0.71,-3.66,0.43,-0.26,-1.14,0.3,-232.9,49.4,-102.0,1.8,-0.89,3.74,3.49,1.2071453930658063,3.7529455098628866,0.14744848426426493,0.35,0,6,3.0
7.653095770000618,560,5796.34,-92.0,-3.6,-118.2,1.57,-4.39,0.5,-0.21,-1.07,0.31,-232.6,15.9,-226.0,1.79,-0.12,3.71,3.49,1.1336225121265016,4.689029750385467,0.07244709125846094,0.35,0,6,3.0
7.662586461000501,561,5796.35,-91.8,-3.6,-118.7,2.19,-5.14,0.79,-0.12,-1.0,0.31,-232.6,-0.5,-114.0,1.79,0.0,3.63,3.49,1.0538026380684384,5.642676669808398,0.007225327143610238,0.35,0,6,3.0
7.673194055000749,562,5796.36,-91.5,-3.7,-119.2,2.59,-5.77,0.95,-0.04,-0.95,0.25,-232.6,0.0,-42.0,1.79,0.0,3.64,3.49,0.9831581764904364,6.39558441426583,0.07631239294718017,0.35,0,6,3.0
7.682663524999953,563,5796.37,-91.2,-3.9,-119.8,2.55,-5.95,1.07,-0.02,-0.91,0.17,-232.6,0.4,-9.0,1.79,-0.05,3.49,3.49,0.9259589623736033,6.561242260425994,0.13084137492273284,0.35,0,6,3.0
7.6929798780001875,564,5796.38,-91.0,-4.0,-120.4,2.02,-5.69,1.02,-0.02,-0.96,0.11,-232.5,9.5,100.0,1.79,-0.51,3.45,3.49,0.9664884893261791,6.12347123778662,0.08850561101075383,0.35,0,6,3.0
7.7025314689999504,565,5796.39,-90.7,-4.1,-120.9,1.47,-5.17,0.65,-0.05,-1.05,0.09,-232.2,38.3,259.0,1.78,-1.48,3.36,3.49,1.055035544424926,5.4140834866115615,4.061520623310777e-05,0.35,0,6,3.0
7.71312356999988,566,5796.4,-90.5,-4.1,-121.4,1.3,-4.71,0.1,-0.02,-1.07,0.1,-231.6,72.5,302.0,1.76,-2.36,3.22,3.49,1.0748488265798126,4.887136175716818,0.01945681941389732,0.35,0,6,3.0
7.722512721000385,567,5796.41,-90.4,-4.1,-121.9,1.19,-4.32,-0.38,0.0,-1.04,0.11,-230.6,114.0,425.0,1.73,-3.73,3.14,3.49,1.0458011283222064,4.496987880793099,0.009399061266834652,0.35,0,6,3.0
7.7329566990001695,568,5796.42,-90.2,-4.0,-122.3,0.72,-3.91,-0.86,0.03,-0.97,0.08,-229.1,168.4,524.0,1.68,-5.3,3.24,3.49,0.973755616158387,4.067689762014798,0.07981568196204092,0.35,0,6,3.0
7.742656024000098,569,5796.43,-90.2,-3.9,-122.7,0.21,-3.58,-1.19,0.07,-0.93,0.09,-227.0,225.9,541.0,1.61,-6.8,3.3,3.49,0.9369631796394137,3.778438831051788,0.11427595611139407,0.35,0,6,3.0
7.753069999000218,570,5796.44,-90.2,-3.8,-123.0,-0.08,-3.46,-1.44,0.08,-0.91,0.13,-224.4,278.6,521.0,1.54,-8.18,3.16,3.49,0.9227133899537819,3.7485463849337655,0.1259552308810853,0.35,0,6,3.0
7.762543451000056,571,5796.45,-90.1,-3.6,-123.4,-0.11,-3.45,-1.62,0.07,-0.9,0.12,-221.3,325.8,496.0,1.45,-9.46,3.46,3.49,0.910659101969557,3.8130040650384838,0.13524932848800397,0.35,0,6,0.0
7.7731221240001105,572,5796.46,-90.1,-3.5,-123.7,0.03,-3.37,-1.7,0.05,-0.87,0.08,-217.7,371.2,438.0,1.34,-10.53,3.61,3.49,0.8750999942863672,3.7746258092690463,0.1673922674477698,0.35,0,6,0.0
7.782642566000504,573,5796.47,-90.1,-3.3,-124.0,0.22,-3.22,-1.66,0.04,-0.84,0.05,-213.8,387.0,-65.0,1.24,-9.46,0.49,0.0,0.8424369412602939,3.629380112360787,0.19605421406436618,0.35,0,6,0.0
7.792853024000578,574,5796.48,-90.0,-3.1,-124.3,0.28,-3.1,-1.58,0.04,-0.85,0.01,-210.6,279.8,-785.0,1.17,-6.27,0.49,0.0,0.8509994124557313,3.490673287490538,0.18374190801155021,0.35,0,6,0.0
7.802530698000737,575,5796.49,-90.0,-2.9,-124.7,0.03,-3.09,-1.66,-0.02,-0.86,0.02,-208.5,187.3,-778.0,1.12,-4.24,0.06,0.0,0.860464990571958,3.507791327887108,0.17079080329741692,0.35,0,6,0.0
7.813036590000593,576,5796.5,-90.0,-2.8,-125.0,-0.08,-3.24,-1.68,-0.01,-0.81,0.01,-207.0,128.8,-583.0,1.09,-2.99,0.2,0.0,0.8101234473831751,3.650534207482516,0.2167096995564759,0.35,0,6,0.0
7.822557125999992,577,5796.51,-89.9,-2.6,-125.3,0.09,-3.39,-1.53,0.03,-0.79,-0.01,-206.0,94.6,-374.0,1.06,-2.31,0.0,0.0,0.7906326580656785,3.720362885526088,0.23147647909649305,0.35,0,6,0.0
7.83273004000057,578,5796.52,-89.9,-2.4,-125.6,0.26,-3.46,-1.38,0.07,-0.8,-0.04,-205.2,78.1,-206.0,1.04,-2.02,-0.09,0.0,0.8040522371090079,3.7341130138226934,0.2136957620521004,0.35,0,6,0.0
7.842455325000628,579,5796.53,-89.9,-2.3,-126.0,0.13,-3.3,-1.09,0.11,-0.79,-0.09,-204.4,76.4,-46.0,1.02,-2.15,0.26,0.0,0.8026830009412185,3.47778665245584,0.2107636982554919,0.35,0,6,0.0
7.852457708000657,580,5796.54,-89.9,-2.2,-126.3,-0.06,-3.02,-0.82,0.15,-0.83,-0.13,-203.6,86.3,63.0,1.0,-2.5,-0.02,0.0,0.8534049449118513,3.1299201267764007,0.156840919199162,0.35,0,6,0.0
7.861697651000213,581,5796.55,-89.9,-2.1,-126.6,-0.05,-2.56,-0.68,0.19,-0.87,-0.16,-202.6,102.1,135.0,0.97,-2.99,-0.23,0.0,0.9047651629014017,2.649245175516981,0.10337108718541921,0.35,0,6,0.0
7.8729647979998845,582,5796.56,-89.8,-2.0,-126.8,0.14,-2.08,-0.56,0.21,-0.89,-0.17,-201.5,123.2,198.0,0.93,-3.63,-0.2,0.0,0.9301075206662938,2.1586106642931235,0.07646815483211655,0.35,0,6,0.0
7.882490053000765,583,5796.57,-89.8,-2.0,-127.0,0.37,-1.55,-0.43,0.23,-0.87,-0.2,-200.1,147.0,220.0,0.89,-4.28,-0.08,0.0,0.9218459741193211,1.6505453644174704,0.08303510735150732,0.35,0,6,0.0
7.893024478999905,584,5796.58,-89.8,-2.0,-127.1,0.48,-0.94,-0.25,0.24,-0.87,-0.22,-198.4,169.9,218.0,0.84,-4.88,-0.08,0.0,0.9289241088485108,1.084665847162157,0.07443783316987129,0.35,0,6,0.0
7.902453724000225,585,5796.59,-89.7,-1.9,-127.2,0.51,-0.34,-0.2,0.22,-0.86,-0.25,-196.6,192.0,224.0,0.79,-5.5,-0.01,0.0,0.9222255689363638,0.6447480127925949,0.0795136456203781,0.35,0,6,0.0
7.912938446000226,586,5796.6,-89.7,-1.9,-127.2,0.3,0.22,-0.14,0.19,-0.85,-0.25,-194.5,213.8,218.0,0.73,-6.08,0.0,0.0,0.9061456836513652,0.39749213828703583,0.09368166028726921,0.35,0,6,0.0
7.922387724000146,587,5796.61,-89.7,-1.9,-127.1,0.09,0.69,-0.12,0.16,-0.86,-0.24,-192.2,235.5,220.0,0.67,-6.68,-0.19,0.0,0.9070832376358853,0.7061161377563892,0.0908892241766941,0.35,0,6,0.0
7.9329176680003,588,5796.62,-89.7,-1.9,-127.0,0.02,1.05,-0.09,0.14,-0.86,-0.23,-189.7,258.1,227.0,0.6,-7.31,-0.19,0.0,0.9011659114724657,1.0540398474441086,0.09487041933331142,0.35,0,6,0.0
7.9425273890001336,589,5796.63,-89.7,-1.9,-126.9,-0.05,1.34,0.0,0.11,-0.87,-0.22,-187.0,280.5,222.0,0.52,-7.89,0.0,0.0,0.9041017641836565,1.3409325113517085,0.09009587528967822,0.35,0,6,0.0
7.952999288000683,590,5796.64,-89.7,-1.9,-126.8,-0.08,1.59,0.13,0.1,-0.87,-0.23,-184.0,305.2,254.0,0.44,-8.65,0.0,0.0,0.9054280755532159,1.597310239120754,0.08699417264171638,0.35,0,6,0.0
7.962280671999906,591,5796.65,-89.7,-1.9,-126.6,-0.13,1.89,0.34,0.08,-0.87,-0.24,-180.8,333.6,264.0,0.34,-9.38,-0.11,0.0,0.9060353193998565,1.9247337478207214,0.08465919021917434,0.35,0,6,0.0
7.970597860000453,592,5796.66,-89.7,-2.0,-126.4,-0.11,2.17,0.6,0.09,-0.87,-0.24,-177.3,355.3,221.0,0.25,-9.91,0.01,0.0,0.9069729874698584,2.2541073621280776,0.08204709170618896,0.35,0,6,0.0
7.982769529000507,593,5796.67,-89.7,-2.0,-126.2,0.0,2.36,0.81,0.11,-0.9,-0.23,-173.6,379.2,252.0,0.14,-10.65,0.0,0.0,0.9354143466934853,2.495135266874323,0.05253361783291077,0.35,0,6,0.0
7.992965606000325,594,5796.68,-89.7,-2.1,-125.9,0.27,2.48,0.96,0.13,-0.89,-0.22,-169.6,403.0,206.0,0.03,-11.13,-0.01,0.0,0.9259589623736033,2.67299457537796,0.06074922210973699,0.35,0,6,0.0
8.002472329000739,595,5796.69,-89.7,-2.2,-125.7,0.31,2.65,1.1,0.15,-0.87,-0.22,-165.5,418.2,195.0,-0.07,-11.65,0.12,0.0,0.9098351499035415,2.885931392115897,0.07533557388820278,0.35,0,6,0.0
8.012895382999886,596,5796.7,-89.7,-2.4,-125.4,0.18,2.83,1.3,0.16,-0.85,-0.22,-161.1,440.2,182.0,-0.19,-12.13,0.0,0.0,0.8924684868386109,3.1195031655697996,0.0908481922140707,0.35,0,6,0.0
8.022835642000246,597,5796.71,-89.7,-2.5,-125.1,-0.01,3.0,1.47,0.15,-0.84,-0.21,-156.6,449.7,117.0,-0.32,-12.33,0.0,0.0,0.8787491109526085,3.340808285430339,0.10247621673807161,0.35,0,6,0.0
8.03058195199992,598,5796.72,-89.7,-2.7,-124.8,-0.23,3.1,1.51,0.14,-0.84,-0.2,-152.1,459.4,99.0,-0.44,-12.57,0.08,0.0,0.8747571091451615,3.4558645806802097,0.10433885417460831,0.35,0,6,0.0
8.04280481800015,599,5796.73,-89.8,-2.8,-124.5,-0.55,3.12,1.47,0.14,-0.82,-0.2,-147.4,464.0,54.0,-0.57,-12.65,0.2,0.0,0.8555699854482974,3.4925348960318208,0.12105545831404285,0.35,0,6,0.0
8.050644334000026,600,5796.74,-89.9,-2.9,-124.2,-1.19,2.98,1.29,0.13,-0.84,-0.18,-142.8,452.5,-190.0,-0.69,-11.68,0.06,0.0,0.8688498144098322,3.4584100393099715,0.1056201167654579,0.35,0,6,0.0
8.063447589000134,601,5796.75,-90.0,-3.1,-123.9,-1.7,2.77,1.03,0.16,-0.85,-0.19,-138.7,385.8,-591.0,-0.79,-9.43,0.37,0.0,0.8855506761332181,3.4093694431668737,0.0871408699412306,0.35,0,6,0.0
8.073070544000075,602,5796.76,-90.2,-3.2,-123.6,-2.13,2.68,0.8,0.13,-0.91,-0.22,-135.5,291.0,-882.0,-0.87,-6.57,0.4,0.0,0.9451983918733675,3.5155796108181083,0.02694329111705962,0.35,0,6,0.0
8.08258820500032,603,5796.77,-90.5,-3.2,-123.3,-2.6,2.69,0.54,0.02,-0.98,-0.24,-133.4,180.0,-1048.0,-0.91,-3.47,0.49,0.0,1.009158064923429,3.7799074062733338,0.036276054294341886,0.35,0,6,0.0
8.09065084500071,604,5796.78,-90.8,-3.3,-123.1,-2.69,2.64,0.34,-0.03,-1.03,-0.23,-132.4,62.6,-1132.0,-0.92,-0.27,0.48,0.0,1.0557935404235053,3.784349349624054,0.08125329919852975,0.35,0,6,0.0
8.102940208000291,605,5796.79,-91.0,-3.3,-122.8,-2.24,2.36,0.27,-0.03,-1.04,-0.21,-132.5,-34.9,-908.0,-0.91,1.79,0.33,0.0,1.0614141510268271,3.2649808575242827,0.08513643160581463,0.35,0,6,0.0
8.11311087500053,606,5796.8,-91.2,-3.3,-122.6,-1.55,2.2,0.33,0.03,-1.08,-0.22,-133.3,-104.7,-776.0,-0.88,3.71,0.16,0.0,1.1025878649794765,2.711346528940925,0.12378394264729475,0.35,0,6,0.0
8.122624808000182,607,5796.81,-91.4,-3.3,-122.4,-1.61,2.28,0.3,0.0,-1.2,-0.27,-134.9,-174.2,-710.0,-0.83,5.53,0.02,0.0,1.23,2.8072228269234345,0.24617215611446186,0.35,0,6,0.0
8.13293721700029,608,5796.82,-91.6,-3.3,-122.1,-2.13,2.28,-0.11,-0.09,-1.33,-0.21,-137.0,-238.1,-652.0,-0.76,7.21,0.38,0.0,1.3494813818649,3.1220826382400575,0.35834046721977475,0.35,0,7,0.0
8.142546699999912,609,5796.83,-91.9,-3.3,-121.9,-2.44,2.1,-0.65,-0.11,-1.41,-0.11,-139.9,-300.2,-631.0,-0.68,8.91,0.39,0.0,1.418555603422016,3.2842198464780035,0.4188663950013528,0.35,0,7,0.0
8.152835321000566,610,5796.84,-92.2,-3.2,-121.7,-2.19,1.63,-1.11,-0.15,-1.4,-0.06,-143.3,-358.5,-562.0,-0.58,10.33,0.15,0.0,1.4092906016858269,2.9470493718293898,0.4014093653998605,0.35,0,7,0.0
8.162661786000172,611,5796.85,-92.4,-3.1,-121.6,-2.14,1.07,-1.33,-0.18,-1.35,-0.05,-147.1,-393.1,-332.0,-0.47,10.83,-0.15,0.0,1.3628646301082143,2.737407532684894,0.34788372594580297,0.35,0,7,0.0
8.172913357000652,612,5796.86,-92.6,-3.0,-121.5,-2.55,0.77,-1.46,-0.15,-1.31,-0.02,-150.7,-399.2,-137.0,-0.36,10.8,-0.18,0.0,1.3187114923287808,3.037597735053146,0.297655976403042,0.35,0,7,0.0
8.182589627000198,613,5796.87,-92.9,-2.9,-121.5,-3.06,0.32,-1.68,-0.11,-1.33,0.05,-155.0,-389.6,59.0,-0.26,10.36,-0.26,0.0,1.3354774427147769,3.505481422001834,0.30813348825325715,0.35,0,7,0.0
8.192942691000098,614,5796.88,-93.2,-2.7,-121.5,-3.4,0.06,-1.86,-0.03,-1.51,0.1,-158.8,-369.2,162.0,-0.16,9.77,0.05,0.0,1.5136049682793724,3.8759772961151358,0.47653579354149556,0.35,0,7,0.0
8.202652564000346,615,5796.89,-93.5,-2.5,-121.5,-3.87,-0.12,-2.41,-0.03,-1.66,0.16,-162.3,-342.8,261.0,-0.06,8.89,-0.16,0.0,1.6679628293220445,4.560635920570727,0.6182757814924844,0.35,0,7,0.0
8.212982553000074,616,5796.9,-93.9,-2.2,-121.5,-3.38,-0.58,-2.83,-0.05,-1.66,0.2,-165.5,-302.2,377.0,0.01,7.66,-0.02,0.0,1.672752223134078,4.446313079395107,0.6106038717984275,0.35,0,7,0.0
8.222583793000013,617,5796.91,-94.1,-2.0,-121.6,-1.54,-0.51,-2.44,0.0,-1.43,0.08,-168.2,-262.0,371.0,0.08,6.69,-0.09,0.0,1.4322360140703068,2.930068258590574,0.36268590947996326,0.35,0,7,0.0
8.232771468000465,618,5796.92,-94.2,-1.8,-121.7,-0.1,0.1,-1.42,0.12,-1.18,-0.01,-170.6,-226.2,365.0,0.14,5.69,0.01,0.0,1.1861281549647154,1.4270248771482577,0.11424648936688442,0.35,0,7,0.0
8.242537277999872,619,5796.93,-94.2,-1.7,-121.6,0.67,1.16,-0.48,0.28,-1.01,-0.09,-172.6,-188.3,376.0,0.19,4.65,0.0,0.0,1.0519505691808908,1.4229898102235308,0.019532474488601403,0.35,0,7,0.0
8.250634347999949,620,5796.94,-94.1,-1.7,-121.4,0.94,2.55,0.04,0.37,-0.94,-0.13,-174.2,-150.8,370.0,0.22,3.66,-0.06,0.0,1.0185283501208986,2.718032376554775,0.051895599677621806,0.35,0,7,0.0
8.263423717000478,621,5796.95,-94.0,-1.7,-121.1,0.9,3.96,0.21,0.36,-0.84,-0.09,-175.5,-115.1,356.0,0.25,2.7,-0.18,0.0,0.918313671900838,4.066411194161259,0.14906807233972863,0.35,0,7,0.0
8.273093937999874,622,5796.96,-93.9,-1.7,-120.6,0.63,5.02,0.34,0.35,-0.83,0.01,-176.4,-82.3,327.0,0.28,1.86,-0.16,0.0,0.9008329478876758,5.070788893259114,0.163217820425833,0.35,0,7,0.0
8.282642520000081,623,5796.97,-93.9,-1.6,-120.1,0.61,5.81,0.2,0.31,-0.92,0.02,-177.0,-54.5,284.0,0.29,1.17,-0.19,0.0,0.9710303805751909,5.845357131946687,0.09115997998355152,0.35,0,7,0.0
8.293109795999953,624,5796.98,-93.8,-1.6,-119.5,0.85,6.2,-0.25,0.18,-0.96,0.06,-177.4,-31.0,242.0,0.3,0.57,-0.08,0.0,0.9785703858180055,6.262986508048696,0.08194757524592222,0.35,0,7,0.0
8.30245684900001,625,5796.99,-93.8,-1.5,-118.8,1.23,6.1,-0.66,0.05,-0.94,0.12,-177.6,-13.3,176.0,0.3,0.21,-0.03,0.0,0.9489467845985885,6.257675287197315,0.10933975293603237,0.35,0,7,0.0
8.313118275000306,626,5797.0,-93.6,-1.4,-118.3,1.59,5.8,-0.94,-0.05,-0.91,0.12,-177.6,-6.0,151.0,0.3,0.0,-0.26,0.0,0.9192388155425117,6.087010760627913,0.13626676755226685,0.35,0,7,0.0
8.322632940999938,627,5797.01,-93.5,-1.3,-117.7,1.48,5.29,-1.0,-0.15,-0.89,0.12,-177.6,1.4,74.0,0.3,-0.01,0.01,0.0,0.910494371207203,5.583412934755946,0.142110987649824,0.35,0,7,0.0
8.33290156000021,628,5797.02,-93.4,-1.1,-117.2,1.16,4.65,-0.84,-0.23,-0.89,0.13,-177.6,-1.0,-1.0,0.3,0.07,0.01,0.0,0.9283856957105705,4.865562660165832,0.12173526988352745,0.35,0,7,0.0
