host_time_s,seq,device_time_s,roll,pitch,yaw,gyro_x,gyro_y,gyro_z,accel_x,accel_y,accel_z,belt_length,belt_velocity,belt_acceleration,motor_pos,motor_vel,motor_iq_meas,motor_iq_set,acc_mag,gyro_mag,acc_residual,threshold,heel_strike,hs_count,torque_cmd_nm
2.0713522080004623,3,4807.26,-96.5,-1.9,-76.0,0.44,6.98,0.0,-0.03,-0.97,-0.15,-187.1,-15.6,-41.0,0.56,0.45,0.0,0.0,0.9819877799646999,6.993854445153974,0.0,0.28,0,0,0.0
2.082989238000664,4,4807.27,-96.5,-1.8,-75.3,0.4,7.0,0.01,-0.03,-0.95,-0.15,-187.2,-16.4,-25.0,0.56,0.5,-0.05,0.0,0.9622369770487933,7.011426388403432,0.01935578685758843,0.28,0,0,0.0
2.092965058000118,5,4807.28,-96.5,-1.7,-74.6,0.46,7.0,0.03,-0.03,-0.95,-0.15,-187.4,-21.6,-48.0,0.57,0.65,0.07,0.0,0.9622369770487933,7.0151621506562485,0.018968671120436653,0.28,0,0,0.0
2.101638140000432,6,4807.29,-96.5,-1.6,-73.9,0.43,7.01,0.07,-0.03,-0.95,-0.15,-187.7,-24.3,-20.0,0.58,0.66,-0.05,0.0,0.9622369770487933,7.0235247561320655,0.018589297698027973,0.28,0,0,0.0
2.112913526000739,7,4807.3,-96.5,-1.6,-73.2,0.36,7.02,0.12,-0.03,-0.95,-0.15,-187.9,-25.5,-13.0,0.58,0.69,-0.16,0.0,0.9622369770487933,7.03024892873645,0.018217511744067383,0.28,0,0,0.0
2.12149270000009,8,4807.31,-96.5,-1.5,-72.5,0.3,7.01,0.14,-0.03,-0.96,-0.15,-188.2,-26.3,-20.0,0.59,0.76,0.17,0.0,0.972111104761179,7.017813049661553,0.008176516351047991,0.28,0,0,0.0
2.1324957599999834,9,4807.32,-96.5,-1.4,-71.8,0.27,7.01,0.16,-0.02,-0.96,-0.15,-188.5,-30.1,-35.0,0.6,0.88,0.01,0.0,0.9718538984847465,7.017022160432443,0.0082650481749309,0.28,0,0,0.0
2.141309258000547,10,4807.33,-96.5,-1.4,-71.1,0.25,7.02,0.17,-0.02,-0.97,-0.15,-188.8,-34.7,-31.0,0.61,0.96,0.09,0.0,0.9817331613019904,7.0265069558067035,0.0015819303494667425,0.28,0,0,0.0
2.15283384400027,11,4807.34,-96.6,-1.3,-70.4,0.26,6.99,0.16,-0.03,-0.96,-0.14,-189.2,-38.1,-29.0,0.62,1.06,0.0,0.0,0.9706183596038146,6.996663490550335,0.009342213921734843,0.28,0,0,0.0
2.1615252280007553,12,4807.35,-96.6,-1.3,-69.7,0.21,6.95,0.16,-0.03,-0.96,-0.13,-189.6,-39.0,-22.0,0.63,1.09,0.06,0.0,0.9692264957170744,6.955012580865688,0.010519396252305468,0.28,0,0,0.0
2.172912357000314,13,4807.36,-96.6,-1.2,-69.0,0.09,6.86,0.16,-0.04,-0.95,-0.14,-190.0,-40.4,-10.0,0.64,1.09,0.02,0.0,0.9610931276416453,6.862455828637442,0.018279709041179815,0.28,0,0,0.0
2.181605089000186,14,4807.37,-96.6,-1.2,-68.3,-0.05,6.74,0.15,-0.04,-0.96,-0.14,-190.4,-38.5,7.0,0.65,1.04,-0.08,0.0,0.9709788875150684,6.741854344318038,0.00822607018440158,0.28,0,0,0.0
2.1930065290007406,15,4807.38,-96.7,-1.1,-67.7,-0.17,6.67,0.17,-0.05,-0.96,-0.14,-190.8,-40.3,-16.0,0.66,1.13,0.0,0.0,0.9714422267947795,6.67433142719179,0.007607476286596637,0.28,0,0,0.0
2.201510180000696,16,4807.39,-96.7,-1.1,-67.0,-0.16,6.59,0.22,-0.04,-0.96,-0.14,-191.2,-43.6,-31.0,0.67,1.25,0.12,0.0,0.9709788875150684,6.595612177804271,0.007909399254981575,0.28,0,0,0.0
2.212925303000702,17,4807.4,-96.7,-1.0,-66.3,-0.13,6.46,0.29,-0.03,-0.96,-0.13,-191.7,-48.6,-46.0,0.69,1.39,-0.15,0.0,0.9692264957170744,6.4678126132410485,0.009468555231916032,0.28,0,0,0.0
2.221257699000489,18,4807.41,-96.8,-1.0,-65.7,-0.12,6.34,0.35,-0.02,-0.96,-0.14,-192.2,-54.4,-56.0,0.7,1.55,0.16,0.0,0.9703607576566562,6.350787352761861,0.008167607426487589,0.28,0,0,0.0
2.2324160180005492,19,4807.42,-96.8,-1.0,-65.1,-0.13,6.28,0.41,-0.01,-0.96,-0.15,-192.8,-60.1,-47.0,0.72,1.67,0.13,0.0,0.9716995420396163,6.294712066488824,0.006692246582656991,0.28,0,0,0.0
2.2415085570000883,20,4807.43,-96.9,-0.9,-64.5,-0.18,6.23,0.47,0.0,-0.96,-0.15,-193.4,-62.6,-32.0,0.74,1.73,0.08,0.0,0.9716480844420988,6.250295992991052,0.006608830096570983,0.28,0,0,0.0
2.25298424399989,21,4807.44,-96.9,-0.9,-63.8,-0.21,6.2,0.52,0.0,-0.95,-0.15,-194.0,-66.0,-32.0,0.75,1.82,0.01,0.0,0.9617692030835672,6.2253112371993105,0.016157957226000552,0.28,0,0,0.0
2.2616901740002504,22,4807.45,-97.0,-0.9,-63.2,-0.28,6.16,0.55,0.0,-0.96,-0.15,-194.7,-68.7,-29.0,0.77,1.89,-0.07,0.0,0.9716480844420988,6.190840007624168,0.0061534943501194705,0.28,0,0,0.0
2.273025376000078,23,4807.46,-97.0,-0.8,-62.6,-0.26,6.15,0.57,0.0,-0.95,-0.16,-195.4,-71.8,-19.0,0.79,1.94,-0.01,0.0,0.9633794683301071,6.181828208548018,0.014133668252868992,0.28,0,0,0.0
2.281705060000604,24,4807.47,-97.1,-0.8,-62.0,-0.34,6.19,0.6,0.0,-0.95,-0.17,-196.1,-70.3,8.0,0.81,1.86,0.05,0.0,0.965090669315583,6.228298322977152,0.01217401792204531,0.28,0,0,0.0
2.2930024180004693,25,4807.48,-97.2,-0.8,-61.3,-0.46,6.23,0.63,0.0,-0.94,-0.17,-196.8,-68.6,7.0,0.83,1.86,0.09,0.0,0.95524865872714,6.278646350926289,0.02157570794027841,0.28,0,0,0.0
2.301671226000508,26,4807.49,-97.3,-0.8,-60.7,-0.61,6.26,0.65,0.0,-0.95,-0.18,-197.5,-68.9,-4.0,0.85,1.89,0.07,0.0,0.966902270139025,6.3231479501906325,0.009723654597825648,0.28,0,0,0.0
2.3129825169999094,27,4807.5,-97.4,-0.7,-60.1,-0.7,6.28,0.73,0.0,-0.95,-0.18,-198.2,-68.6,5.0,0.87,1.86,0.05,0.0,0.966902270139025,6.3609197448167825,0.009529181505869122,0.28,0,0,0.0
2.3215584370000215,28,4807.51,-97.5,-0.7,-59.4,-0.8,6.32,0.77,-0.01,-0.96,-0.18,-198.9,-69.1,-15.0,0.89,1.93,0.13,0.0,0.9767804256842988,6.416798267048763,0.00034199455861660955,0.28,0,0,0.0
2.33285984900067,29,4807.52,-97.6,-0.7,-58.8,-0.79,6.33,0.83,-0.01,-0.97,-0.18,-199.6,-74.1,-43.0,0.91,2.09,-0.03,0.0,0.986610358753647,6.432876495005947,0.009968489075405484,0.28,0,0,0.0
2.341471024999919,30,4807.53,-97.8,-0.7,-58.2,-0.76,6.32,0.87,0.0,-0.98,-0.18,-200.4,-80.9,-62.0,0.93,2.29,-0.02,0.0,0.996393496566492,6.424710110191744,0.019356594350485534,0.28,0,0,0.0
2.352835454000342,31,4807.54,-97.9,-0.7,-57.5,-0.65,6.33,0.91,0.0,-0.98,-0.19,-201.2,-85.5,-37.0,0.95,2.34,0.01,0.0,0.9982484660644363,6.428024579915668,0.02078733257146126,0.28,0,0,0.0
2.3616359480001847,32,4807.55,-98.0,-0.7,-56.9,-0.5,6.39,0.97,-0.01,-0.98,-0.19,-202.1,-83.7,17.0,0.98,2.19,0.0,0.0,0.9982985525382675,6.482514944062991,0.020420670664386575,0.28,0,0,0.0
2.3729440400002204,33,4807.56,-98.1,-0.7,-56.2,-0.61,6.46,1.01,-0.04,-0.99,-0.18,-202.9,-76.6,52.0,1.0,1.99,-0.12,0.0,1.0070253224224304,6.566871401207732,0.028564491737578468,0.28,0,0,0.0
2.3814587980004944,34,4807.57,-98.2,-0.8,-55.6,-0.78,6.45,1.0,-0.05,-1.0,-0.16,-203.6,-66.6,92.0,1.01,1.67,0.17,0.0,1.0139526616169021,6.573499828858292,0.034781994313409226,0.28,0,0,0.0
2.392904066000483,35,4807.58,-98.3,-0.8,-54.9,-0.86,6.34,0.97,-0.06,-1.0,-0.15,-204.2,-54.9,102.0,1.03,1.38,-0.11,0.0,1.0129659421717987,6.471174545629255,0.03311936937093973,0.28,0,0,0.0
2.4015879759999734,36,4807.59,-98.4,-0.8,-54.3,-0.85,6.18,0.89,-0.06,-1.01,-0.14,-204.7,-45.7,95.0,1.04,1.12,-0.03,0.0,1.0214205793893132,6.301349061907299,0.04074252645668519,0.28,0,0,0.0
2.4127979840004627,37,4807.6,-98.5,-0.9,-53.7,-0.85,6.04,0.78,-0.06,-1.02,-0.14,-205.0,-36.5,87.0,1.05,0.91,-0.22,0.0,1.031309846748299,6.149186938124422,0.04961915793935767,0.28,0,0,0.0
2.4214561060007327,38,4807.61,-98.5,-0.9,-53.1,-0.88,5.87,0.66,-0.06,-1.02,-0.13,-205.4,-31.1,70.0,1.06,0.74,0.15,0.0,1.03,5.972177157452716,0.04734312496723747,0.28,0,0,0.0
2.432976810000582,39,4807.62,-98.6,-0.9,-52.5,-0.82,5.65,0.52,-0.06,-1.03,-0.12,-205.6,-24.4,46.0,1.07,0.65,-0.16,0.0,1.0387011119662866,5.7328265279877435,0.05492335219485356,0.28,0,0,0.0
2.4416520510003465,40,4807.63,-98.7,-0.9,-52.0,-0.69,5.41,0.41,-0.06,-1.03,-0.12,-205.9,-22.6,40.0,1.07,0.54,0.01,0.0,1.0387011119662866,5.469213837472439,0.053824885150956514,0.28,0,0,0.0
2.4529725770007644,41,4807.64,-98.7,-0.8,-51.4,-0.55,5.17,0.34,-0.06,-1.01,-0.12,-206.1,-18.4,34.0,1.08,0.46,0.01,0.0,1.0188719252192593,5.210278303507405,0.033315784435850704,0.28,0,0,0.0
2.4616472450006768,42,4807.65,-98.8,-0.8,-50.9,-0.46,4.92,0.28,-0.06,-1.01,-0.11,-206.2,-16.5,24.0,1.08,0.41,-0.01,0.0,1.017742600071354,4.94938380003006,0.031542730102186556,0.28,0,0,0.0
2.4728982220003672,43,4807.66,-98.8,-0.8,-50.4,-0.45,4.65,0.24,-0.06,-1.0,-0.1,-206.4,-14.2,17.0,1.08,0.39,0.08,0.0,1.0067770358922576,4.677884137085911,0.020165622604628286,0.28,0,0,0.0
2.481644588000563,44,4807.67,-98.8,-0.8,-50.0,-0.44,4.36,0.22,-0.06,-0.99,-0.1,-206.5,-16.0,-7.0,1.09,0.45,-0.06,0.0,0.9968450230602548,4.387664526829735,0.010028937577172936,0.28,0,0,0.0
2.4930062920002456,45,4807.68,-98.8,-0.8,-49.6,-0.43,4.1,0.24,-0.05,-0.98,-0.1,-206.7,-17.9,-10.0,1.09,0.48,0.0,0.0,0.9863569333664157,4.129467277991194,0.0004499690743328122,0.28,0,0,0.0
2.501638720000301,46,4807.69,-98.9,-0.8,-49.2,-0.43,3.84,0.25,-0.05,-0.98,-0.1,-206.9,-19.3,-19.0,1.1,0.56,0.01,0.0,0.9863569333664157,3.8720795446374807,0.0004409696928461271,0.28,0,0,0.0
2.512984742000299,47,4807.7,-98.9,-0.8,-48.8,-0.43,3.59,0.27,-0.04,-0.98,-0.1,-207.1,-20.7,-11.0,1.1,0.57,-0.05,0.0,0.985900603509299,3.6257275132033846,0.0008793535589636248,0.28,0,0,0.0
2.521594389000711,48,4807.71,-98.9,-0.7,-48.5,-0.45,3.37,0.24,-0.04,-0.99,-0.11,-207.3,-21.6,-21.0,1.11,0.64,0.06,0.0,0.9968951800465282,3.408372045419925,0.009912918518700353,0.28,0,0,0.0
2.532989066000482,49,4807.72,-98.9,-0.7,-48.1,-0.49,3.21,0.21,-0.05,-0.98,-0.11,-207.5,-22.1,7.0,1.12,0.55,-0.14,0.0,0.9874208829065749,3.253966809910636,0.0004298489511721515,0.28,0,0,0.0
2.5416481030006253,50,4807.73,-99.0,-0.7,-47.8,-0.55,3.07,0.22,-0.05,-0.99,-0.12,-207.7,-19.3,7.0,1.12,0.54,0.09,0.0,0.9984988733093292,3.1266275761593354,0.011277682566847913,0.28,0,0,0.0
2.5530295349999506,51,4807.74,-99.0,-0.7,-47.5,-0.49,2.94,0.19,-0.05,-0.99,-0.12,-207.9,-19.3,4.0,1.13,0.53,0.07,0.0,0.9984988733093292,2.986603421949422,0.011052128915510995,0.28,0,0,0.0
2.5616300120000233,52,4807.75,-99.0,-0.7,-47.2,-0.39,2.81,0.18,-0.05,-0.98,-0.12,-208.1,-18.7,5.0,1.13,0.51,0.08,0.0,0.9885848471426213,2.8426396183828864,0.001115340693827016,0.28,0,0,0.0
2.5729790989998946,53,4807.76,-99.1,-0.7,-47.0,-0.28,2.7,0.17,-0.05,-0.97,-0.13,-208.3,-19.1,2.0,1.14,0.51,-0.06,0.0,0.9799489782636644,2.7197977866010556,0.007370117621427252,0.28,0,0,0.0
2.581598022000435,54,4807.77,-99.1,-0.7,-46.7,-0.23,2.61,0.18,-0.04,-0.96,-0.13,-208.5,-16.1,38.0,1.14,0.34,0.0,0.0,0.9695875411740809,2.6262901591408365,0.017376923616790663,0.28,0,0,0.0
2.5928832180006793,55,4807.78,-99.1,-0.7,-46.4,-0.23,2.56,0.19,-0.04,-0.96,-0.14,-208.6,-10.6,30.0,1.14,0.28,-0.02,0.0,0.9709788875150684,2.577324193810317,0.015665865730287054,0.28,0,0,0.0
2.601632167000389,56,4807.79,-99.1,-0.7,-46.2,-0.2,2.51,0.21,-0.04,-0.96,-0.14,-208.7,-11.3,7.0,1.15,0.29,-0.07,0.0,0.9709788875150684,2.5266974492408067,0.015352548415681344,0.28,0,0,0.0
2.613004692000686,57,4807.8,-99.1,-0.7,-45.9,-0.18,2.47,0.22,-0.04,-0.97,-0.14,-208.8,-11.2,0.0,1.15,0.31,0.0,0.0,0.9808669634563089,2.48630247556487,0.0053551830249520815,0.28,0,0,0.0
2.6216342460002124,58,4807.81,-99.1,-0.7,-45.7,-0.18,2.42,0.2,-0.04,-0.98,-0.13,-208.9,-9.9,22.0,1.15,0.2,-0.02,0.0,0.9893937537704591,2.434912729442269,0.0031081751434142157,0.28,0,0,0.0
2.632854755000153,59,4807.82,-99.1,-0.7,-45.5,-0.19,2.35,0.17,-0.04,-0.98,-0.13,-209.0,-5.6,30.0,1.15,0.12,-0.12,0.0,0.9893937537704591,2.363789330714563,0.0030460116405459647,0.28,0,0,0.0
2.641646744999889,60,4807.83,-99.2,-0.7,-45.2,-0.19,2.28,0.13,-0.05,-0.98,-0.12,-209.1,-5.5,-2.0,1.16,0.19,0.13,0.0,0.9885848471426213,2.2915933321599624,0.002192362912453949,0.28,0,0,0.0
2.653027863000716,61,4807.84,-99.2,-0.7,-45.0,-0.19,2.17,0.09,-0.06,-0.99,-0.12,-209.1,-8.7,-17.0,1.16,0.25,0.17,0.0,0.9990495483208027,2.180160544547121,0.012403922808822632,0.28,0,0,0.0
2.661528315999931,62,4807.85,-99.2,-0.7,-44.8,-0.17,2.01,0.01,-0.06,-1.0,-0.11,-209.2,-9.5,-5.0,1.16,0.25,0.23,0.0,1.0078194282707593,2.017201031131999,0.02075032670360366,0.28,0,0,0.0
2.6729904480007463,63,4807.86,-99.1,-0.7,-44.6,-0.19,1.85,-0.06,-0.07,-1.0,-0.11,-209.3,-9.4,3.0,1.16,0.22,0.15,0.0,1.0084641788382966,1.860698793464434,0.020967175725718157,0.28,0,0,0.0
2.681647645999874,64,4807.87,-99.1,-0.7,-44.4,-0.21,1.67,-0.14,-0.07,-1.0,-0.11,-209.4,-7.0,16.0,1.17,0.16,0.07,0.0,1.0084641788382966,1.6889641796083184,0.02054783221120382,0.28,0,0,0.0
2.693577301000005,65,4807.88,-99.1,-0.7,-44.3,-0.18,1.47,-0.18,-0.08,-0.99,-0.1,-209.5,-6.1,2.0,1.17,0.19,-0.03,0.0,0.9982484660644363,1.4918780110987626,0.010125477048596565,0.28,0,0,0.0
2.7016198110004552,66,4807.89,-99.1,-0.7,-44.2,-0.11,1.28,-0.2,-0.08,-0.99,-0.1,-209.6,-9.1,-20.0,1.17,0.28,0.1,0.0,0.9982484660644363,1.3001922934704697,0.00992296750762467,0.28,0,0,0.0
2.7136505530006616,67,4807.9,-99.1,-0.7,-44.0,-0.11,1.08,-0.21,-0.08,-0.99,-0.11,-209.7,-9.9,-6.0,1.17,0.27,0.01,0.0,0.9992997548283498,1.1057124400132252,0.010754771146107345,0.28,0,0,0.0
2.72160317900034,68,4807.91,-99.1,-0.7,-44.0,-0.13,0.9,-0.24,-0.08,-0.99,-0.11,-209.8,-9.9,-4.0,1.18,0.27,0.0,0.0,0.9992997548283498,0.9404786015641186,0.010539675723185149,0.28,0,0,0.0
2.733103342000504,69,4807.92,-99.1,-0.7,-43.9,-0.18,0.74,-0.28,-0.07,-0.99,-0.11,-209.8,-9.0,11.0,1.18,0.22,0.07,0.0,0.9985489472229191,0.8114185110040317,0.00959309075539938,0.28,0,0,0.0
2.7416424050006754,70,4807.93,-99.1,-0.7,-43.8,-0.21,0.6,-0.34,-0.06,-0.99,-0.11,-209.9,-8.0,-1.0,1.18,0.24,-0.04,0.0,0.9978977903573091,0.7209022125087423,0.008763095211993588,0.28,0,0,0.0
2.7529157730004954,71,4807.94,-99.1,-0.7,-43.8,-0.25,0.46,-0.39,-0.06,-1.0,-0.12,-210.0,-9.5,-3.0,1.18,0.25,0.07,0.0,1.0089598604503551,0.6528399497579787,0.01942866199893889,0.28,0,0,0.0
2.761682155000017,72,4807.95,-99.1,-0.7,-43.7,-0.24,0.34,-0.44,-0.06,-1.0,-0.12,-210.1,-7.4,21.0,1.18,0.15,-0.01,0.0,1.0089598604503551,0.6056401571890688,0.019040088758960128,0.28,0,0,0.0
2.7730922810005723,73,4807.96,-99.1,-0.7,-43.7,-0.24,0.24,-0.47,-0.05,-1.01,-0.13,-210.2,-5.5,9.0,1.19,0.15,0.22,0.0,1.0195587280779856,0.5797413216254297,0.02904617725885883,0.28,0,0,0.0
2.781706361000033,74,4807.97,-99.1,-0.6,-43.7,-0.18,0.18,-0.5,-0.04,-1.01,-0.13,-210.2,-7.0,-5.0,1.19,0.19,0.09,0.0,1.0191172650877818,0.5610704055642215,0.02803261998328188,0.28,0,0,0.0
2.7932383229999687,75,4807.98,-99.1,-0.6,-43.7,-0.12,0.17,-0.52,-0.03,-1.0,-0.14,-210.3,-7.5,-8.0,1.19,0.22,0.01,0.0,1.010198000393982,0.5600892785976179,0.018731088183692624,0.28,0,0,0.0
2.8016729629998736,76,4807.99,-99.1,-0.5,-43.7,-0.07,0.21,-0.55,-0.02,-0.99,-0.14,-210.4,-11.5,-42.0,1.19,0.4,-0.04,0.0,1.0000499987500624,0.5928743543112656,0.008411424808977497,0.28,0,0,0.0
2.8130513200003406,77,4808.0,-99.1,-0.5,-43.7,-0.07,0.27,-0.58,-0.01,-0.98,-0.15,-210.5,-14.4,-28.0,1.2,0.38,-0.08,0.0,0.9914635646356349,0.6435837163881635,0.00017150911934105117,0.28,0,0,0.0
2.8216970359999323,78,4808.01,-99.1,-0.4,-43.6,-0.15,0.36,-0.62,0.0,-0.96,-0.15,-210.7,-15.2,-11.0,1.2,0.41,-0.23,0.0,0.9716480844420988,0.7324616030891995,0.01958724952661961,0.28,0,0,0.0
2.8330818640006328,79,4808.02,-99.1,-0.3,-43.6,-0.27,0.41,-0.67,0.0,-0.96,-0.14,-210.8,-15.6,-17.0,1.21,0.46,-1.03,0.0,0.9701546268507922,0.8306021911842034,0.020659092975567672,0.28,0,0,0.0
2.841733643000225,80,4808.03,-99.2,-0.3,-43.6,-0.37,0.46,-0.69,0.0,-0.95,-0.14,-211.0,-16.7,-6.0,1.21,0.45,-0.02,0.0,0.9602603813549739,0.9080748867797193,0.02994227170195829,0.28,0,0,0.0
2.85283138900013,81,4808.04,-99.2,-0.2,-43.6,-0.48,0.48,-0.69,-0.01,-0.97,-0.14,-211.2,-16.7,0.0,1.22,0.45,0.05,0.0,0.9801020355044672,0.9679359482941007,0.009898605201415722,0.28,0,0,0.0
2.8616901370005507,82,4808.05,-99.2,-0.1,-43.5,-0.52,0.49,-0.69,-0.01,-0.98,-0.14,-211.4,-17.5,-12.0,1.22,0.5,0.01,0.0,0.9899999999999999,0.9932774033471213,6.278917653590455e-07,0.28,0,0,0.0
2.872857979999935,83,4808.06,-99.3,-0.1,-43.5,-0.51,0.52,-0.67,-0.01,-0.98,-0.14,-211.5,-18.5,-1.0,1.22,0.48,0.0,0.0,0.9899999999999999,0.9896464014990405,6.153339300318805e-07,0.28,0,0,0.0
2.8816519920001156,84,4808.07,-99.3,0.0,-43.4,-0.43,0.54,-0.65,-0.01,-0.98,-0.15,-211.7,-17.6,-11.0,1.23,0.52,-0.19,0.0,0.9914635646356349,0.9481561052906847,0.0014336903156708658,0.28,0,0,0.0
2.8929514130004463,85,4808.08,-99.4,0.0,-43.4,-0.34,0.58,-0.63,-0.01,-0.98,-0.15,-211.9,-21.6,-30.0,1.24,0.63,0.0,0.0,0.9914635646356349,0.9213576938409967,0.0014050165093574263,0.28,0,0,0.0
2.9016368630000215,86,4808.09,-99.4,0.0,-43.3,-0.28,0.58,-0.61,-0.01,-0.97,-0.14,-212.1,-22.9,-18.0,1.24,0.65,0.05,0.0,0.9801020355044672,0.8870738413458036,0.009757382369374068,0.28,0,0,0.0
2.9129381790007756,87,4808.1,-99.4,0.1,-43.3,-0.31,0.58,-0.61,-0.01,-0.96,-0.14,-212.4,-23.9,-6.0,1.25,0.63,-0.06,0.0,0.9702061636580134,0.8969949832635632,0.019260189131511285,0.28,0,0,0.0
2.921649468000396,88,4808.11,-99.4,0.2,-43.2,-0.4,0.6,-0.63,-0.01,-0.97,-0.15,-212.6,-23.9,-10.0,1.26,0.67,-0.01,0.0,0.981580358401695,0.9575489543621256,0.0077282745000730735,0.28,0,0,0.0
2.932899739000277,89,4808.12,-99.5,0.2,-43.2,-0.51,0.58,-0.68,-0.01,-0.98,-0.15,-212.9,-25.2,-6.0,1.26,0.67,-0.05,0.0,0.9914635646356349,1.0290286682109493,0.0021118330991894974,0.28,0,0,0.0
2.941612902000088,90,4808.13,-99.5,0.3,-43.1,-0.56,0.61,-0.73,-0.01,-0.98,-0.15,-213.1,-26.7,-9.0,1.27,0.72,0.24,0.0,0.9914635646356349,1.103902169578446,0.002069596437205723,0.28,0,0,0.0
2.95291401600025,91,4808.14,-99.6,0.4,-43.1,-0.56,0.61,-0.76,0.0,-0.98,-0.14,-213.4,-28.2,-25.0,1.28,0.83,-0.15,0.0,0.9899494936611665,1.1239661916623649,0.0005444149534825637,0.28,0,0,0.0
2.9615432489999876,92,4808.15,-99.6,0.4,-43.0,-0.51,0.62,-0.77,0.0,-0.99,-0.15,-213.7,-31.1,-13.0,1.29,0.83,0.08,0.0,1.0012991560967182,1.112384825498802,0.011656195841253547,0.28,0,0,0.0
2.9728414330002124,93,4808.16,-99.7,0.5,-43.0,-0.5,0.64,-0.8,0.0,-0.99,-0.15,-214.0,-29.7,3.0,1.29,0.8,0.05,0.0,1.0012991560967182,1.1400000000000001,0.011423071924428485,0.28,0,0,0.0
2.9817475489999197,94,4808.17,-99.7,0.6,-42.9,-0.56,0.71,-0.84,0.0,-0.99,-0.16,-214.3,-28.2,7.0,1.3,0.77,-0.05,0.0,1.0028459502834919,1.234220401711137,0.012710468788978191,0.28,0,0,0.0
2.9930440880007154,95,4808.18,-99.7,0.7,-42.9,-0.54,0.78,-0.86,0.0,-0.99,-0.16,-214.6,-28.4,5.0,1.31,0.74,-0.07,0.0,1.0028459502834919,1.2804686642007292,0.012456259413198612,0.28,0,0,0.0
3.0016663650003466,96,4808.19,-99.8,0.8,-42.8,-0.48,0.85,-0.87,0.01,-0.99,-0.15,-214.9,-27.3,-2.0,1.32,0.77,-0.15,0.0,1.0013490899781154,1.3075932089147604,0.0107402111256657,0.28,0,0,0.0
3.012967151000339,97,4808.2,-99.8,0.9,-42.7,-0.39,0.89,-0.88,0.01,-0.99,-0.14,-215.1,-27.4,12.0,1.32,0.71,-0.01,0.0,0.9998999949994999,1.310953851209111,0.009105293824109184,0.28,0,0,0.0
3.0216454900000826,98,4808.21,-99.8,1.0,-42.7,-0.32,0.95,-0.88,0.02,-0.97,-0.14,-215.4,-26.4,4.0,1.33,0.72,-0.07,0.0,0.9802550688468792,1.3339040445249426,0.010328839681941315,0.28,0,0,0.0
3.032844367000507,99,4808.22,-99.9,1.1,-42.6,-0.3,0.99,-0.86,0.01,-0.98,-0.13,-215.7,-25.6,3.0,1.34,0.7,0.08,0.0,0.9886354231970448,1.3452509059651288,0.0019095156251401901,0.28,0,0,0.0
3.041654092000499,100,4808.23,-99.9,1.2,-42.5,-0.26,1.02,-0.86,0.0,-0.98,-0.14,-215.9,-27.7,-15.0,1.35,0.77,-0.01,0.0,0.9899494936611665,1.3592645070036957,0.0005835362577981673,0.28,0,0,0.0
3.0529343060006795,101,4808.24,-99.9,1.3,-42.4,-0.25,1.08,-0.86,0.0,-0.98,-0.14,-216.2,-28.4,0.0,1.35,0.74,0.04,0.0,0.9899494936611665,1.4030324301312498,0.0005718655326422128,0.28,0,0,0.0
3.0616214669998953,102,4808.25,-99.9,1.4,-42.3,-0.2,1.16,-0.86,0.01,-0.98,-0.14,-216.5,-26.2,15.0,1.36,0.68,-0.06,0.0,0.9899999999999999,1.4578065715313537,0.0005109320099325743,0.28,0,0,0.0
3.0729076730003726,103,4808.26,-99.9,1.5,-42.2,-0.15,1.28,-0.83,0.04,-0.98,-0.15,-216.7,-23.6,24.0,1.37,0.6,-0.01,0.0,0.9922197337283712,1.5329057374802928,0.0016746256840700635,0.28,0,0,0.0
3.081656099000611,104,4808.27,-99.9,1.6,-42.1,-0.11,1.46,-0.8,0.05,-0.98,-0.15,-217.0,-20.6,22.0,1.37,0.54,-0.04,0.0,0.9926731586982696,1.6684423873781198,0.00208548964088906,0.28,0,0,0.0
3.092943100999946,105,4808.28,-99.9,1.8,-41.9,-0.01,1.61,-0.73,0.06,-0.98,-0.14,-217.1,-19.2,15.0,1.38,0.51,-0.06,0.0,0.991766101457395,1.7677952370113459,0.0011548637520142346,0.28,0,0,0.0
3.1015896440003417,106,4808.29,-99.8,1.9,-41.8,0.06,1.76,-0.67,0.07,-0.99,-0.14,-217.3,-17.8,17.0,1.38,0.46,0.04,0.0,1.002297361066066,1.8841709051994195,0.011452400893471548,0.28,0,0,0.0
3.1128586630002246,107,4808.3,-99.8,2.0,-41.6,0.17,1.9,-0.62,0.05,-1.0,-0.15,-217.5,-17.7,2.0,1.39,0.48,0.11,0.0,1.0124228365658292,2.005816541959907,0.021146318865370106,0.28,0,0,0.0
3.121606557000632,108,4808.31,-99.8,2.1,-41.4,0.29,2.05,-0.61,0.04,-1.02,-0.16,-217.7,-17.2,12.0,1.39,0.42,-0.06,0.0,1.0332473082471592,2.158402186803933,0.041131374735766,0.28,0,0,0.0
3.132896533999883,109,4808.32,-99.7,2.2,-41.2,0.49,2.25,-0.61,0.05,-1.01,-0.16,-217.8,-12.2,38.0,1.39,0.28,0.03,0.0,1.023816389788716,2.382162882760119,0.031066447151776422,0.28,0,0,0.0
3.141631645000416,110,4808.33,-99.6,2.3,-41.0,0.71,2.49,-0.58,0.04,-0.99,-0.17,-217.9,-11.6,2.0,1.4,0.34,-0.1,0.0,1.0052860289489753,2.6534128966295465,0.012285364585794989,0.28,0,0,0.0
3.1529315210000277,111,4808.34,-99.6,2.4,-40.8,0.85,2.72,-0.54,0.04,-0.97,-0.15,-218.1,-13.4,-14.0,1.4,0.4,0.08,0.0,0.982344135219425,2.9004310024546354,0.01044339856088028,0.28,0,0,0.0
3.161491476000265,112,4808.35,-99.4,2.5,-40.5,0.85,2.89,-0.46,0.05,-0.95,-0.13,-218.2,-13.2,14.0,1.41,0.3,-0.08,0.0,0.9601562372864116,3.0473266972873128,0.03197867056401571,0.28,0,0,0.0
3.172870833000161,113,4808.36,-99.3,2.6,-40.2,0.79,3.0,-0.4,0.06,-0.96,-0.12,-218.3,-10.4,1.0,1.41,0.32,0.04,0.0,0.9693296652842107,3.1279546032511405,0.02234913771489233,0.28,0,0,0.0
3.1816569600005096,114,4808.37,-99.2,2.7,-39.9,0.72,3.13,-0.39,0.05,-0.98,-0.12,-218.4,-11.3,13.0,1.41,0.25,-0.09,0.0,0.9885848471426213,3.235336149459589,0.0030320767393521297,0.28,0,0,0.0
3.192964249999932,115,4808.38,-99.1,2.8,-39.6,0.7,3.21,-0.45,0.04,-0.99,-0.1,-218.5,-8.2,17.0,1.41,0.2,-0.02,0.0,0.9958413528268446,3.316112181455869,0.00413994036597376,0.28,0,0,0.0
3.201551756000299,116,4808.39,-99.0,2.9,-39.3,0.74,3.25,-0.45,0.03,-0.98,-0.09,-218.6,-5.6,34.0,1.41,0.08,0.29,0.0,0.9845811292118085,3.3634208776184997,0.0069778775840810825,0.28,0,0,0.0
3.212849260999974,117,4808.4,-98.9,3.0,-39.0,0.8,3.25,-0.39,0.02,-0.97,-0.08,-218.6,0.2,46.0,1.41,-0.05,0.22,0.0,0.973498844375277,3.369658736430145,0.017698959172200324,0.28,0,0,0.0
3.2216019810002763,118,4808.41,-98.7,3.0,-38.6,0.82,3.22,-0.28,0.02,-0.96,-0.07,-218.6,0.2,-4.0,1.41,0.04,0.22,0.0,0.9627564593395361,3.3345464459203447,0.027872517323782375,0.28,0,0,0.0
3.2331157580001673,119,4808.42,-98.6,3.1,-38.3,0.52,3.2,-0.14,0.03,-0.98,-0.09,-218.6,0.0,15.0,1.41,-0.03,-0.17,0.0,0.9845811292118085,3.2449961479175906,0.0059268905024797425,0.28,0,0,0.0
3.2416768180000872,120,4808.43,-98.5,3.1,-38.0,0.25,3.27,-0.08,0.05,-1.01,-0.1,-218.6,0.6,-1.0,1.41,0.0,0.38,0.0,1.0161692772368194,3.2805182517401117,0.02514803237208052,0.28,0,0,0.0
3.2528577060002135,121,4808.44,-98.4,3.2,-37.7,0.11,3.33,0.08,0.05,-1.01,-0.1,-218.6,0.0,5.0,1.41,-0.03,0.14,0.0,1.0161692772368194,3.3327766201772357,0.024645071724638923,0.28,0,0,0.0
3.2616714530004174,122,4808.45,-98.4,3.2,-37.3,0.26,3.46,0.3,0.07,-1.04,-0.11,-218.6,1.9,8.0,1.41,-0.05,-0.09,0.0,1.0481412118603104,3.4827001019324073,0.05548466622116732,0.28,0,0,0.0
3.2729574499999217,123,4808.46,-98.3,3.3,-37.0,0.47,3.58,0.42,0.08,-1.08,-0.13,-218.6,1.5,-2.0,1.41,-0.03,-0.09,0.0,1.0907336980216573,3.635065336414189,0.09611560933486396,0.28,0,0,0.0
3.281628128000193,124,4808.47,-98.2,3.3,-36.6,0.67,3.66,0.42,0.08,-1.11,-0.16,-218.5,0.0,-2.0,1.41,0.0,-0.09,0.0,1.1243220179290274,3.7444492251865293,0.12710985065738933,0.28,0,0,0.0
3.2929409410007793,125,4808.48,-98.1,3.3,-36.2,1.01,3.7,0.34,0.05,-1.11,-0.22,-218.5,2.3,15.0,1.41,-0.09,-0.18,0.0,1.1326958991715297,3.8504155619880827,0.13277405726189373,0.28,0,0,0.0
3.3015558920005788,126,4808.49,-98.0,3.3,-35.9,1.43,3.77,0.24,0.02,-1.11,-0.24,-218.5,3.9,17.0,1.41,-0.13,-0.16,0.0,1.1358256908522542,4.039232600383395,0.1331857719637659,0.28,0,0,0.0
3.312835866000569,127,4808.5,-97.9,3.3,-35.5,1.92,3.87,0.16,-0.01,-1.09,-0.24,-218.4,8.1,39.0,1.41,-0.27,0.04,0.0,1.1161541112229978,4.323066041595942,0.1112439084878194,0.28,0,0,0.0
3.3215306000001874,128,4808.51,-97.6,3.4,-35.1,2.19,3.88,0.05,-0.04,-1.08,-0.2,-218.3,10.2,13.0,1.41,-0.27,-0.08,0.0,1.099090533122727,4.455670544373765,0.09229672377979758,0.28,0,0,0.0
3.3327593170006367,129,4808.52,-97.4,3.4,-34.7,2.35,3.79,-0.02,-0.07,-1.06,-0.18,-218.2,12.7,42.0,1.4,-0.44,0.01,0.0,1.0774506949276148,4.459484275115229,0.0692437478729917,0.28,0,0,0.0
3.3416474129999187,130,4808.53,-97.1,3.5,-34.4,2.59,3.63,-0.14,-0.1,-1.04,-0.17,-218.0,18.5,40.0,1.4,-0.54,-0.03,0.0,1.058536725862641,4.461457161062963,0.04932318323185747,0.28,0,0,0.0
3.3528288450006585,131,4808.54,-96.8,3.5,-34.0,2.61,3.48,-0.24,-0.1,-1.02,-0.17,-217.8,22.9,55.0,1.39,-0.72,0.02,0.0,1.0388936422945325,4.356615658971996,0.029086497670473888,0.28,0,0,0.0
3.3616273550005644,132,4808.55,-96.5,3.6,-33.7,2.64,3.3,-0.35,-0.1,-1.01,-0.16,-217.5,31.2,68.0,1.38,-0.92,0.17,0.0,1.0274726273726225,4.240530627173915,0.017312173093592564,0.28,0,0,0.0
3.3729829730000347,133,4808.56,-96.3,3.7,-33.4,2.65,3.1,-0.45,-0.09,-0.99,-0.14,-217.2,38.2,80.0,1.37,-1.15,0.09,0.0,1.0038924245156948,4.103047647785728,0.006142669168068382,0.28,0,0,0.0
3.381700156000079,134,4808.57,-96.0,3.8,-33.1,2.79,2.9,-0.58,-0.09,-0.97,-0.13,-216.7,47.8,86.0,1.36,-1.4,0.13,0.0,0.9828021163998376,4.065771759457237,0.02668831773824698,0.28,0,0,0.0
3.392991560000155,135,4808.58,-95.7,3.9,-32.8,2.86,2.66,-0.69,-0.09,-0.95,-0.12,-216.2,56.2,82.0,1.34,-1.61,-0.09,0.0,0.9617692030835672,3.966270288318737,0.04676680643342701,0.28,0,0,0.0
3.4015562340000542,136,4808.59,-95.4,4.0,-32.6,2.86,2.39,-0.85,-0.08,-0.96,-0.14,-215.6,64.5,86.0,1.32,-1.86,-0.15,0.0,0.9734474818910366,3.8228523382416957,0.03438675707343841,0.28,0,0,0.0
3.4127619770006277,137,4808.6,-95.0,4.1,-32.3,2.93,2.19,-1.02,-0.08,-0.96,-0.14,-214.9,72.6,73.0,1.3,-2.04,0.02,0.0,0.9734474818910366,3.7975518429640958,0.03369902193196972,0.28,0,0,0.0
3.421513014000084,138,4808.61,-94.7,4.2,-32.1,3.14,2.02,-1.23,-0.09,-0.94,-0.11,-214.1,79.6,77.0,1.28,-2.26,0.05,0.0,0.9506839643120104,3.931017679939891,0.05533328872077603,0.28,0,0,0.0
3.4330454179998924,139,4808.62,-94.4,4.4,-31.9,3.29,1.82,-1.28,-0.09,-0.92,-0.09,-213.3,86.6,62.0,1.26,-2.4,0.01,0.0,0.9287626176801045,3.9717628327985546,0.07570954264562824,0.28,0,0,0.0
3.4415510490007364,140,4808.63,-94.0,4.5,-31.8,3.37,1.61,-1.45,-0.08,-0.95,-0.09,-212.4,91.5,56.0,1.23,-2.55,0.11,0.0,0.957601169589929,4.006432328144331,0.04593357092108763,0.28,0,0,0.0
3.4528493540001364,141,4808.64,-93.7,4.7,-31.6,3.53,1.44,-1.68,-0.07,-0.95,-0.12,-211.4,96.3,50.0,1.21,-2.67,0.2,0.0,0.9601041610158764,4.166161302686202,0.042561967905237474,0.28,0,0,0.0
3.4617225270003473,142,4808.65,-93.3,4.9,-31.5,3.46,1.34,-1.76,-0.05,-0.96,-0.09,-210.4,100.4,34.0,1.18,-2.75,0.01,0.0,0.9655050491841044,4.106677489163229,0.036417858142269166,0.28,0,0,0.0
3.4728607659999398,143,4808.66,-93.0,5.0,-31.4,3.24,1.02,-1.76,0.0,-0.98,-0.09,-209.4,101.3,13.0,1.15,-2.75,0.14,0.0,0.9841239759298621,3.825650271522477,0.01744295276858132,0.28,0,0,0.0
3.4817080030006764,144,4808.67,-92.7,5.2,-31.3,2.75,0.97,-1.63,0.01,-1.03,-0.08,-208.4,101.9,5.0,1.12,-2.76,-0.09,0.0,1.0331505214633538,3.3407035187217677,0.030951920909612296,0.28,0,0,0.0
3.492992129999948,145,4808.68,-92.4,5.3,-31.2,2.81,0.74,-1.62,0.02,-1.09,-0.09,-207.4,98.9,-27.0,1.1,-2.61,0.07,0.0,1.0938921336219583,3.326875410952445,0.08985966240685239,0.28,0,0,0.0
3.5015488760000153,146,4808.69,-92.1,5.4,-31.2,3.06,0.5,-1.38,0.03,-1.12,-0.11,-206.4,94.1,-35.0,1.07,-2.52,0.02,0.0,1.1257886124845997,3.3938179090811573,0.11932101844410403,0.28,0,0,0.0
3.5128453620000073,147,4808.7,-91.8,5.5,-31.2,3.51,0.24,-1.16,0.01,-1.14,-0.08,-205.5,88.8,-60.0,1.05,-2.3,-0.05,0.0,1.1428473213863695,3.7044972668366216,0.13365213279895638,0.28,0,0,0.0
3.5216342630001236,148,4808.71,-91.5,5.6,-31.2,3.95,0.01,-1.19,0.01,-1.1,-0.07,-204.7,79.5,-75.0,1.03,-2.08,-0.07,0.0,1.1022703842524302,4.12537271043478,0.09121369175171679,0.28,0,0,0.0
3.532937130999926,149,4808.72,-91.1,5.7,-31.2,4.02,-0.2,-1.16,0.0,-1.03,-0.08,-204.0,70.8,-83.0,1.01,-1.83,-0.08,0.0,1.0331021246711285,4.188794576008711,0.021604523527006814,0.28,0,0,0.0
3.5416167010007484,150,4808.73,-90.7,5.8,-31.2,3.75,-0.4,-1.16,-0.02,-0.96,-0.09,-203.3,63.6,-72.0,0.99,-1.64,0.12,0.0,0.9644169222903546,3.945643166836048,0.04613906527669165,0.28,0,0,0.0
3.553008282000519,151,4808.74,-90.4,5.9,-31.3,3.31,-0.54,-1.16,-0.02,-0.91,-0.09,-202.7,56.7,-80.0,0.98,-1.41,0.2,0.0,0.91465840618233,3.5487039887823837,0.0939796297570219,0.28,0,0,0.0
3.5616589840001325,152,4808.75,-90.0,6.0,-31.3,2.96,-0.68,-1.27,0.0,-0.91,-0.08,-202.2,47.8,-76.0,0.96,-1.22,0.02,0.0,0.9135097153287425,3.2919447139950573,0.09322575419839729,0.28,0,0,0.0
3.5728327850001733,153,4808.76,-89.8,6.1,-31.4,2.51,-0.87,-1.23,0.01,-0.88,-0.07,-201.8,40.5,-77.0,0.95,-0.99,0.23,0.0,0.8828363381737296,2.927439153936423,0.12142114872634191,0.28,0,0,0.0
3.5816349410006296,154,4808.77,-89.6,6.3,-31.5,2.0,-1.11,-1.15,0.03,-0.87,-0.06,-201.4,31.5,-72.0,0.95,-0.8,-0.14,0.0,0.8725823743349392,2.5601953050499877,0.12904161031382966,0.28,0,0,0.0
3.5929690160000973,155,4808.78,-89.4,6.4,-31.6,1.53,-1.27,-1.04,0.04,-0.89,-0.06,-201.2,24.5,-84.0,0.94,-0.54,0.06,0.0,0.8929165694509202,2.2439696967650877,0.10653326689389164,0.28,0,0,0.0
3.6014335120007672,156,4808.79,-89.3,6.5,-31.8,1.13,-1.43,-0.94,0.04,-0.91,-0.06,-201.0,17.7,-60.0,0.93,-0.43,0.09,0.0,0.9128526715741156,2.0507071950914884,0.0848652214752823,0.28,0,0,0.0
3.6129802350005775,157,4808.8,-89.3,6.5,-31.9,0.83,-1.6,-0.75,0.04,-0.93,-0.05,-200.8,14.5,-44.0,0.93,-0.33,0.0,0.0,0.9322016949137134,1.9522807175198962,0.06420587417297086,0.28,0,0,0.0
3.621544171000096,158,4808.81,-89.3,6.6,-32.1,0.6,-1.75,-0.57,0.04,-0.94,-0.06,-200.7,8.4,-56.0,0.93,-0.16,0.03,0.0,0.942761899951414,1.9358202395883766,0.052572755752564815,0.28,0,0,0.0
3.632823155000551,159,4808.82,-89.3,6.6,-32.3,0.49,-1.89,-0.4,0.04,-0.95,-0.05,-200.7,3.9,-42.0,0.93,-0.07,0.13,0.0,0.9521554494934112,1.9930378822290358,0.0423156220863562,0.28,0,0,0.0
3.6416676510007164,160,4808.83,-89.3,6.6,-32.5,0.5,-2.06,-0.29,0.04,-0.95,-0.04,-200.7,1.4,-26.0,0.93,-0.02,0.14,0.0,0.9516827202382105,2.1395560287124993,0.041932584314725796,0.28,0,0,0.0
3.652884943000572,161,4808.84,-89.3,6.6,-32.7,0.52,-2.17,-0.3,0.04,-0.98,-0.04,-200.6,-0.2,-16.0,0.93,0.0,-0.02,0.0,0.9816312953446421,2.251510604016779,0.011744329024128364,0.28,0,0,0.0
3.661651127999903,162,4808.85,-89.3,6.6,-32.9,0.37,-2.32,-0.19,0.05,-0.94,-0.03,-200.6,0.3,0.0,0.93,-0.01,0.05,0.0,0.9418067742376882,2.3569896054077115,0.050537473128460575,0.28,0,0,0.0
3.6729648919999818,163,4808.86,-89.3,6.6,-33.2,0.17,-2.41,-0.11,0.07,-0.95,-0.03,-200.6,-0.2,-6.0,0.93,0.01,-0.01,0.0,0.9530477427705287,2.418491265231281,0.03851057450370765,0.28,0,0,0.0
3.681667911000659,164,4808.87,-89.4,6.6,-33.4,0.09,-2.44,-0.07,0.09,-0.96,-0.03,-200.7,-0.3,-4.0,0.93,0.02,0.06,0.0,0.9646761114488116,2.442662481801364,0.026344561708916303,0.28,0,0,0.0
3.692857367000215,165,4808.88,-89.4,6.6,-33.7,0.01,-2.48,-0.02,0.11,-0.95,-0.03,-200.6,0.1,1.0,0.93,0.0,0.13,0.0,0.9568176419778223,2.480100804402918,0.03351897055630748,0.28,0,0,0.0
3.7015248229999997,166,4808.89,-89.5,6.6,-33.9,-0.07,-2.46,0.06,0.12,-0.95,-0.04,-200.7,-0.4,-4.0,0.93,0.02,0.07,0.0,0.9583840566286566,2.4617270360460357,0.03131350478736372,0.28,0,0,0.0
3.713000065000415,167,4808.9,-89.5,6.6,-34.2,-0.21,-2.43,0.15,0.12,-0.95,-0.05,-200.7,-1.6,-10.0,0.93,0.06,-0.01,0.0,0.9588534820294495,2.443665279861381,0.03022719779883931,0.28,0,0,0.0
3.7215393209999093,168,4808.91,-89.6,6.6,-34.4,-0.44,-2.4,0.26,0.13,-0.95,-0.05,-200.7,-3.0,-18.0,0.93,0.12,-0.01,0.0,0.9601562372864116,2.45381335883559,0.02834595369103965,0.28,0,0,0.0
3.732721870000205,169,4808.92,-89.8,6.6,-34.7,-0.56,-2.35,0.34,0.13,-0.96,-0.06,-200.7,-7.3,-41.0,0.93,0.27,0.03,0.0,0.9706183596038146,2.439610624669437,0.017526154746163924,0.28,0,0,0.0
3.741684797000744,170,4808.93,-89.9,6.5,-34.9,-0.69,-2.33,0.49,0.13,-0.97,-0.06,-200.9,-11.7,-26.0,0.93,0.32,-0.02,0.0,0.9805100713404223,2.478931221312927,0.0074817541493650275,0.28,0,0,0.0
3.752940682999906,171,4808.94,-90.0,6.5,-35.1,-0.72,-2.33,0.58,0.14,-0.98,-0.06,-201.0,-11.8,-17.0,0.94,0.35,0.06,0.0,0.991766101457395,2.506730938892326,0.0036987904482554956,0.28,0,0,0.0
3.761628075000772,172,4808.95,-90.2,6.4,-35.4,-0.69,-2.31,0.61,0.14,-0.97,-0.05,-201.1,-15.2,-33.0,0.94,0.48,0.13,0.0,0.9813256340277675,2.4868252853789308,0.006606843441744559,0.28,0,0,0.0
3.772980867000115,173,4808.96,-90.3,6.4,-35.6,-0.76,-2.3,0.6,0.14,-0.96,-0.06,-201.3,-22.4,-61.0,0.95,0.69,-0.25,0.0,0.9720082304178294,2.4955159787106154,0.015605762110649013,0.28,0,0,0.0
3.7816352610007016,174,4808.97,-90.4,6.4,-35.9,-0.91,-2.26,0.57,0.14,-0.95,-0.06,-201.6,-27.6,-49.0,0.96,0.8,0.0,0.0,0.9621330469326994,2.502119101881443,0.02497132668386337,0.28,0,0,0.0
3.7930079470006604,175,4808.98,-90.6,6.3,-36.1,-1.04,-2.24,0.56,0.13,-0.94,-0.04,-201.9,-32.5,-42.0,0.96,0.9,-0.07,0.0,0.9497894503520241,2.532350686615106,0.03656862479924794,0.28,0,0,0.0
3.8015581449999445,176,4808.99,-90.7,6.3,-36.3,-1.17,-2.25,0.54,0.12,-0.96,-0.04,-202.2,-35.6,-42.0,0.97,1.02,0.19,0.0,0.9682974749528164,2.592874852359828,0.017699388194486576,0.28,0,0,0.0
3.8128944720001527,177,4809.0,-90.9,6.2,-36.5,-1.11,-2.31,0.54,0.11,-0.96,-0.03,-202.5,-38.1,-45.0,0.98,1.11,0.24,0.0,0.9667471230885561,2.619121990286058,0.01886474525757187,0.28,0,0,0.0
3.8215982400006396,178,4809.01,-91.0,6.2,-36.8,-0.97,-2.41,0.58,0.1,-0.97,-0.02,-203.0,-42.9,-39.0,1.0,1.19,0.06,0.0,0.9753460924205315,2.661841467856416,0.010060460407084637,0.28,0,0,0.0
3.833076900999913,179,4809.02,-91.2,6.1,-37.0,-0.87,-2.54,0.66,0.1,-0.98,-0.03,-203.5,-42.9,-1.0,1.01,1.13,-0.1,0.0,0.9855455342093535,2.764796556710819,0.00013620175410267166,0.28,0,0,0.0
3.84171170800073,180,4809.03,-91.3,6.0,-37.3,-0.9,-2.71,0.78,0.1,-0.97,-0.02,-203.9,-39.6,24.0,1.02,1.02,0.0,0.0,0.9753460924205315,2.9601520231231366,0.009861975234024989,0.28,0,0,0.0
3.852984140999979,181,4809.04,-91.4,5.9,-37.6,-0.93,-2.84,0.97,0.11,-0.98,-0.03,-204.2,-37.2,9.0,1.03,1.02,0.0,0.0,0.986610358753647,3.1418784190353386,0.001374245277108721,0.28,0,0,0.0
3.8614975410000625,182,4809.05,-91.5,5.8,-37.9,-0.86,-2.93,1.08,0.12,-0.99,-0.04,-204.6,-36.1,23.0,1.04,0.93,-0.07,0.0,0.9980480950335009,3.238965884352597,0.012555741925823316,0.28,0,0,0.0
3.8726031380001587,183,4809.06,-91.7,5.7,-38.2,-0.84,-2.94,1.15,0.12,-0.99,-0.03,-205.0,-32.7,32.0,1.05,0.83,-0.04,0.0,0.9976973488989535,3.2667568014775754,0.01196089587545035,0.28,0,0,0.0
3.880870190000678,184,4809.07,-91.8,5.6,-38.4,-0.86,-2.96,1.14,0.1,-0.99,-0.03,-205.3,-30.1,20.0,1.06,0.8,-0.07,0.0,0.9954898291795853,3.2864570589009676,0.009558308632960588,0.28,0,0,0.0
3.8927683020001496,185,4809.08,-91.9,5.5,-38.7,-0.9,-2.98,1.08,0.09,-0.99,-0.03,-205.5,-27.8,17.0,1.06,0.76,-0.05,0.0,0.9945350672550466,3.2949658571827416,0.008431475774253405,0.28,0,0,0.0
3.9015750450007545,186,4809.09,-92.0,5.4,-39.0,-0.99,-3.06,1.11,0.09,-0.97,-0.02,-205.8,-28.2,9.0,1.07,0.73,0.13,0.0,0.9743715923609432,3.402322736014325,0.011497359137452978,0.28,0,0,0.0
3.91290214700075,187,4809.1,-92.1,5.2,-39.4,-0.95,-3.16,1.16,0.08,-0.97,-0.03,-206.1,-26.4,12.0,1.08,0.7,0.0,0.0,0.973755616158387,3.4976706534492354,0.01187106863320897,0.28,0,0,0.0
3.9214364360004765,188,4809.11,-92.2,5.1,-39.7,-0.92,-3.27,1.23,0.07,-0.95,-0.02,-206.4,-25.2,14.0,1.08,0.67,-0.1,0.0,0.9527853903162034,3.61278286089823,0.03218446858588475,0.28,0,0,0.0
3.932963216000644,189,4809.12,-92.4,5.0,-40.0,-1.01,-3.39,1.25,0.06,-0.94,-0.03,-206.6,-25.5,-5.0,1.09,0.72,-0.25,0.0,0.9423905772024675,3.751626314013697,0.041727696065628095,0.28,0,0,0.0
3.9457488719999674,190,4809.13,-92.5,4.8,-40.3,-1.17,-3.49,1.26,0.05,-0.95,-0.03,-206.9,-27.0,-16.0,1.1,0.77,-0.08,0.0,0.9517877914745492,3.8905783631742983,0.03168387215767554,0.28,0,0,0.0
3.9537429600004543,191,4809.14,-92.7,4.6,-40.7,-1.32,-3.6,1.19,0.04,-0.97,-0.03,-207.2,-29.2,-18.0,1.11,0.83,0.01,0.0,0.9712878049270464,4.014785174825672,0.01194018153107479,0.28,0,0,0.0
3.9615849740002886,192,4809.15,-92.8,4.5,-41.1,-1.4,-3.71,1.04,0.03,-1.0,-0.03,-207.5,-33.4,-33.0,1.12,0.93,0.18,0.0,1.0008995953640905,4.099475576217036,0.017318176727849965,0.28,0,0,0.0
3.9728994260003674,193,4809.16,-93.0,4.4,-41.4,-1.54,-3.84,0.96,0.04,-1.01,-0.03,-207.8,-34.9,-24.0,1.13,0.98,0.0,0.0,1.011236866416568,4.24721084948699,0.027102338824721017,0.28,0,0,0.0
3.981542119000551,194,4809.17,-93.2,4.2,-41.8,-1.46,-3.93,0.91,0.04,-1.03,-0.03,-208.2,-37.5,-27.0,1.14,1.06,0.05,0.0,1.031212878119741,4.290058274662478,0.046136783517335966,0.28,0,0,0.0
3.9930414549999114,195,4809.18,-93.3,4.1,-42.2,-1.29,-4.04,0.83,0.05,-1.03,-0.03,-208.6,-39.4,-8.0,1.15,1.06,0.05,0.0,1.031649165171959,4.3214118063429225,0.045641609158162955,0.28,0,0,0.0
4.001540227000078,196,4809.19,-93.4,4.0,-42.6,-1.15,-4.07,0.82,0.06,-1.01,-0.05,-209.0,-38.1,9.0,1.16,1.0,0.03,0.0,1.013015300970326,4.308108633727799,0.026467590057399293,0.28,0,0,0.0
4.0128329389999635,197,4809.2,-93.6,3.9,-43.0,-1.1,-4.11,0.82,0.08,-0.99,-0.05,-209.3,-36.4,10.0,1.17,0.98,0.0,0.0,0.9944847912361455,4.3329551116991745,0.007778338716754485,0.28,0,0,0.0
4.02156139500039,198,4809.21,-93.7,3.8,-43.4,-1.11,-4.1,0.8,0.09,-0.98,-0.05,-209.7,-36.2,-1.0,1.18,0.99,0.0,0.0,0.985393322486001,4.322279491194432,0.0012868674327222163,0.28,0,0,0.0
4.032896618999985,199,4809.22,-93.8,3.7,-43.8,-1.16,-4.02,0.79,0.09,-0.98,-0.06,-210.1,-37.0,-2.0,1.19,0.99,0.02,0.0,0.9859513172565875,4.2579455139773685,0.0007142952088929899,0.28,0,0,0.0
4.041669444000036,200,4809.23,-94.0,3.6,-44.2,-1.23,-3.95,0.82,0.08,-0.97,-0.04,-210.4,-37.1,-7.0,1.2,1.02,0.1,0.0,0.9741149829460586,4.2175585354562655,0.012299616929033474,0.28,0,0,0.0
4.052941876000659,201,4809.24,-94.1,3.5,-44.6,-1.21,-3.91,0.86,0.08,-0.99,-0.05,-210.8,-37.4,-1.0,1.21,1.02,-0.18,0.0,0.9944847912361455,4.1823199303735725,0.007908787533832395,0.28,0,0,0.0
4.061633455000447,202,4809.25,-94.3,3.4,-45.0,-1.13,-3.84,0.88,0.09,-0.99,-0.06,-211.2,-38.3,5.0,1.22,1.0,0.06,0.0,0.9958915603618699,4.098402127659022,0.009129245526365626,0.28,0,0,0.0
4.072965592999935,203,4809.26,-94.4,3.3,-45.4,-1.1,-3.76,0.89,0.09,-0.99,-0.07,-211.6,-35.2,30.0,1.23,0.88,0.03,0.0,0.9965440281292142,4.017424548140264,0.009586079027835703,0.28,0,0,0.0
4.081720533000407,204,4809.27,-94.5,3.2,-45.7,-1.07,-3.68,0.9,0.09,-1.0,-0.06,-211.9,-32.7,13.0,1.24,0.88,-0.09,0.0,1.005832988124768,3.9366610217289475,0.018497538242921774,0.28,0,0,0.0
4.0929278600006,205,4809.28,-94.6,3.1,-46.1,-1.09,-3.56,0.89,0.08,-0.99,-0.06,-212.2,-31.0,19.0,1.24,0.82,0.07,0.0,0.9950376877284598,3.8280282130621766,0.007548193089681243,0.28,0,0,0.0
4.101588296000045,206,4809.29,-94.8,3.0,-46.4,-1.14,-3.46,0.88,0.08,-0.99,-0.06,-212.5,-27.1,40.0,1.25,0.67,-0.01,0.0,0.9950376877284598,3.747745989258077,0.007397229227887658,0.28,0,0,0.0
4.112838187000307,207,4809.3,-94.9,2.9,-46.7,-1.13,-3.35,0.86,0.07,-1.0,-0.06,-212.7,-23.6,25.0,1.26,0.64,-0.05,0.0,1.0042410069301093,3.6385436647098244,0.016268537460946475,0.28,0,0,0.0
4.121615054000358,208,4809.31,-95.0,2.8,-47.1,-1.14,-3.3,0.79,0.07,-1.01,-0.05,-213.0,-21.4,21.0,1.26,0.57,0.07,0.0,1.0136567466356645,3.5796228851654193,0.0251705916231717,0.28,0,0,0.0
4.13293588400029,209,4809.32,-95.1,2.7,-47.4,-1.09,-3.27,0.74,0.07,-1.01,-0.06,-213.2,-20.7,18.0,1.27,0.53,-0.15,0.0,1.0141991914806479,3.525421960560182,0.025198775738791923,0.28,0,0,0.0
4.1415059930004645,210,4809.33,-95.2,2.6,-47.7,-1.0,-3.22,0.72,0.08,-1.0,-0.07,-213.4,-18.2,18.0,1.27,0.48,-0.14,0.0,1.0056341282991543,3.447723886856371,0.016301038306152482,0.28,0,0,0.0
4.152960318000623,211,4809.34,-95.3,2.6,-48.0,-0.87,-3.16,0.72,0.09,-1.0,-0.08,-213.6,-19.8,0.0,1.28,0.51,0.05,0.0,1.0072239075796403,3.3557264489227965,0.017533001234905643,0.28,0,0,0.0
4.161548380000568,212,4809.35,-95.4,2.5,-48.3,-0.75,-3.09,0.73,0.09,-1.0,-0.09,-213.7,-16.2,34.0,1.28,0.36,0.0,0.0,1.0080674580602234,3.26243773886951,0.018009020681178933,0.28,0,0,0.0
4.1729251740007385,213,4809.36,-95.5,2.4,-48.6,-0.58,-2.99,0.7,0.09,-1.01,-0.09,-213.9,-11.3,29.0,1.29,0.3,0.04,0.0,1.017988212112498,3.1251399968641405,0.027371179238784404,0.28,0,0,0.0
4.18571386900021,214,4809.37,-95.5,2.4,-48.9,-0.4,-2.88,0.61,0.1,-1.0,-0.1,-214.0,-11.2,11.0,1.29,0.28,-0.16,0.0,1.0099504938362078,2.9709426113609125,0.01894679174324443,0.28,0,0,0.0
4.193613475999882,215,4809.38,-95.6,2.3,-49.2,-0.26,-2.71,0.5,0.08,-1.0,-0.09,-214.1,-9.9,7.0,1.29,0.28,0.13,0.0,1.0072239075796403,2.767977601065442,0.015895801376943353,0.28,0,0,0.0
4.201532030000635,216,4809.39,-95.6,2.2,-49.4,-0.24,-2.58,0.39,0.06,-0.99,-0.07,-214.2,-9.5,13.0,1.3,0.22,-0.02,0.0,0.9942836617384397,2.6203244073969163,0.0028964444250278998,0.28,0,0,0.0
4.213008687000183,217,4809.4,-95.6,2.2,-49.7,-0.36,-2.48,0.3,0.05,-0.99,-0.08,-214.2,-6.6,24.0,1.3,0.15,-0.21,0.0,0.9944847912361455,2.5238858928247927,0.003035622444279018,0.28,0,0,0.0
4.221549193000101,218,4809.41,-95.7,2.2,-49.9,-0.41,-2.42,0.24,0.05,-0.99,-0.07,-214.3,-7.4,-15.0,1.3,0.26,0.03,0.0,0.9937303457175894,2.466191395654441,0.0022355533872084887,0.28,0,0,0.0
4.232959281000149,219,4809.42,-95.7,2.1,-50.2,-0.45,-2.44,0.18,0.05,-0.98,-0.08,-214.4,-12.0,-26.0,1.3,0.34,0.07,0.0,0.9845303448853163,2.48766959220874,0.006825158496163386,0.28,0,0,0.0
4.241720781999902,220,4809.43,-95.8,2.1,-50.4,-0.52,-2.34,0.17,0.05,-1.0,-0.09,-214.6,-13.3,-19.0,1.31,0.38,-0.01,0.0,1.0052860289489753,2.4031021617900477,0.013651915056145714,0.28,0,0,0.0
4.252975514999889,221,4809.44,-95.8,2.1,-50.6,-0.58,-2.25,0.15,0.06,-1.0,-0.1,-214.7,-12.4,9.0,1.31,0.31,0.12,0.0,1.0067770358922576,2.328390001696451,0.014840063559439454,0.28,0,0,0.0
4.261607465000452,222,4809.45,-95.9,2.0,-50.8,-0.58,-2.08,0.14,0.08,-1.0,-0.1,-214.8,-13.3,-23.0,1.31,0.42,-0.13,0.0,1.0081666528902848,2.163885394377438,0.015905086946317315,0.28,0,0,0.0
4.27287124600025,223,4809.46,-96.0,2.0,-51.0,-0.55,-1.95,0.13,0.08,-1.01,-0.1,-215.0,-16.8,-23.0,1.32,0.48,0.0,0.0,1.0180864403379508,2.030246290478079,0.025308376906103658,0.28,0,0,0.0
4.281609250000656,224,4809.47,-96.0,2.0,-51.2,-0.46,-1.83,0.1,0.08,-1.01,-0.09,-215.1,-15.7,14.0,1.32,0.38,0.1,0.0,1.017152889196113,1.8895766721676048,0.023887329248980516,0.28,0,0,0.0
4.292796616000487,225,4809.48,-96.1,2.0,-51.4,-0.31,-1.7,0.03,0.06,-1.0,-0.1,-215.3,-14.1,4.0,1.33,0.38,-0.12,0.0,1.0067770358922576,1.728293956478469,0.013241246426222597,0.28,0,0,0.0
4.301575719000539,226,4809.49,-96.1,2.0,-51.6,-0.27,-1.58,-0.03,0.05,-0.99,-0.09,-215.4,-14.4,0.0,1.33,0.39,0.01,0.0,0.995339138183564,1.603184331260757,0.0017672817431784171,0.28,0,0,0.0
4.312939665000158,227,4809.5,-96.1,2.0,-51.7,-0.28,-1.5,-0.1,0.05,-0.98,-0.09,-215.5,-11.7,29.0,1.33,0.25,-0.06,0.0,0.985393322486001,1.529182788289222,0.008014963275296938,0.28,0,0,0.0
4.321595596999941,228,4809.51,-96.2,2.0,-51.9,-0.38,-1.4,-0.18,0.05,-0.97,-0.1,-215.7,-10.3,2.0,1.34,0.3,-0.16,0.0,0.9764220398987314,1.461779737169728,0.016646520945315157,0.28,0,0,0.0
4.333127947000321,229,4809.52,-96.2,2.1,-52.0,-0.5,-1.28,-0.24,0.05,-0.96,-0.1,-215.8,-10.8,7.0,1.34,0.26,-0.17,0.0,0.9664884893261791,1.3949910393977447,0.0260484700875101,0.28,0,0,0.0
4.341659317000449,230,4809.53,-96.3,2.1,-52.1,-0.66,-1.16,-0.27,0.05,-0.96,-0.1,-215.9,-9.6,0.0,1.34,0.28,0.01,0.0,0.9664884893261791,1.3616534067081827,0.02552750068575993,0.28,0,0,0.0
4.3528696760004095,231,4809.54,-96.4,2.1,-52.2,-0.76,-1.04,-0.28,0.07,-0.98,-0.11,-216.0,-10.1,2.0,1.34,0.26,-0.06,0.0,0.9886354231970448,1.3181805642627267,0.0033129554785964466,0.28,0,0,0.0
4.361678784000105,232,4809.55,-96.4,2.2,-52.3,-0.71,-0.92,-0.3,0.07,-0.99,-0.12,-216.1,-9.4,-2.0,1.35,0.28,-0.05,0.0,0.9996999549864949,1.2002083152519816,0.007596544784636561,0.28,0,0,0.0
4.37297626200052,233,4809.56,-96.5,2.2,-52.4,-0.68,-0.78,-0.28,0.08,-1.0,-0.12,-216.2,-11.8,-10.0,1.35,0.31,0.03,0.0,1.0103464752252072,1.0720074626605918,0.017878203722881847,0.28,0,0,0.0
4.381637993999902,234,4809.57,-96.6,2.2,-52.5,-0.61,-0.62,-0.26,0.08,-1.0,-0.12,-216.3,-10.4,7.0,1.35,0.26,0.06,0.0,1.0103464752252072,0.9077995373429092,0.017520639648424208,0.28,0,0,0.0
4.392922605999956,235,4809.58,-96.6,2.3,-52.6,-0.55,-0.48,-0.24,0.07,-1.0,-0.11,-216.4,-9.2,7.0,1.36,0.25,-0.01,0.0,1.0084641788382966,0.7684399781375251,0.015325576396283402,0.28,0,0,0.0
4.401539326000602,236,4809.59,-96.7,2.3,-52.6,-0.52,-0.35,-0.19,0.07,-0.99,-0.11,-216.5,-9.1,-2.0,1.36,0.27,0.02,0.0,0.9985489472229191,0.6549809157525126,0.005302137885287772,0.28,0,0,0.0
4.412930105000669,237,4809.6,-96.8,2.4,-52.6,-0.54,-0.22,-0.14,0.07,-0.98,-0.1,-216.6,-11.9,-23.0,1.36,0.36,-0.07,0.0,0.9875727821279806,0.599666574022598,0.0055605466654576885,0.28,0,0,0.0
4.421694986000148,238,4809.61,-96.8,2.4,-52.7,-0.61,-0.11,-0.1,0.06,-0.98,-0.1,-216.7,-12.5,-2.0,1.36,0.32,-0.23,0.0,0.9869143833180262,0.6278534860936905,0.006094566565903903,0.28,0,0,0.0
4.4329159570006595,239,4809.62,-96.9,2.4,-52.7,-0.72,-0.02,-0.09,0.05,-0.98,-0.1,-216.8,-12.0,0.0,1.37,0.32,0.05,0.0,0.9863569333664157,0.7258787777583802,0.006518976187164016,0.28,0,0,0.0
4.445598780000182,240,4809.63,-96.9,2.4,-52.7,-0.74,0.05,-0.05,0.05,-0.99,-0.1,-216.9,-10.6,4.0,1.37,0.29,-0.16,0.0,0.9962931295557548,0.7433707016018319,0.0033488756021314847,0.28,0,0,0.0
4.453563918000327,241,4809.64,-97.0,2.4,-52.6,-0.68,0.1,-0.05,0.04,-1.01,-0.11,-217.1,-12.7,-9.0,1.37,0.35,0.07,0.0,1.0167595585978033,0.6891298861608022,0.023338998551296397,0.28,0,0,0.0
4.461499584000194,242,4809.65,-97.0,2.4,-52.6,-0.6,0.13,-0.05,0.03,-1.01,-0.11,-217.2,-11.9,-2.0,1.38,0.35,0.0,0.0,1.0164152694642086,0.6159545437773798,0.022534815229347638,0.28,0,0,0.0
4.473046133000025,243,4809.66,-97.1,2.4,-52.6,-0.49,0.2,-0.04,0.02,-1.0,-0.11,-217.3,-12.4,1.0,1.38,0.33,0.12,0.0,1.0062305898749053,0.530754180388624,0.01210313292724352,0.28,0,0,0.0
4.481472690000373,244,4809.67,-97.1,2.4,-52.6,-0.35,0.24,-0.04,0.01,-1.0,-0.1,-217.4,-12.9,-14.0,1.38,0.38,0.18,0.0,1.0050373127401788,0.42626282971894225,0.01069165867666666,0.28,0,0,0.0
4.493018698000014,245,4809.68,-97.1,2.4,-52.6,-0.22,0.26,-0.03,0.01,-1.0,-0.1,-217.6,-15.5,-12.0,1.39,0.42,-0.01,0.0,1.0050373127401788,0.3419064199455752,0.010477825503133364,0.28,0,0,0.0
4.501685553000243,246,4809.69,-97.2,2.4,-52.5,-0.27,0.26,0.01,0.0,-0.99,-0.1,-217.7,-14.6,16.0,1.39,0.32,-0.07,0.0,0.9950376877284598,0.3749666651850535,0.00046863648158601556,0.28,0,0,0.0
4.513037495999924,247,4809.7,-97.2,2.4,-52.5,-0.16,0.25,0.06,0.01,-1.0,-0.11,-217.8,-9.4,32.0,1.4,0.23,-0.06,0.0,1.006081507632458,0.3028200785945344,0.011282207257872656,0.28,0,0,0.0
4.521617015000629,248,4809.71,-97.2,2.3,-52.5,-0.01,0.26,0.12,0.02,-1.0,-0.11,-217.9,-9.4,0.0,1.4,0.28,-0.15,0.0,1.0062305898749053,0.2865309756378881,0.011202663710313532,0.28,0,0,0.0
4.533052368999961,249,4809.72,-97.2,2.3,-52.5,0.02,0.28,0.19,0.02,-0.99,-0.1,-218.0,-9.8,2.0,1.4,0.25,-0.03,0.0,0.995238664843765,0.33896902513356586,0.00020652390558972833,0.28,0,0,0.0
4.541488026000479,250,4809.73,-97.1,2.3,-52.4,0.05,0.33,0.24,0.02,-0.99,-0.09,-218.1,-9.2,9.0,1.4,0.22,0.01,0.0,0.9942836617384396,0.41109609582188933,0.0007335096157409238,0.28,0,0,0.0
4.553095388000656,251,4809.74,-97.1,2.3,-52.4,0.02,0.37,0.27,0.02,-0.98,-0.1,-218.2,-4.1,43.0,1.4,0.04,-0.15,0.0,0.985291834940288,0.458475735453906,0.009530829685614695,0.28,0,0,0.0
4.561621501000445,252,4809.75,-97.1,2.2,-52.3,-0.05,0.44,0.31,0.02,-0.98,-0.11,-218.2,0.0,30.0,1.4,0.0,0.02,0.0,0.9863569333664157,0.5405552700695831,0.008296416634297255,0.28,0,0,0.0
4.573008334000406,253,4809.76,-97.1,2.2,-52.3,-0.13,0.56,0.31,0.02,-0.98,-0.11,-218.2,0.2,7.0,1.4,0.0,-0.05,0.0,0.9863569333664157,0.6531462317123173,0.008130488301611338,0.28,0,0,0.0
4.581639632000588,254,4809.77,-97.1,2.2,-52.2,-0.16,0.64,0.3,0.02,-0.98,-0.1,-218.2,0.0,4.0,1.4,0.0,-0.15,0.0,0.985291834940288,0.7247068372797375,0.009011674993184227,0.28,0,0,0.0
4.593032568000126,255,4809.78,-97.1,2.1,-52.2,-0.13,0.67,0.31,0.01,-0.97,-0.1,-218.2,0.0,2.0,1.4,0.0,-0.05,0.0,0.9751922887307918,0.7495998932764065,0.01872899677862694,0.28,0,0,0.0
4.60159068700068,256,4809.79,-97.1,2.1,-52.1,-0.14,0.66,0.35,0.0,-0.97,-0.11,-218.2,0.0,-1.0,1.4,0.0,0.02,0.0,0.9762171889492625,0.7600657866263946,0.017350014628953137,0.28,0,0,0.0
4.6129405340007,257,4809.8,-97.1,2.1,-52.0,-0.12,0.61,0.36,-0.01,-0.97,-0.1,-218.2,-0.1,1.0,1.4,-0.01,-0.07,0.0,0.9751922887307918,0.7184010022264724,0.01800741655047533,0.28,0,0,0.0
4.621582746000058,258,4809.81,-97.1,2.0,-52.0,-0.13,0.52,0.34,-0.03,-0.97,-0.09,-218.2,0.2,-8.0,1.4,0.03,0.02,0.0,0.9746281342132496,0.6347440429023341,0.018200139646657232,0.28,0,0,0.0
4.632944413000587,259,4809.82,-97.1,1.9,-51.9,-0.13,0.4,0.33,-0.05,-0.97,-0.08,-218.2,0.2,9.0,1.4,-0.03,-0.06,0.0,0.9745768312452333,0.5346026561849464,0.017886413762379982,0.28,0,0,0.0
4.641572467000515,260,4809.83,-97.1,1.8,-51.9,-0.03,0.22,0.35,-0.05,-0.97,-0.08,-218.2,0.0,-5.0,1.4,0.02,0.19,0.0,0.9745768312452333,0.4144876355212541,0.01752868548713238,0.28,0,0,0.0
4.652979715000583,261,4809.84,-97.1,1.8,-51.8,-0.03,0.02,0.37,-0.04,-0.98,-0.08,-218.2,-0.1,7.0,1.4,-0.03,0.19,0.0,0.9840731680114034,0.3717526059088221,0.007871701746543058,0.28,0,0,0.0
4.6616518150003685,262,4809.85,-97.1,1.7,-51.9,-0.09,-0.18,0.36,-0.03,-0.98,-0.08,-218.2,0.3,-5.0,1.4,0.01,0.09,0.0,0.983717439105356,0.41243181254602557,0.008062882039538644,0.28,0,0,0.0
4.672931824999978,263,4809.86,-97.1,1.6,-51.9,-0.21,-0.4,0.37,-0.02,-0.98,-0.08,-218.2,-0.2,0.0,1.4,0.0,0.08,0.0,0.9834632682515396,0.5839520528262573,0.00815071183548799,0.28,0,0,0.0
4.681618030000209,264,4809.87,-97.1,1.5,-51.9,-0.23,-0.6,0.34,-0.01,-1.0,-0.09,-218.2,0.1,0.0,1.4,0.0,0.1,0.0,1.0040916292848974,0.7269800547470336,0.01222809621391241,0.28,0,0,0.0
4.692988888999935,265,4809.88,-97.1,1.5,-52.0,-0.2,-0.73,0.33,0.0,-1.01,-0.09,-218.2,-0.1,-2.0,1.4,0.01,0.19,0.0,1.0140019723846694,0.8257118141337206,0.021695670527410726,0.28,0,0,0.0
4.70145848500033,266,4809.89,-97.1,1.4,-52.1,-0.12,-0.82,0.31,0.0,-1.01,-0.09,-218.2,0.4,1.0,1.4,0.0,0.18,0.0,1.0140019723846694,0.8848163651289457,0.021261757116862512,0.28,0,0,0.0
4.7130607890003375,267,4809.9,-97.1,1.4,-52.1,-0.11,-0.88,0.29,0.0,-1.02,-0.09,-218.2,0.0,-1.0,1.4,0.0,0.03,0.0,1.0239628899525608,0.93305948363435,0.030598221191058816,0.28,0,0,0.0
4.721584616000655,268,4809.91,-97.1,1.3,-52.2,-0.08,-0.9,0.23,0.01,-1.02,-0.09,-218.2,0.2,-1.0,1.4,0.0,0.18,0.0,1.0240117186829456,0.9323625904121207,0.030034108923014724,0.28,0,0,0.0
4.7330614990005415,269,4809.92,-97.1,1.3,-52.3,-0.08,-0.91,0.15,0.01,-1.02,-0.09,-218.2,0.3,2.0,1.4,-0.01,-0.07,0.0,1.0240117186829456,0.9257429448826494,0.029433426744554403,0.28,0,0,0.0
4.741623589000483,270,4809.93,-97.1,1.3,-52.4,-0.03,-0.92,0.09,0.01,-1.02,-0.08,-218.2,0.8,5.0,1.4,-0.03,-0.16,0.0,1.0231813133555558,0.9248783703817492,0.028030960988821296,0.28,0,0,0.0
4.75301498600038,271,4809.94,-97.0,1.2,-52.5,0.0,-0.93,0.01,0.01,-1.01,-0.08,-218.2,1.2,1.0,1.4,-0.03,0.1,0.0,1.0132127121192271,0.9300537618869138,0.017701112557442777,0.28,0,0,0.0
4.761648900000182,272,4809.95,-97.0,1.2,-52.6,-0.03,-0.98,-0.01,0.02,-0.99,-0.08,-218.2,0.8,-4.0,1.4,0.0,-0.06,0.0,0.9934284070832683,0.9805100713404222,0.002041528628945799,0.28,0,0,0.0
4.773051492999912,273,4809.96,-97.0,1.2,-52.7,-0.04,-1.0,-0.05,0.01,-0.99,-0.08,-218.1,-0.2,-9.0,1.4,0.02,0.18,0.0,0.9932774033471213,1.0020479030465559,0.0021486817177909234,0.28,0,0,0.0
4.7816278380005315,274,4809.97,-97.0,1.2,-52.8,-0.03,-1.04,-0.11,0.0,-0.98,-0.08,-218.2,0.0,4.0,1.4,-0.01,-0.06,0.0,0.9832598842625483,1.0462313319720453,0.01192287678631665,0.28,0,0,0.0
4.793036470000516,275,4809.98,-97.0,1.2,-52.9,-0.05,-1.13,-0.16,-0.01,-0.98,-0.07,-218.1,1.0,3.0,1.4,-0.02,0.09,0.0,0.98254770876533,1.1423659658795862,0.012382351237864242,0.28,0,0,0.0
4.801501356000699,276,4809.99,-96.9,1.2,-53.0,-0.1,-1.26,-0.23,-0.03,-0.97,-0.08,-218.1,0.5,0.0,1.4,-0.01,-0.06,0.0,0.973755616158387,1.2847178678604887,0.020750954967911128,0.28,0,0,0.0
4.812989110000672,277,4810.0,-96.9,1.1,-53.2,-0.19,-1.39,-0.29,-0.04,-0.98,-0.09,-218.1,0.8,0.0,1.4,-0.02,-0.14,0.0,0.9849365461794988,1.4325850760077043,0.009378624447863415,0.28,0,0,0.0
4.82155191000038,278,4810.01,-97.0,1.1,-53.3,-0.26,-1.54,-0.37,-0.04,-0.99,-0.08,-218.1,1.2,2.0,1.4,-0.03,-0.06,0.0,0.9940321926376429,1.6050233643159217,0.00027731842992495537,0.28,0,0,0.0
4.833157689000473,279,4810.02,-97.0,1.1,-53.5,-0.31,-1.7,-0.44,-0.04,-0.99,-0.09,-218.1,0.7,-3.0,1.4,0.0,0.01,0.0,0.9948869282486327,1.7831713322056295,0.0005658688374435838,0.28,0,0,0.0
4.841662034000365,280,4810.03,-97.0,1.1,-53.7,-0.35,-1.89,-0.49,-0.04,-0.99,-0.09,-218.1,1.2,4.0,1.4,-0.04,0.08,0.0,0.9948869282486327,1.9836078241426656,0.0005545514606947188,0.28,0,0,0.0
4.8529040210005405,281,4810.04,-97.0,1.1,-53.9,-0.34,-2.07,-0.52,-0.04,-0.99,-0.1,-218.1,1.3,-3.0,1.4,-0.01,0.0,0.0,0.9958413528268446,2.161226503631676,0.0014787965181285445,0.28,0,0,0.0
4.861604397000519,282,4810.05,-97.1,1.1,-54.1,-0.38,-2.21,-0.52,-0.03,-0.97,-0.11,-218.1,0.7,-5.0,1.4,0.0,-0.05,0.0,0.9766780431646859,2.301933969513461,0.01733082288114962,0.28,0,0,0.0
4.873051601000043,283,4810.06,-97.1,1.1,-54.3,-0.47,-2.33,-0.49,-0.02,-0.97,-0.11,-218.1,0.8,1.0,1.4,-0.03,-0.12,0.0,0.9764220398987314,2.4269116176737877,0.01723508962416198,0.28,0,0,0.0
4.88166315000035,284,4810.07,-97.2,1.0,-54.6,-0.58,-2.48,-0.45,-0.02,-0.98,-0.11,-218.1,1.3,3.0,1.4,-0.04,0.01,0.0,0.9863569333664157,2.586368109917844,0.007154192233348122,0.28,0,0,0.0
4.892922811000062,285,4810.08,-97.2,1.0,-54.8,-0.56,-2.66,-0.41,-0.02,-0.99,-0.12,-218.0,1.3,5.0,1.4,-0.06,0.15,0.0,0.9974467404327911,2.7490543828742275,0.003856902536366724,0.28,0,0,0.0
4.901589966000756,286,4810.09,-97.3,1.0,-55.1,-0.48,-2.83,-0.4,-0.03,-1.0,-0.12,-218.0,2.4,10.0,1.4,-0.09,-0.01,0.0,1.0076209604806758,2.898154585249034,0.013750500132566401,0.28,0,0,0.0
4.913069382000685,287,4810.1,-97.3,1.0,-55.4,-0.41,-2.97,-0.39,-0.03,-1.01,-0.13,-218.0,4.9,26.0,1.4,-0.18,0.01,0.0,1.0187737727287642,3.023425209923342,0.024405246133041736,0.28,0,0,0.0
4.921592403999966,288,4810.11,-97.4,0.9,-55.7,-0.29,-3.06,-0.42,-0.03,-1.02,-0.12,-217.9,7.3,21.0,1.4,-0.21,0.02,0.0,1.0274726273726225,3.102273359973295,0.03244201876136199,0.28,0,0,0.0
4.932820044000437,289,4810.12,-97.4,0.9,-56.0,-0.19,-3.17,-0.41,-0.04,-1.01,-0.13,-217.8,10.1,36.0,1.39,-0.35,0.01,0.0,1.0191172650877818,3.2020462207782074,0.023604923346990825,0.28,0,0,0.0
4.941632541000217,290,4810.13,-97.4,0.9,-56.3,-0.11,-3.3,-0.42,-0.03,-1.01,-0.12,-217.7,16.4,51.0,1.39,-0.51,0.0,0.0,1.0175460677532,3.328438072129328,0.021593051492160842,0.28,0,0,0.0
4.952873627999907,291,4810.14,-97.4,0.9,-56.7,-0.06,-3.43,-0.42,-0.02,-1.02,-0.12,-217.5,19.0,21.0,1.38,-0.51,0.21,0.0,1.0272292830717005,3.4561394647785844,0.03065074147444813,0.28,0,0,0.0
4.9616628359999595,292,4810.15,-97.4,0.8,-57.0,-0.01,-3.52,-0.4,-0.01,-1.02,-0.12,-217.3,19.0,21.0,1.38,-0.58,0.16,0.0,1.0270832488167645,3.5426684857604163,0.029894613075121867,0.28,0,0,0.0
4.972961678000502,293,4810.16,-97.4,0.8,-57.4,0.11,-3.6,-0.36,-0.01,-1.02,-0.13,-217.1,23.7,36.0,1.37,-0.68,-0.01,0.0,1.0282995672468214,3.6196270526119125,0.030488712875075152,0.28,0,0,0.0
4.981586929000514,294,4810.17,-97.4,0.8,-57.8,0.3,-3.65,-0.29,-0.01,-1.02,-0.12,-216.8,26.8,35.0,1.36,-0.77,-0.01,0.0,1.0270832488167645,3.6737719036434475,0.02868694655611792,0.28,0,0,0.0
4.9935865100005685,295,4810.18,-97.4,0.7,-58.1,0.47,-3.69,-0.22,-0.01,-1.02,-0.12,-216.5,29.9,23.0,1.35,-0.82,-0.09,0.0,1.0270832488167645,3.7263118495370193,0.028113207624995584,0.28,0,0,0.0
5.001611075000255,296,4810.19,-97.3,0.7,-58.5,0.66,-3.74,-0.21,0.0,-1.02,-0.11,-216.2,33.3,35.0,1.34,-0.95,0.09,0.0,1.0259142264341596,3.8035904090740376,0.026405301537542947,0.28,0,0,0.0
5.0129043760007335,297,4810.2,-97.2,0.7,-58.9,0.8,-3.79,-0.21,0.0,-1.01,-0.1,-215.9,36.0,28.0,1.33,-1.02,0.07,0.0,1.0149384217774002,3.8792009486490904,0.015120906943167922,0.28,0,0,0.0
5.021588884000266,298,4810.21,-97.1,0.6,-59.3,0.82,-3.85,-0.21,0.0,-1.01,-0.1,-215.5,38.2,26.0,1.32,-1.09,-0.12,0.0,1.0149384217774002,3.941953830272496,0.014818488804304586,0.28,0,0,0.0
5.033032099000593,299,4810.22,-97.0,0.6,-59.6,0.92,-3.89,-0.27,0.01,-1.01,-0.1,-215.1,41.8,34.0,1.31,-1.18,0.0,0.0,1.0149876846543509,4.006419848193646,0.014570396647630046,0.28,0,0,0.0
5.041667788000268,300,4810.23,-96.9,0.6,-60.0,1.04,-3.93,-0.36,0.0,-1.0,-0.09,-214.6,44.6,35.0,1.3,-1.28,-0.06,0.0,1.004041831797859,4.081188552370498,0.0035520529153154623,0.28,0,0,0.0
5.052996723000433,301,4810.24,-96.8,0.6,-60.4,1.13,-4.04,-0.4,-0.01,-0.99,-0.07,-214.2,48.9,40.0,1.29,-1.41,0.01,0.0,0.9925220400575495,4.214083530258982,0.007808384048494044,0.28,0,0,0.0
5.061637069000426,302,4810.25,-96.7,0.6,-60.9,1.16,-4.14,-0.46,-0.01,-0.98,-0.08,-213.7,53.2,38.0,1.27,-1.48,-0.06,0.0,0.9833107342035883,4.323979648425742,0.016679296104406216,0.28,0,0,0.0
5.072810693000065,303,4810.26,-96.5,0.5,-61.3,1.1,-4.25,-0.5,0.0,-0.98,-0.09,-213.1,54.1,11.0,1.26,-1.46,0.23,0.0,0.9841239759298621,4.418427322023075,0.015548733290569716,0.28,0,0,0.0
5.081661135000104,304,4810.27,-96.4,0.5,-61.7,0.95,-4.3,-0.56,0.0,-0.98,-0.09,-212.6,52.5,-8.0,1.24,-1.42,-0.09,0.0,0.9841239759298621,4.439155325059036,0.01523775862475829,0.28,0,0,0.0
5.09298371100067,305,4810.28,-96.3,0.5,-62.1,0.88,-4.34,-0.63,0.0,-0.99,-0.08,-212.1,52.1,-3.0,1.23,-1.41,-0.05,0.0,0.9932270636667125,4.472907331926294,0.006011977470149699,0.28,0,0,0.0
5.101577506000467,306,4810.29,-96.2,0.6,-62.6,1.01,-4.36,-0.69,0.0,-0.98,-0.09,-211.5,50.7,-8.0,1.22,-1.37,0.01,0.0,0.9841239759298621,4.52833302662249,0.014812763902860127,0.28,0,0,0.0
5.112926080000761,307,4810.3,-96.1,0.6,-63.0,1.05,-4.37,-0.69,0.0,-0.97,-0.1,-211.0,49.8,-9.0,1.2,-1.31,-0.07,0.0,0.9751410154434075,4.547031999007705,0.023319809901528488,0.28,0,0,0.0
5.12159436300044,308,4810.31,-96.0,0.6,-63.5,1.0,-4.39,-0.64,0.02,-0.97,-0.09,-210.6,46.8,-31.0,1.19,-1.19,0.09,0.0,0.9743715923609432,4.547713711305935,0.02360744832431294,0.28,0,0,0.0
5.133107369000754,309,4810.32,-95.9,0.6,-63.9,0.91,-4.44,-0.6,0.03,-0.98,-0.08,-210.1,43.3,-19.0,1.18,-1.17,0.06,0.0,0.983717439105356,4.571837704905983,0.013976369548302059,0.28,0,0,0.0
5.141636401000142,310,4810.33,-95.8,0.6,-64.4,0.84,-4.46,-0.58,0.03,-0.99,-0.09,-209.7,41.6,-24.0,1.17,-1.08,-0.13,0.0,0.9945350672550466,4.575325125059421,0.003095566570639252,0.28,0,0,0.0
5.153005142000438,311,4810.34,-95.8,0.7,-64.8,0.85,-4.42,-0.58,0.03,-1.0,-0.12,-209.3,39.4,-15.0,1.16,-1.07,-0.03,0.0,1.0076209604806758,4.538204490765043,0.00979052012189019,0.28,0,0,0.0
5.161625214000196,312,4810.35,-95.7,0.7,-65.3,0.96,-4.32,-0.61,0.03,-1.0,-0.11,-208.9,38.9,-8.0,1.15,-1.04,-0.04,0.0,1.0064790112068904,4.467225089471092,0.008475599431142733,0.28,0,0,0.0
5.173028909000095,313,4810.36,-95.6,0.7,-65.7,1.05,-4.27,-0.62,0.03,-0.99,-0.1,-208.5,38.2,0.0,1.13,-1.06,-0.03,0.0,0.9954898291795853,4.4406981433103505,0.0024633109442391277,0.28,0,0,0.0
5.181662053000764,314,4810.37,-95.5,0.8,-66.1,1.11,-4.3,-0.6,0.04,-0.99,-0.09,-208.1,36.9,-20.0,1.13,-0.96,-0.11,0.0,0.9948869282486327,4.4813056133229745,0.003004887637687914,0.28,0,0,0.0
5.193058710000514,315,4810.38,-95.4,0.8,-66.6,1.09,-4.32,-0.63,0.06,-1.0,-0.09,-207.8,35.1,-16.0,1.12,-0.92,-0.06,0.0,1.005832988124768,4.499711101837539,0.007782348793678562,0.28,0,0,0.0
5.201588503000494,316,4810.39,-95.3,0.9,-67.0,1.02,-4.26,-0.67,0.07,-0.99,-0.11,-207.4,34.9,-2.0,1.11,-0.94,-0.06,0.0,0.9985489472229191,4.431354194825776,0.0004883417339930363,0.28,0,0,0.0
5.21303566000006,317,4810.4,-95.2,0.9,-67.4,0.9,-4.14,-0.72,0.07,-0.98,-0.12,-207.1,34.3,1.0,1.1,-0.96,-0.2,0.0,0.9897979591815695,4.297441099072795,0.008097393381209406,0.28,0,0,0.0
5.22160126000017,318,4810.41,-95.2,1.0,-67.8,0.89,-3.97,-0.74,0.07,-0.98,-0.12,-206.7,35.9,9.0,1.09,-0.99,0.08,0.0,0.9897979591815695,4.135287172615706,0.00793544551358527,0.28,0,0,0.0
5.233005103000323,319,4810.42,-95.1,1.1,-68.2,0.92,-3.86,-0.77,0.07,-0.96,-0.12,-206.4,38.7,29.0,1.08,-1.12,-0.03,0.0,0.97,4.042140522050167,0.027178736601251696,0.28,0,0,0.0
5.241655965000064,320,4810.43,-95.0,1.2,-68.6,0.87,-3.76,-0.81,0.08,-0.97,-0.14,-206.0,41.7,21.0,1.06,-1.16,-0.01,0.0,0.9833107342035883,3.94342490736162,0.01359064234971008,0.28,0,0,0.0
5.252979733000757,321,4810.44,-95.0,1.2,-69.0,0.88,-3.66,-0.89,0.06,-0.97,-0.13,-205.5,41.1,-5.0,1.05,-1.11,0.01,0.0,0.9805100713404223,3.868087382673768,0.016063479108618495,0.28,0,0,0.0
5.2616099740007485,322,4810.45,-94.9,1.3,-69.4,0.9,-3.71,-0.94,0.03,-0.96,-0.12,-205.1,39.8,-17.0,1.04,-1.02,-0.07,0.0,0.9679359482941007,3.9316281614618642,0.028064850111841344,0.28,0,0,0.0
5.273090852000678,323,4810.46,-94.9,1.4,-69.8,0.81,-3.8,-0.98,0.02,-0.96,-0.13,-204.8,37.7,-14.0,1.03,-1.0,-0.06,0.0,0.9689685237405805,4.007056276120913,0.026491629172054276,0.28,0,0,0.0
5.281685842000115,324,4810.47,-94.9,1.5,-70.1,0.67,-3.85,-1.01,0.02,-0.97,-0.14,-204.4,37.5,-7.0,1.02,-1.01,0.07,0.0,0.9802550688468792,4.036273033381167,0.014900982384440487,0.28,0,0,0.0
5.293042531000538,325,4810.48,-94.8,1.5,-70.5,0.55,-3.88,-1.05,0.04,-0.98,-0.13,-204.0,36.9,1.0,1.01,-1.02,-0.16,0.0,0.9893937537704591,4.057018609767522,0.005647051511643353,0.28,0,0,0.0
5.301564729999882,326,4810.49,-94.8,1.6,-70.9,0.44,-3.86,-1.1,0.04,-0.98,-0.14,-203.6,37.3,-1.0,1.0,-1.0,-0.04,0.0,0.9907572861200667,4.037722130112472,0.0041978487787950325,0.28,0,0,0.0
5.313053020000552,327,4810.5,-94.8,1.7,-71.3,0.37,-3.8,-1.1,0.07,-0.97,-0.15,-203.3,36.2,-9.0,0.99,-0.96,0.04,0.0,0.9840223574695851,3.973273209835941,0.010714121880691097,0.28,0,0,0.0
5.321655282999927,328,4810.51,-94.9,1.8,-71.7,0.3,-3.72,-1.04,0.1,-0.97,-0.15,-202.9,32.7,-40.0,0.98,-0.8,0.0,0.0,0.986610358753647,3.8742741255621036,0.007963598184696608,0.28,0,0,0.0
5.332958091999899,329,4810.52,-94.8,1.9,-72.1,0.21,-3.55,-1.01,0.12,-0.97,-0.16,-202.6,26.2,-58.0,0.98,-0.58,-0.05,0.0,0.9904039579888602,3.6968500104818967,0.004086598970493793,0.28,0,0,0.0
5.341626819999874,330,4810.53,-94.8,2.0,-72.4,0.14,-3.34,-0.99,0.13,-0.97,-0.17,-202.4,19.1,-51.0,0.97,-0.49,0.01,0.0,0.993327740476425,3.48644518098306,0.0011395601532703248,0.28,0,0,0.0
5.352924103000078,331,4810.54,-94.8,2.0,-72.8,0.07,-3.16,-0.95,0.12,-0.97,-0.15,-202.3,17.0,-37.0,0.97,-0.38,0.11,0.0,0.9888377015466188,3.3004545141540733,0.005517007101415006,0.28,0,0,0.0
5.36163292800029,332,4810.55,-94.9,2.1,-73.1,0.1,-3.03,-0.94,0.11,-0.98,-0.14,-202.1,12.0,-48.0,0.97,-0.23,0.01,0.0,0.9960421677820673,3.1740352865083272,0.001653709951352944,0.28,0,0,0.0
5.373040012000274,333,4810.56,-94.9,2.2,-73.4,0.1,-2.91,-0.97,0.09,-0.99,-0.15,-202.0,5.7,-55.0,0.96,-0.09,0.04,0.0,1.0053357648069623,3.069038937517737,0.010728360836722906,0.28,0,0,0.0
5.3816376909999235,334,4810.57,-95.0,2.3,-73.7,0.02,-2.79,-1.01,0.09,-0.99,-0.14,-202.0,2.5,-29.0,0.96,-0.05,-0.05,0.0,1.0038924245156948,2.967254623385058,0.009099320134546285,0.28,0,0,0.0
5.39301474200056,335,4810.58,-95.0,2.5,-74.0,-0.04,-2.72,-1.07,0.09,-0.99,-0.13,-202.0,2.1,-10.0,0.96,-0.07,-0.03,0.0,1.002546757014355,2.9231660917573605,0.00759857958054222,0.28,0,0,0.0
5.401609751000251,336,4810.59,-95.0,2.6,-74.3,-0.09,-2.65,-1.1,0.1,-0.99,-0.12,-202.0,3.0,-1.0,0.96,-0.09,0.01,0.0,1.0022474744293446,2.8706445269311907,0.007153311055621225,0.28,0,0,0.0
5.4129704240003775,337,4810.6,-95.1,2.7,-74.5,-0.1,-2.54,-1.14,0.11,-1.01,-0.13,-201.9,2.5,-5.0,0.96,-0.04,0.01,0.0,1.0242558274181308,2.7858930345582187,0.02857843076351929,0.28,0,0,0.0
5.4215502619999825,338,4810.61,-95.1,2.8,-74.8,-0.01,-2.34,-1.13,0.12,-1.0,-0.15,-201.9,1.2,-11.0,0.96,-0.01,0.01,0.0,1.0182828683622247,2.5985765334120905,0.022153362273460875,0.28,0,0,0.0
5.433115785000155,339,4810.62,-95.2,3.0,-75.0,0.09,-2.24,-1.15,0.1,-0.99,-0.13,-201.9,-0.1,-10.0,0.96,0.0,0.01,0.0,1.003493896344168,2.5195634542515495,0.0072171024502960535,0.28,0,0,0.0
5.441573882000739,340,4810.63,-95.2,3.1,-75.3,0.08,-2.21,-1.19,0.08,-0.98,-0.13,-201.9,0.3,0.0,0.96,0.0,-0.06,0.0,0.9918165152889923,2.511294486913074,0.004371073032782058,0.28,0,0,0.0
5.453028154000094,341,4810.64,-95.2,3.2,-75.5,-0.01,-2.13,-1.25,0.07,-0.99,-0.14,-201.9,0.0,0.0,0.96,0.0,0.01,0.0,1.002297361066066,2.469716582930114,0.005987577289405799,0.28,0,0,0.0
5.46164903800036,342,4810.65,-95.3,3.3,-75.7,-0.1,-2.08,-1.35,0.05,-1.0,-0.15,-201.9,0.0,1.0,0.96,0.0,0.09,0.0,1.0124228365658292,2.481713117989265,0.015790791733385712,0.28,0,0,0.0
5.473066933000155,343,4810.66,-95.3,3.4,-75.9,-0.09,-2.09,-1.44,0.04,-1.01,-0.14,-201.9,0.0,0.0,0.96,0.0,0.02,0.0,1.020441081101697,2.5396456445732736,0.023332855543868547,0.28,0,0,0.0
5.48166476500046,344,4810.67,-95.4,3.5,-76.2,-0.04,-2.13,-1.53,0.05,-1.01,-0.14,-201.9,-0.2,-1.0,0.96,0.0,-0.06,0.0,1.0208819716304134,2.622861033299324,0.023298271151133143,0.28,0,0,0.0
5.493056144000548,345,4810.68,-95.4,3.7,-76.4,-0.06,-2.16,-1.55,0.07,-1.0,-0.14,-201.9,0.0,1.0,0.96,0.01,0.02,0.0,1.0121758740456126,2.6592668162484183,0.014300330095005753,0.28,0,0,0.0
5.501596871999936,346,4810.69,-95.5,3.8,-76.6,-0.01,-2.15,-1.55,0.08,-0.99,-0.16,-201.9,-0.6,-4.0,0.96,0.01,-0.07,0.0,1.0060318086422517,2.650490520639529,0.007993139397811988,0.28,0,0,0.0
5.513062687000456,347,4810.7,-95.5,4.0,-76.9,0.04,-2.08,-1.46,0.09,-0.97,-0.17,-201.9,-0.3,2.0,0.96,0.0,0.01,0.0,0.9888882646689665,2.5415743152620975,0.008967396483963719,0.28,0,0,0.0
5.521606689000691,348,4810.71,-95.6,4.1,-77.1,0.06,-2.02,-1.38,0.09,-0.96,-0.17,-201.9,0.3,3.0,0.96,0.0,0.1,0.0,0.979081201943945,2.4471207571348006,0.018398970024805505,0.28,0,0,0.0
5.533077787000366,349,4810.72,-95.6,4.2,-77.3,0.06,-1.93,-1.22,0.1,-0.96,-0.18,-201.9,-0.3,-1.0,0.96,0.0,0.01,0.0,0.9818350166906862,2.2840534144367113,0.015332252172503003,0.28,0,0,0.0
5.541455595000116,350,4810.73,-95.7,4.3,-77.5,0.14,-1.81,-1.08,0.1,-0.98,-0.18,-201.9,0.0,1.0,0.96,0.0,0.01,0.0,1.0013990213696036,2.112368339092404,0.0041471174562861535,0.28,0,0,0.0
5.553028399000141,351,4810.74,-95.7,4.4,-77.7,0.2,-1.69,-0.97,0.1,-0.99,-0.15,-201.9,0.0,0.0,0.96,0.0,0.01,0.0,1.0062802790475425,1.9588261791185047,0.008847807631540583,0.28,0,0,0.0
5.561572116000207,352,4810.75,-95.8,4.5,-77.9,0.21,-1.6,-0.9,0.11,-1.0,-0.15,-201.9,-0.1,0.0,0.96,0.0,0.09,0.0,1.017152889196113,1.8477283350103175,0.019326009424508905,0.28,0,0,0.0
5.573083375000351,353,4810.76,-95.8,4.6,-78.0,0.15,-1.47,-0.85,0.12,-1.01,-0.15,-201.9,0.0,0.0,0.96,-0.01,0.02,0.0,1.02810505299799,1.7046700560519035,0.02967260976185826,0.28,0,0,0.0
5.581566430000748,354,4810.77,-95.8,4.7,-78.2,0.2,-1.32,-0.88,0.11,-1.02,-0.15,-201.9,0.3,-2.0,0.96,0.0,-0.06,0.0,1.036822067666386,1.5989996873045347,0.03762183194164914,0.28,0,0,0.0
5.593096498000705,355,4810.78,-95.8,4.8,-78.3,0.33,-1.23,-0.88,0.1,-1.0,-0.14,-201.9,-0.3,-4.0,0.96,0.01,-0.06,0.0,1.0146920715172658,1.547966407904254,0.015181999076678387,0.28,0,0,0.0
5.601637243999903,356,4810.79,-95.8,4.9,-78.4,0.26,-1.19,-0.9,0.08,-1.01,-0.13,-201.9,0.3,8.0,0.96,-0.01,0.01,0.0,1.0214695296483394,1.5144966160411188,0.02152026806359686,0.28,0,0,0.0
5.612986499000726,357,4810.8,-95.8,5.0,-78.6,0.15,-1.16,-0.93,0.08,-1.01,-0.12,-201.9,0.7,0.0,0.96,0.0,0.02,0.0,1.0202450685987166,1.4943225890014513,0.019889890873694638,0.28,0,0,0.0
5.621592473000419,358,4810.81,-95.8,5.0,-78.7,0.14,-1.14,-0.98,0.08,-1.0,-0.11,-201.9,0.0,0.0,0.96,-0.01,0.01,0.0,1.0092076099594176,1.5098344280085814,0.008675383589707764,0.28,0,0,0.0
5.633115885000734,359,4810.82,-95.8,5.1,-78.8,0.15,-1.1,-0.99,0.09,-0.99,-0.12,-201.9,0.2,-3.0,0.96,0.0,-0.07,0.0,1.0012991560967182,1.4874810923168067,0.0007515911324682545,0.28,0,0,0.0
5.64153630400051,360,4810.83,-95.8,5.2,-78.9,0.15,-1.04,-1.02,0.1,-0.99,-0.12,-201.9,0.0,0.0,0.96,0.0,-0.07,0.0,1.0022474744293446,1.4644111444536332,0.001665911275792853,0.28,0,0,0.0
5.6531091320002815,361,4810.84,-95.8,5.3,-79.1,0.07,-0.99,-0.98,0.11,-0.97,-0.13,-201.9,0.1,3.0,0.96,0.0,0.01,0.0,0.9848350115628506,1.3947759676736617,0.015431620558887138,0.28,0,0,0.0
5.661629170000197,362,4810.85,-95.9,5.4,-79.2,-0.03,-0.89,-0.99,0.12,-0.98,-0.14,-201.9,0.0,0.0,0.96,0.0,0.09,0.0,0.9971960689854327,1.3315780112332884,0.0030091518735788636,0.28,0,0,0.0
5.673065334000057,363,4810.86,-95.9,5.5,-79.3,-0.03,-0.81,-1.03,0.11,-0.98,-0.14,-201.9,0.0,2.0,0.96,0.0,0.01,0.0,0.9960421677820673,1.3106868428423322,0.004079792015405315,0.28,0,0,0.0
5.681659645000764,364,4810.87,-95.9,5.6,-79.4,0.01,-0.85,-1.05,0.1,-0.98,-0.13,-201.9,0.0,-1.0,0.96,0.01,-0.08,0.0,0.9936297097007516,1.3509626197641442,0.006362405094786583,0.28,0,0,0.0
5.693058484000176,365,4810.88,-96.0,5.7,-79.5,0.03,-0.93,-1.04,0.1,-0.98,-0.13,-201.9,0.0,0.0,0.96,0.0,0.02,0.0,0.9936297097007516,1.3954927445171474,0.0062351569928909,0.28,0,0,0.0
5.701497863999975,366,4810.89,-96.0,5.8,-79.6,0.05,-0.97,-1.02,0.11,-0.98,-0.13,-201.9,0.1,0.0,0.96,0.0,0.09,0.0,0.9946858800646564,1.4084743519141554,0.005075406896406398,0.28,0,0,0.0
5.713062829000592,367,4810.9,-96.0,5.9,-79.7,0.12,-0.97,-0.96,0.12,-0.98,-0.14,-201.9,0.0,-1.0,0.96,-0.01,-0.15,0.0,0.9971960689854327,1.37,0.0025139136161175246,0.28,0,0,0.0
5.721582166000189,368,4810.91,-96.0,6.0,-79.8,0.16,-0.94,-0.91,0.13,-0.97,-0.14,-201.9,0.0,-1.0,0.96,0.0,-0.07,0.0,0.9886354231970448,1.318066766138954,0.010853068216415296,0.28,0,0,0.0
5.733020306000071,369,4810.92,-96.0,6.1,-79.9,0.16,-0.89,-0.85,0.14,-0.96,-0.14,-201.9,0.0,0.0,0.96,0.0,0.09,0.0,0.9802040603874276,1.2410479442793498,0.018898742405511815,0.28,0,0,0.0
5.741629154000293,370,4810.93,-96.1,6.2,-80.0,0.14,-0.81,-0.77,0.16,-0.95,-0.15,-201.9,0.0,2.0,0.96,0.0,0.01,0.0,0.9749871794028883,1.1263214461245068,0.023633310922250073,0.28,0,0,0.0
5.753055336000216,371,4810.94,-96.1,6.3,-80.1,0.12,-0.69,-0.72,0.16,-0.95,-0.15,-201.9,-0.1,-1.0,0.96,0.0,0.01,0.0,0.9749871794028883,1.0044401425669924,0.023160644703805078,0.28,0,0,0.0
5.761658354000247,372,4810.95,-96.1,6.4,-80.1,0.12,-0.62,-0.68,0.15,-0.95,-0.15,-201.9,0.0,0.0,0.96,0.0,0.09,0.0,0.9733961166965892,0.9280086206496145,0.024256673261902062,0.28,0,0,0.0
5.77305691499987,373,4810.96,-96.1,6.5,-80.2,0.22,-0.56,-0.67,0.15,-0.96,-0.15,-201.9,-0.2,-3.0,0.96,0.0,-0.07,0.0,0.9831581764904364,0.9004998611882181,0.01420472119869387,0.28,0,0,0.0
5.781677927000601,374,4810.97,-96.2,6.6,-80.3,0.32,-0.46,-0.63,0.16,-0.95,-0.15,-201.9,-0.2,-2.0,0.96,0.0,0.1,0.0,0.9749871794028883,0.8431488599292536,0.021928203920517086,0.28,0,0,0.0
5.793052019000243,375,4810.98,-96.2,6.7,-80.3,0.35,-0.35,-0.5,0.17,-0.95,-0.15,-201.9,-0.4,0.0,0.96,0.0,0.09,0.0,0.9766780431646859,0.7035623639735145,0.019832593355545103,0.28,0,0,0.0
5.801605022000331,376,4810.99,-96.1,6.8,-80.4,0.44,-0.24,-0.35,0.18,-0.96,-0.14,-201.9,-0.7,-2.0,0.96,0.04,0.09,0.0,0.9867117106835207,0.611310068623117,0.009602947319976018,0.28,0,0,0.0
5.813076970000111,377,4811.0,-96.1,6.8,-80.4,0.6,-0.08,-0.22,0.19,-0.96,-0.14,-201.9,-1.7,-16.0,0.96,0.09,-0.15,0.0,0.9885848471426213,0.6440496875241848,0.007575214643657957,0.28,0,0,0.0
5.821570781999981,378,4811.01,-96.1,6.9,-80.4,0.7,0.11,-0.13,0.2,-0.95,-0.15,-202.0,-4.5,-26.0,0.96,0.16,0.04,0.0,0.982344135219425,0.720416546173115,0.013539608035517126,0.28,0,0,0.0
5.83309442800055,379,4811.02,-96.0,6.9,-80.4,0.66,0.33,-0.04,0.2,-0.94,-0.15,-202.1,-10.8,-63.0,0.97,0.41,-0.06,0.0,0.9726767191621274,0.7389857914736928,0.022742883610958442,0.28,0,0,0.0
5.841657085999941,380,4811.03,-96.0,6.9,-80.3,0.52,0.58,0.07,0.2,-0.93,-0.15,-202.2,-20.2,-78.0,0.97,0.64,0.02,0.0,0.9630160954002794,0.7821125238736432,0.031755437225350236,0.28,0,0,0.0
5.8531436540006325,381,4811.04,-95.9,6.9,-80.3,0.46,0.8,0.16,0.2,-0.93,-0.15,-202.5,-26.4,-72.0,0.98,0.83,0.01,0.0,0.9630160954002794,0.9365895579174477,0.03112032848084323,0.28,0,0,0.0
5.861612814000182,382,4811.05,-95.9,6.9,-80.2,0.43,1.04,0.25,0.2,-0.93,-0.15,-202.8,-38.1,-110.0,0.99,1.19,0.03,0.0,0.9630160954002794,1.152822622956368,0.030497921911226356,0.28,0,0,0.0
5.873101337000662,383,4811.06,-95.8,6.9,-80.0,0.35,1.28,0.33,0.2,-0.93,-0.15,-203.3,-49.8,-101.0,1.01,1.44,0.09,0.0,0.9630160954002794,1.3674063039199431,0.029887963473001822,0.28,0,0,0.0
5.881353037000736,384,4811.07,-95.7,6.9,-79.9,0.27,1.5,0.38,0.19,-0.92,-0.15,-203.9,-59.1,-99.0,1.02,1.73,0.15,0.0,0.9513148795220224,1.5707641452490568,0.04075739576423365,0.28,0,0,0.0
5.892852762000075,385,4811.08,-95.7,6.9,-79.7,0.14,1.7,0.48,0.19,-0.91,-0.16,-204.5,-70.3,-106.0,1.04,2.02,-0.04,0.0,0.9432921074619462,1.772004514666935,0.04780456446782366,0.28,0,0,0.0
5.901012885000455,386,4811.09,-95.7,6.8,-79.5,0.03,1.88,0.58,0.18,-0.92,-0.17,-205.3,-76.7,-46.0,1.06,2.05,0.03,0.0,0.952732911156112,1.967663589133061,0.037596485558184733,0.28,0,0,0.0
5.913592687000346,387,4811.1,-95.7,6.8,-79.3,-0.23,2.04,0.66,0.15,-0.95,-0.15,-206.0,-66.2,101.0,1.08,1.53,-0.17,0.0,0.9733961166965892,2.156409052104911,0.016594614417353437,0.28,0,0,0.0
5.921564831000069,388,4811.11,-95.7,6.8,-79.1,-0.69,2.15,0.52,0.12,-1.03,-0.13,-206.5,-45.2,154.0,1.09,1.04,0.08,0.0,1.045083728703112,2.3171102692793886,0.053991137637386055,0.28,0,0,0.0
5.933154344000286,389,4811.12,-95.8,6.7,-78.9,-0.81,2.16,0.34,0.12,-1.02,-0.12,-206.9,-34.7,103.0,1.1,0.85,-0.08,0.0,1.034021276376845,2.3318018783764627,0.04207011160489671,0.28,0,0,0.0
5.9416578690006645,390,4811.13,-95.9,6.7,-78.7,-0.55,2.17,0.42,0.14,-1.01,-0.12,-207.2,-24.2,118.0,1.11,0.49,-0.08,0.0,1.0266937225872184,2.2776742523899243,0.034047706658964616,0.28,0,0,0.0
5.95349556400015,391,4811.14,-95.9,6.7,-78.5,-0.47,2.23,0.43,0.11,-1.09,-0.09,-207.3,-12.4,106.0,1.11,0.22,0.03,0.0,1.0992270011239718,2.3192024491190932,0.10444936549180361,0.28,0,0,0.0
5.9616020040002695,392,4811.15,-95.9,6.7,-78.2,-0.7,2.18,0.11,0.08,-1.11,-0.07,-207.4,-2.5,100.0,1.11,-0.03,-0.07,0.0,1.1150784725749125,2.2922696176497217,0.11789482020388953,0.28,0,0,0.0
5.973622599000009,393,4811.16,-95.9,6.7,-78.0,-0.74,2.08,-0.12,0.06,-1.09,-0.04,-207.4,1.9,35.0,1.11,-0.02,-0.07,0.0,1.092382716816776,2.210972636646596,0.09329508315683777,0.28,0,0,0.0
5.981600693000473,394,4811.17,-95.9,6.7,-77.8,-0.44,1.95,-0.23,0.05,-1.05,-0.05,-207.4,-1.1,-3.0,1.11,0.04,0.05,0.0,1.0523782589924593,2.012212712413874,0.05222481282587066,0.28,0,0,0.0
5.993115588000364,395,4811.18,-95.9,6.7,-77.6,-0.26,1.82,-0.26,0.04,-1.03,-0.05,-207.4,0.3,13.0,1.11,-0.02,0.03,0.0,1.0319883720275147,1.8567713914211412,0.031198227343707474,0.28,0,0,0.0
6.0016084890003185,396,4811.19,-95.9,6.7,-77.4,-0.3,1.55,-0.38,0.05,-1.03,-0.03,-207.4,0.0,-5.0,1.11,0.03,-0.02,0.0,1.031649165171959,1.623853441662763,0.030241840078388815,0.28,0,0,0.0
6.013175984000554,397,4811.2,-95.9,6.7,-77.3,-0.24,1.31,-0.48,0.06,-1.02,-0.04,-207.4,-0.9,-7.0,1.11,0.03,-0.03,0.0,1.0225458424931373,1.415662389130968,0.02071574705157575,0.28,0,0,0.0
6.021602432000691,398,4811.21,-95.8,6.8,-77.2,0.0,1.12,-0.5,0.07,-1.01,-0.07,-207.4,-2.1,-9.0,1.11,0.06,-0.07,0.0,1.0148398888494676,1.2265398485169572,0.012749597539748025,0.28,0,0,0.0
6.033177211000293,399,4811.22,-95.8,6.8,-77.1,0.4,0.97,-0.49,0.07,-1.0,-0.07,-207.4,-4.3,-17.0,1.11,0.13,-0.02,0.0,1.0048880534666536,1.158015543937127,0.0027418069137952195,0.28,0,0,0.0
6.041630003000137,400,4811.23,-95.7,6.8,-77.0,0.69,0.8,-0.48,0.07,-0.98,-0.07,-207.5,-5.8,-21.0,1.11,0.2,-0.2,0.0,0.9849873095629201,1.1603878661895772,0.01681575825013948,0.28,0,0,0.0
6.053085330000613,401,4811.24,-95.6,6.9,-76.9,0.71,0.69,-0.45,0.08,-0.95,-0.08,-207.6,-9.0,-23.0,1.12,0.25,0.14,0.0,0.9567131231461183,1.0875201147565041,0.044188145773602416,0.28,0,0,0.0
6.061631327000214,402,4811.25,-95.5,6.9,-76.9,0.62,0.61,-0.44,0.08,-0.95,-0.09,-207.6,-8.1,8.0,1.12,0.18,-0.07,0.0,0.957601169589929,0.9747307320486002,0.04243409734319592,0.28,0,0,0.0
6.073083582000436,403,4811.26,-95.5,6.9,-76.8,0.51,0.56,-0.43,0.09,-0.95,-0.09,-207.7,-6.7,3.0,1.12,0.19,0.12,0.0,0.9584883932526257,0.870976463516667,0.04071593620688929,0.28,0,0,0.0
6.081652921000568,404,4811.27,-95.4,7.0,-76.8,0.48,0.56,-0.43,0.1,-0.95,-0.1,-207.8,-8.6,-11.0,1.12,0.24,-0.04,0.0,0.9604686356149273,0.8537564055396598,0.037960979967695874,0.28,0,0,0.0
6.093120870000348,405,4811.28,-95.4,7.0,-76.7,0.49,0.58,-0.41,0.1,-0.95,-0.1,-207.9,-7.2,20.0,1.12,0.13,0.11,0.0,0.9604686356149273,0.862902080192185,0.037201760368341996,0.28,0,0,0.0
6.101541554000505,406,4811.29,-95.3,7.1,-76.7,0.43,0.62,-0.38,0.1,-0.95,-0.11,-207.9,-3.0,28.0,1.12,0.04,-0.09,0.0,0.9615612304996495,0.8448076704197234,0.03538698217394742,0.28,0,0,0.0
6.113113476000763,407,4811.3,-95.3,7.1,-76.6,0.33,0.65,-0.34,0.1,-0.96,-0.1,-207.9,-0.4,23.0,1.12,0.0,0.0,0.0,0.9703607576566563,0.8043631020876083,0.02605570591660178,0.28,0,0,0.0
6.121551261000604,408,4811.31,-95.3,7.1,-76.5,0.29,0.67,-0.31,0.09,-0.96,-0.09,-207.9,0.1,2.0,1.12,0.02,-0.24,0.0,0.9684007434941384,0.7931582439841371,0.027455405677537237,0.28,0,0,0.0
6.133140393000758,409,4811.32,-95.2,7.1,-76.5,0.24,0.72,-0.24,0.08,-0.96,-0.1,-207.9,0.1,7.0,1.12,-0.01,-0.02,0.0,0.96850400102426,0.7959899496852959,0.026805105184467326,0.28,0,0,0.0
6.141668341000695,410,4811.33,-95.2,7.1,-76.4,0.22,0.75,-0.16,0.07,-0.97,-0.09,-207.9,0.0,0.0,1.12,0.0,-0.14,0.0,0.9766780431646859,0.7978095010715277,0.018258441783160717,0.28,0,0,0.0
6.153114747000473,411,4811.34,-95.2,7.1,-76.3,0.25,0.78,-0.11,0.07,-0.97,-0.09,-207.9,0.2,-7.0,1.12,0.03,0.12,0.0,0.9766780431646859,0.8264381404557755,0.01789327294749754,0.28,0,0,0.0
6.161631868000768,412,4811.35,-95.1,7.1,-76.2,0.25,0.81,-0.04,0.07,-0.97,-0.08,-207.9,-0.1,10.0,1.12,-0.03,-0.05,0.0,0.9758073580374356,0.8486459803710851,0.01838867891325291,0.28,0,0,0.0
6.173076368000693,413,4811.36,-95.1,7.1,-76.2,0.21,0.84,0.0,0.08,-0.99,-0.08,-207.9,0.3,-8.0,1.12,0.03,0.18,0.0,0.9964436762808021,0.8658521813797087,0.0022026865435113008,0.28,0,0,0.0
6.181564673000139,414,4811.37,-95.1,7.1,-76.1,0.2,0.86,0.02,0.08,-1.01,-0.06,-207.9,-0.5,3.0,1.12,-0.01,-0.15,0.0,1.0149384217774002,0.8831760866327847,0.02028348339930719,0.28,0,0,0.0
6.19359778099988,415,4811.38,-95.0,7.1,-76.0,0.14,0.86,0.05,0.08,-1.01,-0.06,-207.9,0.5,-5.0,1.12,0.01,-0.05,0.0,1.0149384217774002,0.8727542609463445,0.019877813731321026,0.28,0,0,0.0
6.2016084830002,416,4811.39,-95.0,7.0,-75.9,0.14,0.89,0.08,0.08,-1.03,-0.06,-207.9,-0.2,5.0,1.12,-0.02,0.06,0.0,1.034842983258813,0.9044888059008801,0.03898672770847922,0.28,0,0,0.0
6.21313998200003,417,4811.4,-94.9,7.0,-75.8,0.33,0.91,0.08,0.08,-1.03,-0.06,-207.9,0.0,-4.0,1.12,0.01,0.15,0.0,1.034842983258813,0.9712878049270464,0.03820699315430964,0.28,0,0,0.0
6.221671226000581,418,4811.41,-94.9,7.0,-75.7,0.4,0.92,0.09,0.09,-1.01,-0.06,-207.9,0.0,1.0,1.12,0.0,0.06,0.0,1.0157755657624374,1.0072239075796405,0.01875678414477533,0.28,0,0,0.0
6.233056033000139,419,4811.42,-94.8,7.0,-75.6,0.4,0.95,0.13,0.09,-1.0,-0.07,-207.9,0.1,0.0,1.12,0.0,-0.06,0.0,1.0064790112068904,1.0389417693018217,0.0092710249974437,0.28,0,0,0.0
6.241661566000403,420,4811.43,-94.8,7.0,-75.5,0.38,0.96,0.12,0.09,-0.98,-0.07,-207.9,-0.6,2.0,1.12,-0.01,0.15,0.0,0.986610358753647,1.0394229168149027,0.01038567490668374,0.28,0,0,0.0
6.253147447000629,421,4811.44,-94.7,6.9,-75.4,0.34,0.94,0.1,0.1,-0.97,-0.07,-207.9,0.6,0.0,1.12,0.0,0.21,0.0,0.9776502442080194,1.0045894683899488,0.018958873663265097,0.28,0,0,0.0
6.261598284000684,422,4811.45,-94.7,6.9,-75.3,0.35,0.94,0.07,0.1,-0.98,-0.08,-207.9,-0.2,1.0,1.12,0.0,0.33,0.0,0.9883319280484669,1.0054849576199536,0.008111646026361163,0.28,0,0,0.0
6.27311860700047,423,4811.46,-94.6,6.9,-75.2,0.37,0.99,0.0,0.1,-0.98,-0.11,-207.9,0.1,-3.0,1.12,0.0,-0.15,0.0,0.9912113800799505,1.0568822072492279,0.005127550114980117,0.28,0,0,0.0
6.281632351000553,424,4811.47,-94.6,6.9,-75.1,0.47,1.02,-0.09,0.09,-0.99,-0.1,-207.9,-0.1,1.0,1.12,0.0,0.33,0.0,0.9990995946350895,1.1266765285564442,0.0027054511513556756,0.28,0,0,0.0
6.292968492,425,4811.48,-94.5,6.9,-75.0,0.51,0.92,-0.18,0.08,-0.99,-0.08,-207.9,0.0,2.0,1.12,0.0,-0.03,0.0,0.9964436762808021,1.0671925786848409,4.854214112692823e-05,0.28,0,0,0.0
6.301731242000642,426,4811.49,-94.5,6.9,-74.9,0.45,0.77,-0.23,0.07,-0.98,-0.06,-207.9,0.0,-3.0,1.12,0.0,0.0,0.0,0.9843271813782245,0.9210320298447824,0.011826593706221633,0.28,0,0,0.0
6.313055657000405,427,4811.5,-94.4,6.9,-74.9,0.43,0.6,-0.24,0.07,-0.98,-0.06,-207.9,-0.1,2.0,1.12,0.0,0.09,0.0,0.9843271813782245,0.7762087348130011,0.01159006183209721,0.28,0,0,0.0
6.321474635000413,428,4811.51,-94.3,6.9,-74.8,0.49,0.45,-0.25,0.08,-0.98,-0.06,-207.9,0.0,-3.0,1.12,0.0,0.03,0.0,0.9850888284819801,0.7107038764492565,0.010611846433774774,0.28,0,0,0.0
6.333169660000749,429,4811.52,-94.3,6.9,-74.8,0.51,0.33,-0.2,0.08,-0.96,-0.05,-207.9,0.1,10.0,1.12,-0.03,0.09,0.0,0.9646242791885346,0.6395310782127793,0.030454867812675923,0.28,0,0,0.0
6.341681494000113,430,4811.53,-94.2,6.9,-74.8,0.43,0.21,-0.13,0.08,-0.96,-0.05,-207.9,-0.2,-4.0,1.12,0.0,0.03,0.0,0.9646242791885346,0.4958830507286975,0.02984577045642245,0.28,0,0,0.0
6.352930966000713,431,4811.54,-94.2,6.9,-74.7,0.31,0.11,-0.06,0.08,-0.96,-0.05,-207.9,0.1,0.0,1.12,0.0,0.3,0.0,0.9646242791885346,0.3343650699460098,0.02924885504729402,0.28,0,0,0.0
6.361596948000624,432,4811.55,-94.1,6.9,-74.7,0.25,0.03,0.0,0.08,-0.97,-0.05,-207.9,-0.2,0.0,1.12,0.0,-0.11,0.0,0.9745768312452333,0.25179356624028343,0.018910376930783346,0.28,0,0,0.0
6.3731153590006215,433,4811.56,-94.1,6.9,-74.7,0.21,-0.02,0.03,0.08,-0.98,-0.05,-207.9,0.0,0.0,1.12,0.0,-0.11,0.0,0.9845303448853163,0.21307275752662513,0.008777726024886356,0.28,0,0,0.0
6.381573962000402,434,4811.57,-94.1,6.9,-74.7,0.24,-0.1,0.03,0.09,-0.97,-0.05,-207.9,-0.1,1.0,1.12,0.0,-0.02,0.0,0.9754486147409304,0.261725046566048,0.017502267045886866,0.28,0,0,0.0
6.393183253000643,435,4811.58,-94.0,6.9,-74.7,0.15,-0.15,0.07,0.09,-0.97,-0.07,-207.9,0.3,-1.0,1.12,0.0,-0.24,0.0,0.9766780431646859,0.22338307903688676,0.01594738184968869,0.28,0,0,0.0
6.401650675000383,436,4811.59,-94.0,6.8,-74.8,0.21,-0.11,0.06,0.1,-0.98,-0.08,-207.9,0.0,4.0,1.12,-0.02,0.06,0.0,0.9883319280484669,0.24454038521274965,0.0042076270265895,0.28,0,0,0.0
6.413063204000537,437,4811.6,-94.0,6.8,-74.8,0.14,-0.07,0.09,0.11,-0.97,-0.07,-207.9,0.0,-8.0,1.12,0.02,0.0,0.0,0.9787236586493656,0.18055470085267789,0.013539578497177018,0.28,0,0,0.0
6.421600646000115,438,4811.61,-94.0,6.8,-74.8,0.06,-0.02,0.08,0.12,-0.97,-0.07,-207.9,0.0,4.0,1.12,0.0,-0.14,0.0,0.9798979538707079,0.1019803902718557,0.012117977610318076,0.28,0,0,0.0
6.433044910000717,439,4811.62,-94.0,6.8,-74.8,-0.04,0.04,0.08,0.13,-0.96,-0.08,-207.9,0.0,0.0,1.12,0.0,0.03,0.0,0.97205966895042,0.09797958971132713,0.019557137279993864,0.28,0,0,0.0
6.441640118000578,440,4811.63,-94.0,6.8,-74.8,-0.15,0.14,0.09,0.14,-0.95,-0.08,-207.9,-0.1,-3.0,1.12,0.01,-0.14,0.0,0.9635870484808313,0.22405356502408078,0.027469162594590868,0.28,0,0,0.0
6.453055784000753,441,4811.64,-94.1,6.8,-74.7,-0.25,0.22,0.11,0.14,-0.95,-0.08,-207.9,-0.2,2.0,1.12,0.0,0.06,0.0,0.9635870484808313,0.3507135583350036,0.02691977934269907,0.28,0,0,0.0
6.461552299000687,442,4811.65,-94.1,6.8,-74.7,-0.32,0.29,0.12,0.14,-0.95,-0.08,-207.9,-0.2,-2.0,1.12,0.0,0.06,0.0,0.9635870484808313,0.4482186966202994,0.02638138375584509,0.28,0,0,0.0
6.473075676000008,443,4811.66,-94.1,6.9,-74.7,-0.37,0.35,0.14,0.14,-0.95,-0.08,-207.9,-0.4,-8.0,1.12,0.03,0.0,0.0,0.9635870484808313,0.5282045058497703,0.025853756080728152,0.28,0,0,0.0
6.481574652000745,444,4811.67,-94.2,6.9,-74.6,-0.43,0.41,0.16,0.13,-0.96,-0.08,-208.0,-1.9,-8.0,1.13,0.05,-0.08,0.0,0.97205966895042,0.6153048025166064,0.017033512898916747,0.28,0,0,0.0
6.493132639000578,445,4811.68,-94.2,6.8,-74.6,-0.46,0.45,0.17,0.12,-0.96,-0.08,-208.0,-2.7,-6.0,1.13,0.07,0.0,0.0,0.9707728879609278,0.6655824516917495,0.017953888010640795,0.28,0,0,0.0
6.5016616110006,446,4811.69,-94.3,6.8,-74.6,-0.5,0.42,0.17,0.11,-0.97,-0.07,-208.0,-2.1,8.0,1.13,0.03,0.0,0.0,0.9787236586493656,0.6747592163134936,0.00980305497575884,0.28,0,0,0.0
6.513122371999998,447,4811.7,-94.3,6.8,-74.5,-0.57,0.4,0.2,0.11,-0.98,-0.08,-208.0,-0.5,8.0,1.13,0.0,-0.06,0.0,0.9893937537704591,0.7244998274671982,0.0008496993424279564,0.28,0,0,0.0
6.5216002810002465,448,4811.71,-94.4,6.8,-74.5,-0.56,0.34,0.2,0.1,-0.98,-0.07,-208.0,-0.4,4.0,1.13,0.0,-0.07,0.0,0.9875727821279806,0.6849817515817483,0.0009518468540495872,0.28,0,0,0.0
6.53322265099996,449,4811.72,-94.4,6.8,-74.4,-0.52,0.27,0.21,0.09,-0.99,-0.07,-208.0,0.2,0.0,1.13,0.0,-0.06,0.0,0.9965440281292142,0.6224146527838175,0.00785901116424026,0.28,0,0,0.0
6.541445482000199,450,4811.73,-94.5,6.7,-74.4,-0.49,0.2,0.21,0.09,-0.99,-0.07,-208.0,-0.7,3.0,1.13,0.0,0.0,0.0,0.9965440281292142,0.5693856338194704,0.007701830940955445,0.28,0,0,0.0
6.553184063000117,451,4811.74,-94.5,6.7,-74.4,-0.46,0.12,0.21,0.09,-0.99,-0.07,-208.0,-0.7,-6.0,1.13,0.03,0.17,0.0,0.9965440281292142,0.5197114584074514,0.00754779432213637,0.28,0,0,0.0
6.561631051000404,452,4811.75,-94.6,6.7,-74.4,-0.47,0.03,0.21,0.09,-0.98,-0.08,-208.0,-1.7,-8.0,1.13,0.05,0.17,0.0,0.9873702446397703,0.5156549233741495,0.0015934693839613212,0.28,0,0,0.0
6.572975499000677,453,4811.76,-94.6,6.6,-74.4,-0.48,-0.03,0.21,0.09,-0.98,-0.08,-208.1,-0.9,4.0,1.13,0.02,0.0,0.0,0.9873702446397703,0.524785670536077,0.001561599996282137,0.28,0,0,0.0
6.58163486400008,454,4811.77,-94.7,6.6,-74.4,-0.47,-0.06,0.21,0.1,-0.98,-0.08,-208.1,-2.5,-8.0,1.13,0.06,-0.23,0.0,0.9883319280484669,0.5182663407939975,0.0005879182558338192,0.28,0,0,0.0
6.593196006000653,455,4811.78,-94.7,6.6,-74.4,-0.47,-0.09,0.23,0.1,-0.98,-0.08,-208.1,-3.4,-7.0,1.13,0.09,0.09,0.0,0.9883319280484669,0.5309425580983314,0.0005761598907171317,0.28,0,0,0.0
6.6015961400007654,456,4811.79,-94.8,6.5,-74.4,-0.46,-0.1,0.23,0.1,-0.99,-0.08,-208.2,-6.1,-36.0,1.13,0.25,0.0,0.0,0.9982484660644363,0.5239274758971895,0.009153570562747237,0.28,0,0,0.0
6.613148287000513,457,4811.8,-94.8,6.5,-74.4,-0.48,-0.08,0.2,0.11,-0.99,-0.09,-208.3,-13.1,-52.0,1.14,0.41,0.08,0.0,1.0001499887516871,0.5261178575186362,0.010833991384998187,0.28,0,0,0.0
6.621561266000754,458,4811.81,-94.9,6.5,-74.4,-0.54,-0.06,0.19,0.11,-0.99,-0.08,-208.4,-15.6,-19.0,1.14,0.41,0.0,0.0,0.9992997548283498,0.5755866572463264,0.009784082312427556,0.28,0,0,0.0
6.633246668000538,459,4811.82,-94.9,6.5,-74.4,-0.54,-0.06,0.17,0.11,-0.99,-0.08,-208.6,-12.0,23.0,1.14,0.28,-0.06,0.0,0.9992997548283498,0.5692978130996114,0.009588400666179053,0.28,0,0,0.0
6.64165092300027,460,4811.83,-95.0,6.5,-74.4,-0.58,-0.04,0.17,0.11,-0.98,-0.08,-208.7,-10.7,2.0,1.15,0.31,0.08,0.0,0.9893937537704591,0.6057227088363123,0.000311248383877305,0.28,0,0,0.0
6.653165931000331,461,4811.84,-95.1,6.4,-74.4,-0.64,-0.01,0.19,0.11,-0.98,-0.09,-208.8,-12.6,-10.0,1.15,0.36,-0.11,0.0,0.9902524930541705,0.667682559304944,0.0005365410818374272,0.28,0,0,0.0
6.661623118000534,462,4811.85,-95.1,6.4,-74.4,-0.67,0.01,0.19,0.11,-0.99,-0.09,-208.9,-13.9,0.0,1.15,0.34,0.07,0.0,1.0001499887516871,0.696491205974634,0.010225356043766953,0.28,0,0,0.0
6.673108841000612,463,4811.86,-95.2,6.4,-74.4,-0.68,0.03,0.22,0.11,-0.98,-0.09,-209.0,-11.3,7.0,1.16,0.32,0.08,0.0,0.9902524930541705,0.7153320907103218,0.00032130313932532406,0.28,0,0,0.0
6.697157624000283,465,4811.88,-95.3,6.3,-74.4,-0.62,0.07,0.34,0.11,-0.98,-0.09,-209.3,-15.0,-16.0,1.16,0.42,-0.08,0.0,0.9902524930541705,0.7105631569396207,0.0003148770765387665,0.28,0,0,0.0
6.705708630000117,466,4811.89,-95.4,6.3,-74.4,-0.65,0.09,0.38,0.1,-0.97,-0.09,-209.4,-12.9,14.0,1.17,0.33,-0.15,0.0,0.9792854537876073,0.7582875444051551,0.010439118946223958,0.28,0,0,0.0
6.713636643000427,467,4811.9,-95.5,6.3,-74.4,-0.71,0.14,0.39,0.11,-0.96,-0.09,-209.6,-14.1,-10.0,1.17,0.41,-0.07,0.0,0.9704638066409277,0.8220705565825843,0.018875550771045524,0.28,0,0,0.0
6.72155713400025,468,4811.91,-95.5,6.2,-74.4,-0.78,0.19,0.39,0.11,-0.97,-0.09,-209.7,-16.6,-22.0,1.18,0.48,-0.08,0.0,0.9803570778037969,0.8925245094673872,0.008802634016012778,0.28,0,0,0.0
6.733194002000346,469,4811.92,-95.6,6.2,-74.3,-0.81,0.24,0.39,0.11,-0.97,-0.09,-209.9,-17.3,-12.0,1.18,0.5,-0.03,0.0,0.9803570778037969,0.9304837451562494,0.008626581335692496,0.28,0,0,0.0
6.7416614359999585,470,4811.93,-95.7,6.2,-74.3,-0.89,0.31,0.43,0.1,-0.96,-0.09,-210.1,-18.8,-6.0,1.19,0.5,0.16,0.0,0.9693812459502195,1.035905401086412,0.019210364925484558,0.28,0,0,0.0
6.753146726000523,471,4811.94,-95.8,6.1,-74.3,-1.03,0.37,0.49,0.1,-0.97,-0.09,-210.3,-19.4,-11.0,1.19,0.54,0.29,0.0,0.9792854537876073,1.1991246807567593,0.00912003394633476,0.28,0,0,0.0
6.761508382000102,472,4811.95,-95.9,6.1,-74.2,-1.07,0.44,0.58,0.1,-0.97,-0.09,-210.5,-23.2,-26.0,1.2,0.66,0.0,0.0,0.9792854537876073,1.2941792766073794,0.00893763326740804,0.28,0,0,0.0
6.773095309999917,473,4811.96,-96.0,6.0,-74.2,-1.04,0.49,0.65,0.11,-0.98,-0.1,-210.7,-24.5,-12.0,1.2,0.67,-0.05,0.0,0.9912113800799505,1.3206816421833083,0.0029285271644363675,0.28,0,0,0.0
6.781596298000295,474,4811.97,-96.1,6.0,-74.1,-1.01,0.55,0.7,0.11,-0.98,-0.09,-211.0,-26.0,-14.0,1.21,0.71,0.0,0.0,0.9902524930541705,1.3463283403390125,0.0019302473358833172,0.28,0,0,0.0
6.793069809999906,475,4811.98,-96.2,5.9,-74.0,-0.97,0.58,0.74,0.11,-0.98,-0.1,-211.3,-26.4,-8.0,1.22,0.73,0.0,0.0,0.9912113800799505,1.3508885964430968,0.0028313516744300493,0.28,0,0,0.0
6.801632411000355,476,4811.99,-96.3,5.8,-74.0,-0.94,0.64,0.78,0.11,-0.98,-0.1,-211.5,-26.4,8.0,1.23,0.67,-0.09,0.0,0.9912113800799505,1.3789851340750559,0.0027747246409414172,0.28,0,0,0.0
6.813125507000223,477,4812.0,-96.3,5.8,-73.9,-0.96,0.72,0.81,0.12,-0.99,-0.11,-211.7,-24.9,11.0,1.23,0.66,-0.33,0.0,1.0032945728947207,1.4477914214416383,0.014560759106597376,0.28,0,0,0.0
6.82149696200031,478,4812.01,-96.4,5.7,-73.8,-0.93,0.83,0.83,0.12,-0.99,-0.1,-212.0,-24.0,11.0,1.24,0.63,0.06,0.0,1.0022474744293446,1.4975646897546697,0.013243387428396813,0.28,0,0,0.0
6.833046255000227,479,4812.02,-96.5,5.7,-73.7,-0.82,0.93,0.86,0.12,-0.99,-0.1,-212.2,-22.4,14.0,1.24,0.59,0.0,0.0,1.0022474744293446,1.5089400253157843,0.012978519679828882,0.28,0,0,0.0
6.841803545000403,480,4812.03,-96.6,5.6,-73.6,-0.75,1.04,0.88,0.13,-0.98,-0.1,-212.4,-19.9,33.0,1.25,0.46,0.0,0.0,0.9936297097007516,1.5551527256189341,0.004273539852211128,0.28,0,0,0.0
6.85322885000005,481,4812.04,-96.6,5.5,-73.5,-0.75,1.17,0.92,0.12,-0.98,-0.1,-212.6,-16.5,20.0,1.25,0.44,-0.13,0.0,0.9923708984044222,1.6666733333200001,0.0029544339847640266,0.28,0,0,0.0
6.861687395000445,482,4812.05,-96.7,5.5,-73.3,-0.75,1.3,0.95,0.12,-0.99,-0.1,-212.8,-14.3,24.0,1.26,0.35,0.0,0.0,1.0022474744293446,1.7762319668331612,0.01257438980949277,0.28,0,0,0.0
6.8731636150005215,483,4812.06,-96.7,5.4,-73.2,-0.73,1.41,0.97,0.11,-0.98,-0.1,-212.9,-12.1,28.0,1.26,0.28,0.18,0.0,0.9912113800799505,1.8606181768433845,0.0015075295508967246,0.28,0,0,0.0
6.881636711000283,484,4812.07,-96.8,5.4,-73.0,-0.76,1.48,1.01,0.11,-0.98,-0.1,-213.0,-10.1,9.0,1.26,0.3,-0.1,0.0,0.9912113800799505,1.9463041899970313,0.0014773789598787612,0.28,0,0,0.0
6.893418839000333,485,4812.08,-96.8,5.3,-72.9,-0.73,1.53,1.04,0.1,-0.98,-0.1,-213.1,-10.1,17.0,1.27,0.22,-0.17,0.0,0.990151503558925,1.988818744883505,0.0004091523900762173,0.28,0,0,0.0
6.9017115860006015,486,4812.09,-96.9,5.2,-72.7,-0.73,1.59,1.07,0.1,-0.98,-0.11,-213.2,-6.5,28.0,1.27,0.13,0.09,0.0,0.9912113800799505,2.0508291006322295,0.0014396483328796839,0.28,0,0,0.0
6.913114935000522,487,4812.1,-96.9,5.1,-72.5,-0.71,1.64,1.11,0.1,-0.98,-0.1,-213.2,-4.2,15.0,1.27,0.11,0.18,0.0,0.990151503558925,2.103758541277967,0.00037217637561715033,0.28,0,0,0.0
6.921628077000605,488,4812.11,-97.0,5.0,-72.3,-0.64,1.67,1.13,0.1,-0.98,-0.11,-213.3,-5.4,-4.0,1.27,0.16,0.0,0.0,0.9912113800799505,2.115514121909849,0.0014034118387097338,0.28,0,0,0.0
6.933172220000415,489,4812.12,-97.0,4.9,-72.1,-0.62,1.75,1.11,0.1,-0.99,-0.11,-213.3,-6.8,-9.0,1.27,0.19,0.0,0.0,1.0010993956645864,2.1630996278488888,0.01106559887487879,0.28,0,0,0.0
6.941512844000499,490,4812.13,-97.1,4.9,-71.9,-0.64,1.83,1.12,0.1,-0.98,-0.11,-213.4,-9.6,-36.0,1.28,0.35,-0.05,0.0,0.9912113800799505,2.2389506470666123,0.0011540316244380566,0.28,0,0,0.0
6.953054212000097,491,4812.14,-97.1,4.8,-71.7,-0.7,1.92,1.14,0.1,-0.98,-0.11,-213.6,-14.5,-21.0,1.28,0.36,-0.09,0.0,0.9912113800799505,2.3400854685246006,0.0011309509919492644,0.28,0,0,0.0
6.961647359000381,492,4812.15,-97.1,4.7,-71.5,-0.67,1.97,1.1,0.09,-0.99,-0.1,-213.7,-12.5,9.0,1.28,0.3,0.0,0.0,0.9990995946350895,2.353677972875644,0.008838782236146536,0.28,0,0,0.0
6.973077268000452,493,4812.16,-97.2,4.6,-71.3,-0.63,2.01,1.09,0.1,-0.99,-0.1,-213.8,-8.0,37.0,1.28,0.16,0.06,0.0,1.0000499987500624,2.371729326883656,0.009593402624097136,0.28,0,0,0.0
6.981698995999977,494,4812.17,-97.2,4.6,-71.1,-0.58,2.05,1.07,0.1,-1.0,-0.11,-213.9,-5.4,18.0,1.29,0.14,-0.06,0.0,1.0109896141899777,2.3840721465593275,0.020122357702732185,0.28,0,0,0.0
6.99301883499993,495,4812.18,-97.2,4.5,-70.9,-0.46,2.14,1.03,0.1,-1.01,-0.11,-213.9,-6.4,-1.0,1.29,0.18,0.03,0.0,1.0208819716304134,2.41911140710799,0.029414420840304545,0.28,0,0,0.0
7.001663277000262,496,4812.19,-97.3,4.4,-70.7,-0.41,2.2,1.0,0.09,-1.0,-0.1,-214.0,-5.4,16.0,1.29,0.09,0.08,0.0,1.0090094152187083,2.4511425907115236,0.017191027140027515,0.28,0,0,0.0
7.013259986000776,497,4812.2,-97.3,4.4,-70.4,-0.37,2.25,0.98,0.08,-1.0,-0.11,-214.0,-2.0,25.0,1.29,0.03,-0.07,0.0,1.0092076099594176,2.481894437722926,0.01704143744312203,0.28,0,0,0.0
7.021586769999885,498,4812.21,-97.3,4.3,-70.2,-0.36,2.3,0.95,0.08,-0.99,-0.11,-214.0,-0.8,12.0,1.29,0.01,0.0,0.0,0.9992997548283498,2.514378650879775,0.006990910665813144,0.28,0,0,0.0
7.0332300820000455,499,4812.22,-97.3,4.3,-69.9,-0.34,2.32,0.94,0.07,-0.99,-0.1,-214.0,-0.2,4.0,1.29,0.01,0.1,0.0,0.9974968671630001,2.5261828912412496,0.005084262540454243,0.28,0,0,0.0
7.041628339999988,500,4812.23,-97.3,4.2,-69.7,-0.31,2.33,0.9,0.07,-1.0,-0.11,-214.0,0.0,3.0,1.29,0.0,0.1,0.0,1.0084641788382966,2.516942589730644,0.015730542731435704,0.28,0,0,0.0
7.0533853720007755,501,4812.24,-97.3,4.1,-69.4,-0.28,2.3,0.85,0.07,-1.0,-0.1,-214.0,-0.6,1.0,1.29,0.0,0.0,0.0,1.007422453591342,2.4679748783162276,0.014395041134791509,0.28,0,0,0.0
7.061747194999953,502,4812.25,-97.3,4.1,-69.2,-0.28,2.31,0.82,0.06,-0.99,-0.11,-214.0,-1.0,0.0,1.29,0.02,-0.03,0.0,0.9978977903573091,2.4671643642043795,0.004772970342743377,0.28,0,0,0.0
7.073015744000259,503,4812.26,-97.3,4.0,-69.0,-0.31,2.3,0.82,0.06,-0.98,-0.1,-214.0,-1.4,-5.0,1.29,0.05,0.05,0.0,0.9869143833180262,2.4614020394888763,0.006086227962608715,0.28,0,0,0.0
7.08166395400076,504,4812.27,-97.3,4.0,-68.7,-0.34,2.32,0.8,0.06,-0.98,-0.1,-214.1,-1.8,-6.0,1.29,0.06,-0.04,0.0,0.9869143833180262,2.4774987386475096,0.005964503403356525,0.28,0,0,0.0
7.093093004000366,505,4812.28,-97.3,3.9,-68.5,-0.34,2.33,0.82,0.06,-0.98,-0.1,-214.1,-2.8,-7.0,1.29,0.08,0.0,0.0,0.9869143833180262,2.4933712118334888,0.005845213335289423,0.28,0,0,0.0
7.101660858000287,506,4812.29,-97.3,3.9,-68.2,-0.34,2.35,0.81,0.06,-0.99,-0.1,-214.1,-4.3,-15.0,1.29,0.13,0.06,0.0,0.9968450230602548,2.508824425901502,0.0040037178788003835,0.28,0,0,0.0
7.113150807000238,507,4812.3,-97.3,3.8,-68.0,-0.35,2.36,0.78,0.06,-1.0,-0.1,-214.2,-4.9,-2.0,1.3,0.12,0.07,0.0,1.0067770358922576,2.5100796800101786,0.013657016096587205,0.28,0,0,0.0
7.121594724000715,508,4812.31,-97.3,3.8,-67.7,-0.32,2.38,0.74,0.05,-1.0,-0.1,-214.2,-2.9,9.0,1.3,0.07,0.01,0.0,1.0062305898749053,2.512846990964631,0.012848358677650218,0.28,0,0,0.0
7.133196900000257,509,4812.32,-97.3,3.7,-67.5,-0.24,2.42,0.69,0.05,-1.01,-0.11,-214.2,-1.8,10.0,1.3,0.03,0.08,0.0,1.0172020448268868,2.527864711569826,0.023343417357039042,0.28,0,0,0.0
7.141651068000101,510,4812.33,-97.3,3.7,-67.2,-0.18,2.46,0.67,0.05,-1.0,-0.1,-214.3,-1.9,-3.0,1.3,0.07,-0.1,0.0,1.0062305898749053,2.5559538336988794,0.012124523156956446,0.28,0,0,0.0
7.153203957000187,511,4812.34,-97.3,3.6,-67.0,-0.14,2.46,0.67,0.05,-1.0,-0.09,-214.3,-3.6,-12.0,1.3,0.12,-0.16,0.0,1.0052860289489753,2.5534486483969085,0.010956362986405899,0.28,0,0,0.0
7.161630974000218,512,4812.35,-97.3,3.6,-66.7,-0.15,2.46,0.67,0.05,-1.0,-0.09,-214.4,-7.6,-44.0,1.3,0.29,0.04,0.0,1.0052860289489753,2.55401644473954,0.01073723572667773,0.28,0,0,0.0
7.173154858000089,513,4812.36,-97.2,3.6,-66.5,-0.16,2.47,0.67,0.05,-1.0,-0.09,-214.5,-11.9,-28.0,1.3,0.35,0.0,0.0,1.0052860289489753,2.564254277562972,0.010522491012144197,0.28,0,0,0.0
7.181715745000474,514,4812.37,-97.2,3.5,-66.2,-0.17,2.5,0.67,0.06,-0.99,-0.1,-214.6,-12.0,0.0,1.31,0.28,-0.32,0.0,0.9968450230602548,2.5938003007170773,0.0020398554209551945,0.28,0,0,0.0
7.193101200000456,515,4812.38,-97.2,3.5,-66.0,-0.16,2.53,0.67,0.05,-0.98,-0.1,-214.7,-7.3,36.0,1.31,0.13,0.07,0.0,0.9863569333664157,2.622098396323067,0.008279269587426197,0.28,0,0,0.0
7.201634835000732,516,4812.39,-97.2,3.4,-65.7,-0.23,2.57,0.67,0.06,-0.98,-0.1,-214.7,-4.0,18.0,1.31,0.12,-0.06,0.0,0.9869143833180262,2.6658394550310036,0.007567383243099468,0.28,0,0,0.0
7.21317673700014,517,4812.4,-97.2,3.4,-65.4,-0.23,2.58,0.66,0.05,-0.99,-0.1,-214.8,-5.3,-8.0,1.31,0.19,0.06,0.0,0.9962931295557548,2.67299457537796,0.0017751357347365326,0.28,0,0,0.0
7.221605106000425,518,4812.41,-97.2,3.4,-65.2,-0.2,2.59,0.63,0.04,-0.99,-0.1,-214.8,-8.4,-21.0,1.31,0.25,-0.17,0.0,0.9958413528268446,2.673013280924732,0.0012968918257098005,0.28,0,0,0.0
7.233114364999892,519,4812.42,-97.2,3.3,-64.9,-0.23,2.59,0.6,0.03,-0.99,-0.1,-214.9,-9.8,-10.0,1.32,0.26,0.01,0.0,0.9954898291795853,2.6685201891685213,0.0009264608148814579,0.28,0,0,0.0
7.241623219000758,520,4812.43,-97.2,3.3,-64.6,-0.24,2.57,0.57,0.03,-1.0,-0.09,-215.0,-9.4,5.0,1.32,0.22,0.09,0.0,1.0044899203078146,2.6433690623898887,0.009728020904248513,0.28,0,0,0.0
7.253195480000613,521,4812.44,-97.2,3.3,-64.4,-0.24,2.54,0.52,0.02,-1.0,-0.09,-215.1,-4.7,37.0,1.32,0.06,0.0,0.0,1.0042410069301093,2.6037665025881256,0.009289525376012353,0.28,0,0,0.0
7.26159715599988,522,4812.45,-97.2,3.2,-64.1,-0.25,2.51,0.5,0.03,-0.99,-0.1,-215.1,-0.5,30.0,1.32,0.0,0.0,0.0,0.9954898291795853,2.5714976181206155,0.0005275806729785337,0.28,0,0,0.0
7.2732015970004795,523,4812.46,-97.2,3.2,-63.9,-0.29,2.5,0.5,0.03,-0.99,-0.1,-215.1,0.2,9.0,1.32,0.0,0.0,0.0,0.9954898291795853,2.5659501164286107,0.000517029059519003,0.28,0,0,0.0
7.281688682000095,524,4812.47,-97.2,3.2,-63.6,-0.26,2.48,0.5,0.02,-0.99,-0.09,-215.1,0.0,5.0,1.32,0.0,-0.05,0.0,0.9942836617384396,2.543226297441893,0.0006753556139941219,0.28,0,0,0.0
7.293586358000539,525,4812.48,-97.2,3.1,-63.3,-0.21,2.43,0.5,0.02,-1.0,-0.09,-215.1,-0.1,-2.0,1.32,0.0,0.12,0.0,1.0042410069301093,2.489779106667899,0.00909634978612206,0.28,0,0,0.0
7.301638245000504,526,4812.49,-97.1,3.1,-63.1,-0.21,2.39,0.5,0.02,-0.99,-0.1,-215.1,0.1,0.0,1.32,0.0,-0.05,0.0,0.995238664843765,2.450754985713586,9.212754578213911e-05,0.28,0,0,0.0
7.313208960999873,527,4812.5,-97.1,3.0,-62.9,-0.23,2.35,0.52,0.01,-0.99,-0.1,-215.1,0.0,3.0,1.32,-0.01,0.0,0.0,0.9950879358127099,2.417808925452961,5.7429455567414855e-05,0.28,0,0,0.0
7.3215999320000265,528,4812.51,-97.1,3.0,-62.6,-0.19,2.3,0.52,0.01,-0.99,-0.09,-215.1,0.1,0.0,1.32,0.0,-0.03,0.0,0.9941327879111522,2.3656922876824025,0.0009923258099826526,0.28,0,0,0.0
7.333309878000364,529,4812.52,-97.1,2.9,-62.4,-0.11,2.23,0.54,0.0,-0.99,-0.1,-215.1,0.0,0.0,1.32,0.0,-0.04,0.0,0.9950376877284598,2.2970851094376106,8.567747282162141e-05,0.28,0,0,0.0
7.341666228000577,530,4812.53,-97.1,2.9,-62.2,-0.09,2.14,0.55,0.0,-0.98,-0.1,-215.1,0.1,2.0,1.32,0.0,-0.05,0.0,0.9850888284819801,2.211379659850384,0.009833845984915324,0.28,0,0,0.0
7.35308577700016,531,4812.54,-97.1,2.9,-61.9,-0.14,2.08,0.5,0.01,-0.99,-0.1,-215.1,-0.1,0.0,1.32,0.0,-0.05,0.0,0.9950879358127099,2.1438283513378584,0.00016195611889824324,0.28,0,0,0.0
7.361664523999934,532,4812.55,-97.1,2.8,-61.7,-0.11,2.01,0.44,0.01,-0.99,-0.1,-215.1,0.1,2.0,1.32,0.0,0.01,0.0,0.9950879358127099,2.06053391139287,0.0001587169965202584,0.28,0,0,0.0
7.373127679999925,533,4812.56,-97.1,2.8,-61.5,-0.1,1.91,0.42,0.01,-0.98,-0.1,-215.1,0.0,1.0,1.32,-0.01,-0.07,0.0,0.9851395840184273,1.9581879378650047,0.009593842101807137,0.28,0,0,0.0
7.381652077000581,534,4812.57,-97.1,2.7,-61.3,-0.15,1.8,0.44,0.01,-0.98,-0.11,-215.1,0.0,1.0,1.32,0.0,-0.04,0.0,0.9862048468751307,1.8590589017026868,0.008358007660201672,0.28,0,0,0.0
7.393197422999947,535,4812.58,-97.1,2.7,-61.2,-0.18,1.75,0.42,0.01,-0.99,-0.12,-215.1,0.0,-2.0,1.32,0.0,-0.04,0.0,0.9972963451251589,1.8086735471057236,0.0026788207780299444,0.28,0,0,0.0
7.401641342000403,536,4812.59,-97.1,2.7,-61.0,-0.13,1.69,0.4,0.01,-0.98,-0.1,-215.1,0.1,4.0,1.32,-0.02,-0.06,0.0,0.9851395840184273,1.7415510328439991,0.009288381522127631,0.28,0,0,0.0
7.4130649280004945,537,4812.6,-97.1,2.6,-60.8,-0.11,1.6,0.37,0.01,-0.98,-0.11,-215.1,0.1,0.0,1.32,0.0,0.01,0.0,0.9862048468751307,1.6459040069214246,0.008058656292115773,0.28,0,0,0.0
7.421620464000625,538,4812.61,-97.1,2.6,-60.7,-0.12,1.5,0.36,0.01,-0.98,-0.11,-215.1,-0.1,-3.0,1.32,0.0,-0.15,0.0,0.9862048468751307,1.5472556349873152,0.007897483166273478,0.28,0,0,0.0
7.433183789000395,539,4812.62,-97.1,2.5,-60.5,-0.16,1.45,0.35,0.0,-0.99,-0.11,-215.1,0.1,-1.0,1.32,0.0,-0.03,0.0,0.9960923651951158,1.5001999866684441,0.001950234450637467,0.28,0,0,0.0
7.441450991000238,540,4812.63,-97.1,2.5,-60.4,-0.17,1.34,0.31,0.0,-1.0,-0.11,-215.1,0.0,0.0,1.32,0.0,0.1,0.0,1.0060318086422517,1.3858571354941318,0.011651884339817897,0.28,0,0,0.0
7.453234796000288,541,4812.64,-97.1,2.5,-60.2,-0.18,1.28,0.26,0.01,-1.0,-0.11,-215.1,-0.1,2.0,1.32,-0.01,0.01,0.0,1.006081507632458,1.318483977907961,0.011467551663423725,0.28,0,0,0.0
7.4616793160003,542,4812.65,-97.1,2.4,-60.1,-0.14,1.22,0.24,0.01,-1.0,-0.11,-215.1,0.0,0.0,1.32,0.0,-0.06,0.0,1.006081507632458,1.2512393855693642,0.011238200630155237,0.28,0,0,0.0
7.473101103000772,543,4812.66,-97.1,2.4,-60.0,-0.08,1.14,0.21,0.01,-1.0,-0.1,-215.1,0.0,0.0,1.32,0.0,0.01,0.0,1.0050373127401788,1.1619380362136356,0.009990125623118518,0.28,0,0,0.0
7.48568107400024,544,4812.67,-97.1,2.4,-59.9,-0.06,1.03,0.2,0.01,-0.98,-0.11,-215.1,0.0,0.0,1.32,0.0,-0.11,0.0,0.9862048468751307,1.050951949424901,0.008665493437090999,0.28,0,0,0.0
7.493623102000129,545,4812.68,-97.1,2.4,-59.8,-0.1,0.97,0.2,0.01,-0.98,-0.12,-215.1,0.1,0.0,1.32,0.0,0.04,0.0,0.9873702446397703,0.9954396013822235,0.0073500937590023074,0.28,0,0,0.0
7.5016305700000885,546,4812.69,-97.1,2.4,-59.7,-0.17,0.91,0.23,0.0,-0.98,-0.12,-215.1,0.0,-1.0,1.32,0.0,0.0,0.0,0.9873196037757985,0.9538867857350788,0.007252719930514573,0.28,0,0,0.0
7.513053113000751,547,4812.7,-97.1,2.3,-59.6,-0.25,0.84,0.25,0.0,-0.99,-0.12,-215.1,0.1,1.0,1.32,0.0,0.02,0.0,0.9972462083156797,0.9113725912051557,0.002620406917179241,0.28,0,0,0.0
7.521592716000669,548,4812.71,-97.2,2.3,-59.5,-0.24,0.73,0.23,0.0,-1.01,-0.11,-215.1,-0.1,0.0,1.32,0.0,0.07,0.0,1.0159724405711013,0.802122185206219,0.020919706389148862,0.28,0,0,0.0
7.533197953000126,549,4812.72,-97.2,2.2,-59.4,-0.14,0.62,0.18,0.0,-1.01,-0.11,-215.1,0.1,2.0,1.32,0.0,0.02,0.0,1.0159724405711013,0.6606057825965498,0.020501312261365867,0.28,0,0,0.0
7.541621674000453,550,4812.73,-97.2,2.2,-59.4,-0.05,0.51,0.14,0.0,-1.0,-0.11,-215.1,-0.2,2.0,1.32,0.0,0.01,0.0,1.0060318086422517,0.5312249994117371,0.010349466725866008,0.28,0,0,0.0
7.553193452999949,551,4812.74,-97.2,2.2,-59.3,0.0,0.43,0.11,0.0,-0.99,-0.11,-215.1,0.0,0.0,1.32,0.0,-0.07,0.0,0.9960923651951158,0.4438468204234429,0.0004018228131554835,0.28,0,0,0.0
7.561617903000297,552,4812.75,-97.2,2.1,-59.3,-0.03,0.35,0.08,0.0,-0.98,-0.11,-215.1,0.1,2.0,1.32,-0.01,-0.07,0.0,0.986154146165801,0.3602776706930364,0.00934566829183614,0.28,0,0,0.0
7.57313876400076,553,4812.76,-97.2,2.1,-59.2,-0.05,0.26,0.05,0.0,-0.98,-0.11,-215.1,0.0,0.0,1.32,0.0,0.02,0.0,0.986154146165801,0.26944387170614964,0.00915875492599938,0.28,0,0,0.0
7.581661424000231,554,4812.77,-97.2,2.1,-59.2,-0.07,0.19,0.03,0.0,-0.99,-0.12,-215.1,-0.1,1.0,1.32,0.0,0.08,0.0,0.9972462083156797,0.2046948949045872,0.0018946410794017376,0.28,0,0,0.0
7.5931698390004385,555,4812.78,-97.2,2.1,-59.2,-0.05,0.14,0.03,0.0,-0.99,-0.12,-215.1,0.1,0.0,1.32,0.0,0.45,0.0,0.9972462083156797,0.15165750888103102,0.0018567482578136785,0.28,0,0,0.0
7.6014601670003685,556,4812.79,-97.2,2.0,-59.2,0.02,0.05,0.02,0.0,-1.0,-0.11,-215.1,-0.2,0.0,1.32,0.0,-0.05,0.0,1.0060318086422517,0.057445626465380296,0.010429501612698067,0.28,0,0,0.0
7.613233847000629,557,4812.8,-97.1,2.0,-59.2,0.08,-0.02,0.02,0.0,-1.0,-0.11,-215.1,0.1,1.0,1.32,0.0,0.08,0.0,1.0060318086422517,0.08485281374238571,0.010220911580444136,0.28,0,0,0.0
7.621565551999993,558,4812.81,-97.1,2.0,-59.2,0.09,-0.1,0.03,0.0,-0.99,-0.11,-215.1,-0.1,-1.0,1.32,0.0,-0.06,0.0,0.9960923651951158,0.13784048752090222,0.0002758387706420784,0.28,0,0,0.0
7.632986031000655,559,4812.82,-97.1,2.0,-59.2,0.04,-0.13,0.04,0.0,-0.98,-0.12,-215.1,0.4,0.0,1.32,0.0,0.09,0.0,0.9873196037757985,0.14177446878757827,0.008326984195701659,0.28,0,0,0.0
7.641628775000754,560,4812.83,-97.1,1.9,-59.2,0.0,-0.16,0.05,0.01,-0.97,-0.12,-215.1,-0.1,0.0,1.32,0.0,0.03,0.0,0.977445650662992,0.1676305461424021,0.017836918562337933,0.28,0,0,0.0
7.6532096690007165,561,4812.84,-97.1,1.9,-59.2,-0.02,-0.17,0.06,0.01,-0.98,-0.13,-215.1,-0.1,-3.0,1.32,0.02,-0.07,0.0,0.9886354231970448,0.18138357147217055,0.006514203107719552,0.28,0,0,0.0
7.661568649000401,562,4812.85,-97.1,1.9,-59.3,-0.02,-0.17,0.05,0.01,-0.98,-0.13,-215.1,0.1,3.0,1.32,-0.01,0.02,0.0,0.9886354231970448,0.1783255450012701,0.006383919045565123,0.28,0,0,0.0
7.673096952999913,563,4812.86,-97.1,1.9,-59.3,0.03,-0.15,0.05,0.01,-0.98,-0.14,-215.1,-0.3,-3.0,1.32,0.0,0.03,0.0,0.9899999999999999,0.1609347693943108,0.004918955397757774,0.28,0,0,0.0
7.681676412999877,564,4812.87,-97.1,1.9,-59.3,0.16,-0.1,0.03,0.0,-0.99,-0.14,-215.1,0.0,-3.0,1.32,0.01,0.08,0.0,0.9998499887483121,0.19104973174542803,0.004832412683543397,0.28,0,0,0.0
7.693241485000726,565,4812.88,-97.1,1.8,-59.3,0.32,-0.07,0.03,0.0,-0.98,-0.14,-215.1,0.1,1.0,1.32,0.0,-0.06,0.0,0.9899494936611665,0.3289376840679705,0.004966720755530174,0.28,0,0,0.0
7.701556146000257,566,4812.89,-97.1,1.8,-59.3,0.52,-0.07,0.07,0.01,-0.99,-0.14,-215.1,-0.2,-1.0,1.32,0.0,-0.06,0.0,0.9998999949994999,0.5293392107146419,0.004884104971147218,0.28,0,0,0.0
7.713167644999885,567,4812.9,-97.0,1.8,-59.3,0.73,-0.06,0.08,0.02,-1.0,-0.14,-215.1,-0.2,-2.0,1.32,0.01,0.02,0.0,1.0099504938362078,0.7368174807915457,0.014635911731698092,0.28,0,0,0.0
7.721594224,568,4812.91,-97.0,1.8,-59.3,0.86,-0.02,0.09,0.03,-1.0,-0.13,-215.1,-0.1,0.0,1.32,0.0,-0.14,0.0,1.008860743611327,0.8649277426467484,0.013275238276680978,0.28,0,0,0.0
7.732934610000484,569,4812.92,-96.9,1.8,-59.3,0.79,0.04,0.09,0.03,-0.99,-0.12,-215.1,-0.3,-3.0,1.32,0.02,-0.02,0.0,0.9976973488989535,0.7961155694998058,0.002069606693021253,0.28,0,0,0.0
7.741648838999936,570,4812.93,-96.8,1.8,-59.3,0.58,0.11,0.1,0.03,-0.99,-0.11,-215.1,-0.3,2.0,1.32,0.0,0.01,0.0,0.9965440281292142,0.5987486951969081,0.0008979602048163615,0.28,0,0,0.0
7.753194249000444,571,4812.94,-96.8,1.8,-59.3,0.42,0.15,0.07,0.04,-0.99,-0.11,-215.1,-0.4,2.0,1.32,0.0,-0.06,0.0,0.9968951800465282,0.45144213361182844,0.0012241298796877853,0.28,0,0,0.0
7.761594782999964,572,4812.95,-96.7,1.8,-59.3,0.32,0.19,0.05,0.04,-0.99,-0.12,-215.1,-0.8,-1.0,1.32,0.02,-0.08,0.0,0.9980480950335009,0.37549966711037175,0.0023295039693272956,0.28,0,0,0.0
7.773224207000567,573,4812.96,-96.7,1.8,-59.2,0.37,0.25,0.03,0.03,-0.99,-0.12,-215.1,-1.9,-13.0,1.32,0.07,0.06,0.0,0.9976973488989535,0.44754888001200493,0.0019391826780842392,0.28,0,0,0.0
7.781662261000747,574,4812.97,-96.6,1.8,-59.2,0.35,0.2,0.06,0.01,-0.97,-0.1,-215.2,-3.4,-15.0,1.32,0.12,-0.04,0.0,0.9751922887307918,0.4075536774462966,0.02015455994027593,0.28,0,0,0.0
7.793187835000026,575,4812.98,-96.6,1.8,-59.2,0.31,0.14,0.06,0.0,-0.97,-0.1,-215.2,-6.0,-24.0,1.32,0.19,0.09,0.0,0.9751410154434075,0.3453983207834109,0.01980171656310703,0.28,0,0,0.0
7.801633218999996,576,4812.99,-96.6,1.8,-59.2,0.18,0.11,0.01,0.01,-0.98,-0.12,-215.3,-7.7,-8.0,1.33,0.19,-0.11,0.0,0.9873702446397703,0.21118712081942875,0.007421037619409376,0.28,0,0,0.0
7.813222388000213,577,4813.0,-96.6,1.8,-59.2,0.04,0.11,-0.06,0.02,-0.98,-0.12,-215.4,-6.7,6.0,1.33,0.15,-0.03,0.0,0.9875221516502807,0.13152946437965904,0.007123747996720997,0.28,0,0,0.0
7.821535187999871,578,4813.01,-96.6,1.8,-59.2,0.0,0.11,-0.11,0.02,-0.98,-0.11,-215.4,-4.4,15.0,1.33,0.09,0.17,0.0,0.9863569333664157,0.15556349186104046,0.00812318695497427,0.28,0,0,0.0
7.833536563000052,579,4813.02,-96.6,1.8,-59.2,-0.02,0.12,-0.14,0.03,-0.97,-0.12,-215.5,-3.3,13.0,1.33,0.06,-0.05,0.0,0.9778547949465708,0.1854723699099141,0.01629281886732281,0.28,0,0,0.0
7.841599049000251,580,4813.03,-96.6,1.8,-59.2,-0.09,0.15,-0.14,0.04,-0.97,-0.12,-215.5,-1.6,19.0,1.33,0.01,-0.14,0.0,0.9782126558167197,0.2240535650240808,0.015616258837230501,0.28,0,0,0.0
7.8530656190005175,581,4813.04,-96.6,1.8,-59.1,-0.17,0.19,-0.14,0.04,-0.98,-0.12,-215.5,0.2,10.0,1.33,0.0,-0.06,0.0,0.98812954616285,0.2908607914449798,0.0055853811212781546,0.28,0,0,0.0
7.861688333000529,582,4813.05,-96.6,1.8,-59.1,-0.15,0.2,-0.16,0.04,-1.0,-0.12,-215.5,-0.2,2.0,1.33,0.0,-0.05,0.0,1.0079682534683323,0.2968164415931166,0.013968259660520066,0.28,0,0,0.0
7.873130792000666,583,4813.06,-96.6,1.9,-59.1,-0.05,0.18,-0.2,0.03,-1.0,-0.11,-215.5,-0.1,4.0,1.33,-0.01,0.08,0.0,1.0064790112068904,0.2736786436680802,0.012229437051096581,0.28,0,0,0.0
7.8816163860001325,584,4813.07,-96.6,1.9,-59.1,0.0,0.13,-0.21,0.02,-0.99,-0.1,-215.5,0.1,0.0,1.33,0.0,0.01,0.0,0.995238664843765,0.2469817807045694,0.0009693088742117606,0.28,0,0,0.0
7.893260106000525,585,4813.08,-96.6,1.9,-59.1,0.0,0.08,-0.22,0.02,-1.0,-0.11,-215.5,0.1,2.0,1.33,0.0,-0.07,0.0,1.0062305898749053,0.2340939982143925,0.01172200922724509,0.28,0,0,0.0
7.9009438720004255,586,4813.09,-96.6,1.9,-59.1,-0.05,0.03,-0.23,0.02,-0.99,-0.12,-215.5,0.0,1.0,1.33,0.0,-0.14,0.0,0.9974467404327911,0.23727621035409344,0.0028793965894282625,0.28,0,0,0.0
7.912850788000469,587,4813.1,-96.6,2.0,-59.1,-0.05,-0.03,-0.23,0.02,-0.99,-0.12,-215.5,-0.1,0.0,1.33,0.0,0.0,0.0,0.9974467404327911,0.23727621035409344,0.0028218086576397017,0.28,0,0,0.0
7.9209971840000435,588,4813.11,-96.7,2.0,-59.1,0.03,-0.08,-0.23,0.03,-0.98,-0.12,-215.5,0.0,-6.0,1.33,0.03,0.0,0.0,0.9877752780870758,0.24535688292770594,0.006712660614314192,0.28,0,0,0.0
7.932830155999909,589,4813.12,-96.7,2.0,-59.1,0.06,-0.11,-0.2,0.04,-0.98,-0.11,-215.5,0.0,3.0,1.33,0.0,-0.05,0.0,0.9869650449737316,0.23600847442411896,0.007372435853105208,0.28,0,0,0.0
7.940951829999904,590,4813.13,-96.6,2.0,-59.1,0.07,-0.14,-0.21,0.05,-0.98,-0.11,-215.5,0.0,0.0,1.33,0.0,-0.06,0.0,0.9874208829065749,0.2619160170741759,0.0067782659618566,0.28,0,0,0.0
7.953401509000287,591,4813.14,-96.6,2.1,-59.1,0.02,-0.15,-0.24,0.06,-0.98,-0.11,-215.5,0.1,-1.0,1.33,0.0,0.09,0.0,0.9879777325425912,0.28372521918222215,0.0060969879993234555,0.28,0,0,0.0
7.96167713900013,592,4813.15,-96.6,2.1,-59.2,-0.03,-0.16,-0.26,0.05,-0.98,-0.11,-215.5,-0.2,3.0,1.33,-0.01,-0.07,0.0,0.9874208829065749,0.3067572330035594,0.006520760882632981,0.28,0,0,0.0
7.97313787100029,593,4813.16,-96.6,2.1,-59.2,-0.06,-0.17,-0.26,0.04,-0.98,-0.11,-215.5,0.0,0.0,1.33,0.0,0.16,0.0,0.9869650449737316,0.31638584039112755,0.006837066839166739,0.28,0,0,0.0
7.985689456000728,594,4813.17,-96.7,2.2,-59.2,-0.1,-0.2,-0.24,0.04,-0.98,-0.1,-215.5,0.0,4.0,1.33,-0.01,-0.06,0.0,0.985900603509299,0.3280243893371345,0.007743478137527404,0.28,0,0,0.0
7.993632413999876,595,4813.18,-96.7,2.2,-59.2,-0.12,-0.26,-0.24,0.04,-0.98,-0.11,-215.5,-0.1,-2.0,1.33,0.0,0.1,0.0,0.9869650449737316,0.3736308338453881,0.006545455939632849,0.28,0,0,0.0
8.001496795000094,596,4813.19,-96.7,2.2,-59.3,-0.16,-0.31,-0.23,0.04,-0.98,-0.11,-215.5,0.0,1.0,1.33,0.0,-0.06,0.0,0.9869650449737316,0.41785164831552357,0.0064145468208401946,0.28,0,0,0.0
8.013218265999967,597,4813.2,-96.7,2.2,-59.3,-0.2,-0.36,-0.23,0.04,-0.98,-0.12,-215.5,-0.2,-3.0,1.33,0.01,-0.06,0.0,0.98812954616285,0.4716990566028302,0.005145044719087388,0.28,0,0,0.0
8.021618411999953,598,4813.21,-96.7,2.2,-59.3,-0.23,-0.39,-0.23,0.04,-0.98,-0.12,-215.5,-0.1,-1.0,1.33,0.01,0.16,0.0,0.98812954616285,0.5078385570237849,0.0050421438247056916,0.28,0,0,0.0
8.03302000000076,599,4813.22,-96.8,2.3,-59.4,-0.25,-0.43,-0.23,0.05,-0.98,-0.12,-215.5,0.0,0.0,1.33,0.0,-0.06,0.0,0.9885848471426213,0.5479963503528102,0.004495105988035708,0.28,0,0,0.0
8.041389593000531,600,4813.23,-96.8,2.3,-59.4,-0.29,-0.47,-0.23,0.05,-0.98,-0.13,-215.5,-0.2,-1.0,1.33,0.0,-0.14,0.0,0.9898484732523458,0.5982474404458409,0.003166850280744926,0.28,0,0,0.0
8.053220239999973,601,4813.24,-96.8,2.3,-59.5,-0.3,-0.52,-0.25,0.05,-0.98,-0.13,-215.5,0.0,-1.0,1.33,0.0,0.16,0.0,0.9898484732523458,0.6503076195155644,0.003103513275130032,0.28,0,0,0.0
8.061700639000264,602,4813.25,-96.9,2.3,-59.5,-0.28,-0.58,-0.25,0.05,-0.98,-0.13,-215.5,-0.1,-1.0,1.33,0.0,0.16,0.0,0.9898484732523458,0.690869017976635,0.003041443009627387,0.28,0,0,0.0
8.073227769000368,603,4813.26,-96.9,2.4,-59.6,-0.24,-0.63,-0.25,0.05,-0.98,-0.13,-215.5,-0.1,1.0,1.33,0.0,-0.14,0.0,0.9898484732523458,0.719027120489902,0.002980614149434846,0.28,0,0,0.0
8.081678728000043,604,4813.27,-96.9,2.4,-59.7,-0.17,-0.65,-0.25,0.05,-0.98,-0.13,-215.5,0.0,-1.0,1.33,0.0,-0.14,0.0,0.9898484732523458,0.7168681887209113,0.002921001866446171,0.28,0,0,0.0
8.093268243000239,605,4813.28,-97.0,2.4,-59.7,-0.19,-0.68,-0.25,0.05,-0.97,-0.13,-215.5,-0.6,-1.0,1.33,0.0,0.08,0.0,0.9799489782636644,0.7489993324429604,0.01256408691802502,0.28,0,0,0.0
8.101439173000472,606,4813.29,-97.0,2.5,-59.8,-0.2,-0.7,-0.24,0.06,-0.97,-0.13,-215.5,0.1,3.0,1.33,0.0,0.0,0.0,0.9805100713404223,0.766550715869472,0.011762933964441835,0.28,0,0,0.0
8.113247578000482,607,4813.3,-97.0,2.5,-59.9,-0.25,-0.7,-0.24,0.06,-0.98,-0.13,-215.5,-0.2,0.0,1.33,0.0,0.0,0.0,0.9904039579888602,0.7810889834071404,0.0018316663696839042,0.28,0,0,0.0
8.121620511000401,608,4813.31,-97.1,2.5,-60.0,-0.22,-0.7,-0.24,0.06,-0.99,-0.13,-215.5,0.0,-1.0,1.33,0.0,0.0,0.0,1.000299955013495,0.7720103626247513,0.007903044041851937,0.28,0,0,0.0
8.133125058000587,609,4813.32,-97.1,2.5,-60.0,-0.16,-0.71,-0.24,0.06,-0.99,-0.13,-215.5,-0.2,-1.0,1.33,0.0,-0.15,0.0,1.000299955013495,0.7663550091178369,0.007744983161014907,0.28,0,0,0.0
8.145698119999906,610,4813.33,-97.1,2.6,-60.1,-0.1,-0.72,-0.23,0.07,-0.99,-0.14,-215.5,-0.2,-1.0,1.33,0.0,0.16,0.0,1.002297361066066,0.7624303246854757,0.009547541429314133,0.28,0,0,0.0
8.15363009200064,611,4813.34,-97.1,2.6,-60.2,-0.08,-0.74,-0.24,0.07,-0.99,-0.14,-215.5,0.0,3.0,1.33,-0.01,0.16,0.0,1.002297361066066,0.782048591840686,0.009356590600727799,0.28,0,0,0.0
8.161632448000091,612,4813.35,-97.2,2.6,-60.3,-0.05,-0.75,-0.25,0.07,-0.98,-0.13,-215.5,0.1,2.0,1.33,0.0,0.24,0.0,0.9910600385445879,0.7921489758877429,0.001843117282335216,0.28,0,0,0.0
8.173171487000218,613,4813.36,-97.2,2.7,-60.4,-0.05,-0.78,-0.26,0.07,-0.98,-0.13,-215.5,-0.2,0.0,1.33,0.0,-0.07,0.0,0.9910600385445879,0.8237111144084436,0.0018062549366885117,0.28,0,0,0.0
8.18170217900024,614,4813.37,-97.2,2.7,-60.4,-0.07,-0.78,-0.26,0.07,-0.98,-0.13,-215.5,0.0,0.0,1.33,0.0,-0.07,0.0,0.9910600385445879,0.8251666498350501,0.0017701298379547703,0.28,0,0,0.0
8.193300708000606,615,4813.38,-97.2,2.7,-60.5,-0.11,-0.76,-0.26,0.07,-0.97,-0.14,-215.5,0.0,0.0,1.33,0.0,0.08,0.0,0.98254770876533,0.810740402348372,0.01007681042486841,0.28,0,0,0.0
8.201684482000019,616,4813.39,-97.2,2.7,-60.6,-0.14,-0.74,-0.25,0.07,-0.97,-0.13,-215.5,0.0,0.0,1.33,0.0,-0.07,0.0,0.981172767661231,0.7935363885796289,0.01122271649838813,0.28,0,0,0.0
8.213303477999943,617,4813.4,-97.3,2.8,-60.7,-0.16,-0.72,-0.26,0.06,-0.97,-0.13,-215.5,-0.1,0.0,1.33,0.0,0.08,0.0,0.9805100713404223,0.782048591840686,0.011647704562812833,0.28,0,0,0.0
8.221591733000423,618,4813.41,-97.3,2.8,-60.7,-0.19,-0.7,-0.26,0.06,-0.96,-0.13,-215.5,-0.3,-2.0,1.33,0.0,0.16,0.0,0.9706183596038146,0.7705193054038295,0.02110862797343216,0.28,0,0,0.0
8.233236795000266,619,4813.42,-97.3,2.8,-60.8,-0.21,-0.69,-0.24,0.06,-0.97,-0.13,-215.5,-0.1,0.0,1.33,0.0,-0.07,0.0,0.9805100713404223,0.7601315675591955,0.010992577912087964,0.28,0,0,0.0
8.241543433000516,620,4813.43,-97.4,2.9,-60.9,-0.25,-0.69,-0.23,0.06,-0.97,-0.13,-215.5,0.0,1.0,1.33,0.0,-0.15,0.0,0.9805100713404223,0.76909037180295,0.010772726353846185,0.28,0,0,0.0
8.253028676000213,621,4813.44,-97.4,2.9,-61.0,-0.25,-0.68,-0.22,0.06,-0.98,-0.13,-215.5,-0.2,-1.0,1.33,0.0,-0.15,0.0,0.9904039579888602,0.7571657678474378,0.0008612629113001757,0.28,0,0,0.0
8.26165022800069,622,4813.45,-97.4,2.9,-61.0,-0.25,-0.68,-0.19,0.06,-0.98,-0.13,-215.5,-0.5,-1.0,1.33,0.01,0.17,0.0,0.9904039579888602,0.7489993324429604,0.00084403765307417,0.28,0,0,0.0
8.273241419000442,623,4813.46,-97.5,2.9,-61.1,-0.24,-0.7,-0.17,0.06,-0.98,-0.13,-215.5,-0.5,0.0,1.33,0.02,0.0,0.0,0.9904039579888602,0.7592759709091287,0.0008271569000126711,0.28,0,0,0.0
8.28155968200008,624,4813.47,-97.5,2.9,-61.2,-0.24,-0.7,-0.15,0.06,-0.98,-0.13,-215.5,-0.8,-1.0,1.33,0.02,-0.08,0.0,0.9904039579888602,0.7550496672405067,0.0008106137620124132,0.28,0,0,0.0
8.29301810800007,625,4813.48,-97.5,2.9,-61.2,-0.28,-0.69,-0.12,0.06,-0.98,-0.13,-215.5,-1.7,-10.0,1.33,0.06,0.0,0.0,0.9904039579888602,0.754254598925323,0.0007944014867721227,0.28,0,0,0.0
8.30163286700008,626,4813.49,-97.6,3.0,-61.3,-0.28,-0.68,-0.09,0.05,-0.98,-0.13,-215.6,-3.3,-13.0,1.33,0.1,-0.06,0.0,0.9898484732523458,0.7408778576796583,0.0013228884988207845,0.28,0,0,0.0
8.313152078000712,627,4813.5,-97.6,3.0,-61.4,-0.29,-0.67,-0.07,0.05,-0.98,-0.13,-215.6,-5.4,-24.0,1.33,0.19,0.15,0.0,0.9898484732523458,0.7334166619323562,0.0012964307288443333,0.28,0,0,0.0
8.321647198999926,628,4813.51,-97.6,3.0,-61.5,-0.3,-0.62,-0.06,0.05,-0.98,-0.14,-215.7,-10.5,-42.0,1.34,0.32,-0.23,0.0,0.9912113800799504,0.6913754406977443,6.514657678502456e-05,0.28,0,0,0.0
8.333137933000216,629,4813.52,-97.7,3.0,-61.5,-0.3,-0.6,-0.05,0.05,-0.99,-0.14,-215.8,-12.7,-27.0,1.34,0.38,0.17,0.0,1.0010993956645864,0.6726812023536854,0.009754098918192677,0.28,0,0,0.0
8.341459905000193,630,4813.53,-97.7,3.0,-61.6,-0.29,-0.6,-0.05,0.05,-0.99,-0.13,-216.0,-13.5,0.0,1.34,0.34,0.0,0.0,0.999749968742185,0.6682813778641449,0.008236578555875451,0.28,0,0,0.0
8.35310557000048,631,4813.54,-97.7,3.0,-61.6,-0.27,-0.6,-0.05,0.05,-0.99,-0.13,-216.1,-13.5,-10.0,1.35,0.38,0.03,0.0,0.999749968742185,0.6598484674529449,0.008071846984757935,0.28,0,0,0.0
8.361642290000418,632,4813.55,-97.8,3.0,-61.7,-0.24,-0.57,-0.06,0.05,-0.99,-0.13,-216.2,-12.5,19.0,1.35,0.28,0.08,0.0,0.999749968742185,0.6213694553162393,0.007910410045062766,0.28,0,0,0.0
8.373276605000683,633,4813.56,-97.8,3.0,-61.8,-0.21,-0.57,-0.06,0.06,-0.99,-0.13,-216.3,-9.6,20.0,1.35,0.22,0.06,0.0,1.000299955013495,0.610409698481274,0.008291188390045279,0.28,0,0,0.0
8.381674992000626,634,4813.57,-97.8,3.0,-61.8,-0.19,-0.57,-0.05,0.06,-0.99,-0.13,-216.4,-8.0,13.0,1.36,0.21,-0.01,0.0,1.000299955013495,0.6029096117993143,0.008125364622244335,0.28,0,0,0.0
8.393288762000338,635,4813.58,-97.8,3.0,-61.9,-0.17,-0.57,-0.03,0.06,-0.99,-0.13,-216.5,-8.2,-6.0,1.36,0.26,-0.03,0.0,1.000299955013495,0.5955669567731239,0.0079628573297994,0.28,0,0,0.0
8.401715363000221,636,4813.59,-97.9,3.0,-61.9,-0.17,-0.57,-0.01,0.06,-0.99,-0.13,-216.6,-11.2,-9.0,1.36,0.28,-0.05,0.0,1.000299955013495,0.5948949487094338,0.007803600183203363,0.28,0,0,0.0
8.413278284000626,637,4813.6,-97.9,3.0,-62.0,-0.2,-0.57,0.0,0.06,-0.99,-0.13,-216.7,-8.5,20.0,1.36,0.19,-0.05,0.0,1.000299955013495,0.6040695324215583,0.007647528179539287,0.28,0,0,0.0
8.421653063000122,638,4813.61,-97.9,3.0,-62.0,-0.18,-0.57,-0.02,0.05,-0.98,-0.13,-216.8,-6.4,13.0,1.37,0.16,-0.01,0.0,0.9898484732523458,0.5980802621722271,0.00274787450997771,0.28,0,0,0.0
8.433168588000626,639,4813.62,-97.9,3.0,-62.1,-0.13,-0.56,-0.02,0.06,-0.98,-0.14,-216.8,-4.1,26.0,1.37,0.06,-0.09,0.0,0.991766101457395,0.5752390807307863,0.000813641378829999,0.28,0,0,0.0
8.441556370000399,640,4813.63,-97.9,3.0,-62.2,-0.12,-0.54,0.0,0.06,-0.97,-0.14,-216.8,-1.1,24.0,1.37,0.0,-0.18,0.0,0.9818859404228171,0.5531726674375733,0.010479926365139725,0.28,0,0,0.0
8.453087579000567,641,4813.64,-98.0,3.0,-62.2,-0.12,-0.51,0.0,0.06,-0.98,-0.14,-216.9,-0.7,4.0,1.37,0.03,0.07,0.0,0.991766101457395,0.5239274758971895,0.0005877700239506067,0.28,0,0,0.0
