host_time_s,seq,device_time_s,roll,pitch,yaw,gyro_x,gyro_y,gyro_z,accel_x,accel_y,accel_z,belt_length,belt_velocity,belt_acceleration,motor_belt_length,motor_pos,motor_vel,motor_iq_meas,motor_iq_set,acc_mag,gyro_mag,acc_residual,threshold,heel_strike,hs_count,torque_cmd_nm
3.0772789160000684,3,4691.86,-12.6,3.7,-108.6,0.54,0.13,0.18,0.05,-0.21,0.97,-81.5,-0.2,-2.0,-2.3,-2.3,0.01,0.14,0.0,0.9937303457175894,0.5838664230798,0.0,0.28,0,0,0.0
3.0886915750006665,4,4691.87,-12.6,3.7,-108.6,0.65,0.07,0.21,0.05,-0.22,0.97,-81.5,-0.1,5.0,-2.3,-2.3,-0.02,-0.01,0.0,0.9958915603618699,0.6866585760041157,0.002117990351394816,0.28,0,0,0.0
3.0988710999999967,5,4691.88,-12.5,3.7,-108.6,0.72,0.01,0.27,0.04,-0.22,0.98,-81.5,0.1,-2.0,-2.3,-2.3,0.0,-0.03,0.0,1.005186549850325,0.7690253571892152,0.011184720243052948,0.28,0,0,0.0
3.107452234000448,6,4691.89,-12.4,3.7,-108.6,0.78,-0.01,0.32,0.03,-0.21,0.97,-81.5,0.0,2.0,-2.3,-2.3,-0.01,-0.01,0.0,0.9929249719893241,0.8431488599292536,0.0010553204655889825,0.28,0,0,0.0
3.1182752290005737,7,4691.9,-12.3,3.6,-108.7,0.79,-0.01,0.35,0.04,-0.19,0.98,-81.5,0.1,-3.0,-2.3,-2.3,0.01,-0.03,0.0,0.9990495483208027,0.8641180474911978,0.0049678707485718565,0.28,0,0,0.0
3.1275545010003043,8,4691.91,-12.3,3.6,-108.7,0.79,-0.01,0.35,0.04,-0.19,0.98,-81.5,0.3,1.0,-2.3,-2.3,-0.02,0.2,0.0,0.9990495483208027,0.8641180474911978,0.004868513333600388,0.28,0,0,0.0
3.1387994810002056,9,4691.92,-12.2,3.6,-108.7,0.75,0.0,0.36,0.04,-0.18,0.99,-81.5,0.3,0.0,-2.3,-2.3,0.0,-0.08,0.0,1.0070253224224304,0.8319254774317228,0.012587401686523503,0.28,0,0,0.0
3.147686100000101,10,4691.93,-12.0,3.6,-108.8,0.58,-0.01,0.4,0.03,-0.18,0.98,-81.5,0.0,-4.0,-2.3,-2.3,0.0,-0.09,0.0,0.9968450230602548,0.7046275611981127,0.0023589602778609775,0.28,0,0,0.0
3.158828843000265,11,4691.94,-12.0,3.6,-108.8,0.58,-0.01,0.4,0.03,-0.18,0.98,-81.5,0.4,2.0,-2.3,-2.3,-0.01,0.0,0.0,0.9968450230602548,0.7046275611981127,0.002311781072303787,0.28,0,0,0.0
3.167475188000026,12,4691.95,-11.9,3.5,-108.9,0.55,-0.02,0.45,0.04,-0.2,0.98,-81.5,0.1,-2.0,-2.3,-2.3,0.0,-0.09,0.0,1.000999500499376,0.7109149034870489,0.006336933341196449,0.28,0,0,0.0
3.1789255260000573,13,4691.96,-11.8,3.5,-108.9,0.62,-0.04,0.43,0.05,-0.21,0.97,-81.5,0.0,0.0,-2.3,-2.3,0.0,0.0,0.0,0.9937303457175894,0.7555792479945436,0.0009135770117781883,0.28,0,0,0.0
3.1876531460002298,14,4691.97,-11.8,3.5,-108.9,0.62,-0.04,0.43,0.05,-0.21,0.97,-81.5,0.3,3.0,-2.3,-2.3,0.0,-0.04,0.0,0.9937303457175894,0.7555792479945436,0.0008953054715425957,0.28,0,0,0.0
3.19879245500033,15,4691.98,-11.7,3.5,-109.0,0.77,-0.07,0.38,0.05,-0.21,0.97,-81.5,-0.1,0.0,-2.3,-2.3,0.0,0.11,0.0,0.9937303457175894,0.8615103017375938,0.0008773993621117304,0.28,0,0,0.0
3.2076855440000145,16,4691.99,-11.7,3.5,-109.0,0.77,-0.07,0.38,0.05,-0.21,0.97,-81.5,0.3,4.0,-2.3,-2.3,-0.02,-0.15,0.0,0.9937303457175894,0.8615103017375938,0.0008598513748695469,0.28,0,0,0.0
3.2188444840003285,17,4692.0,-11.6,3.5,-109.1,0.73,-0.05,0.27,0.05,-0.18,0.96,-81.5,0.0,-3.0,-2.3,-2.3,0.0,0.03,0.0,0.9780081799248921,0.7799358948016175,0.016250376824215595,0.28,0,0,0.0
3.227619715000401,18,4692.01,-11.5,3.5,-109.1,0.65,-0.05,0.21,0.04,-0.18,0.97,-81.5,0.2,6.0,-2.3,-2.3,-0.02,-0.02,0.0,0.9873702446397704,0.6849087530467106,0.006750545867150515,0.28,0,0,0.0
3.238784781000504,19,4692.02,-11.4,3.5,-109.1,0.57,-0.11,0.18,0.04,-0.18,0.97,-81.5,0.4,-1.0,-2.3,-2.3,0.0,-0.15,0.0,0.9873702446397704,0.6077828559609098,0.006615534949807489,0.28,0,0,0.0
3.2476582040007997,20,4692.03,-11.4,3.5,-109.2,0.52,-0.2,0.2,0.04,-0.17,0.98,-81.5,-0.3,-2.0,-2.3,-2.3,0.0,-0.07,0.0,0.9954396013822234,0.5919459434779497,0.0014247453567926005,0.28,0,0,0.0
3.25881203300014,21,4692.04,-11.3,3.5,-109.2,0.48,-0.26,0.21,0.04,-0.18,0.98,-81.5,0.2,3.0,-2.3,-2.3,0.0,0.03,0.0,0.9971960689854328,0.5848931526355903,0.003117588700801921,0.28,0,0,0.0
3.2676719480004977,22,4692.05,-11.2,3.5,-109.2,0.44,-0.28,0.26,0.04,-0.19,0.98,-81.5,0.0,0.0,-2.3,-2.3,-0.01,0.12,0.0,0.9990495483208027,0.5827520913733386,0.004871646675448482,0.28,0,0,0.0
3.2788578510007937,23,4692.06,-11.2,3.5,-109.2,0.44,-0.28,0.26,0.04,-0.19,0.98,-81.5,0.4,2.0,-2.3,-2.3,-0.01,0.12,0.0,0.9990495483208027,0.5827520913733386,0.004774213741939537,0.28,0,0,0.0
3.287535215000389,24,4692.07,-11.2,3.5,-109.2,0.44,-0.28,0.31,0.05,-0.19,0.98,-81.5,0.0,0.0,-2.3,-2.3,0.0,0.01,0.0,0.9994998749374608,0.6067124524847005,0.005120049551425643,0.28,0,0,0.0
3.298872102000132,25,4692.08,-11.2,3.6,-109.3,0.52,-0.29,0.34,0.06,-0.19,0.98,-81.5,0.0,1.0,-2.3,-2.3,0.0,0.01,0.0,1.0000499987500624,0.685638388656878,0.005556769896746694,0.28,0,0,0.0
3.307731421000426,26,4692.09,-11.1,3.6,-109.3,0.58,-0.28,0.36,0.06,-0.19,0.97,-81.5,0.1,0.0,-2.3,-2.3,-0.01,-0.09,0.0,0.9902524930541705,0.7378346698278687,0.004155921083162317,0.28,0,0,0.0
3.3188538399999743,27,4692.1,-11.0,3.6,-109.4,0.61,-0.21,0.37,0.07,-0.18,0.96,-81.4,0.1,0.0,-2.3,-2.3,0.0,0.12,0.0,0.9792343948207701,0.743706931526122,0.014870538930231492,0.28,0,0,0.0
3.327478942000198,28,4692.11,-11.0,3.6,-109.4,0.67,-0.15,0.36,0.08,-0.18,0.97,-81.4,0.0,1.0,-2.3,-2.3,0.0,-0.16,0.0,0.9897979591815695,0.7752418977325723,0.004220835078043383,0.28,0,0,0.0
3.3388109430006807,29,4692.12,-10.9,3.6,-109.4,0.68,-0.11,0.36,0.08,-0.17,0.98,-81.4,0.2,5.0,-2.3,-2.3,-0.03,0.06,0.0,0.9978476837674174,0.7772387020729218,0.003752311717648338,0.28,0,0,0.0
3.347594040000331,30,4692.13,-10.8,3.7,-109.5,0.61,-0.06,0.38,0.09,-0.16,0.98,-81.4,0.2,-4.0,-2.3,-2.3,0.0,0.0,0.0,0.9970456358662826,0.7211795892841116,0.002891258540183239,0.28,0,0,0.0
3.3587313220004944,31,4692.14,-10.8,3.7,-109.5,0.57,0.0,0.4,0.08,-0.16,0.97,-81.4,0.1,3.0,-2.3,-2.3,-0.01,0.08,0.0,0.9863569333664158,0.6963476143421473,0.007641495080489835,0.28,0,0,0.0
3.367696256000272,32,4692.15,-10.7,3.7,-109.6,0.57,0.04,0.4,0.07,-0.16,0.96,-81.4,0.1,-1.0,-2.3,-2.3,0.0,-0.06,0.0,0.9757561170702441,0.6974955196988724,0.017877465149128358,0.28,0,0,0.0
3.37886955400063,33,4692.16,-10.6,3.7,-109.6,0.52,0.09,0.37,0.07,-0.16,0.97,-81.4,0.0,0.0,-2.3,-2.3,0.0,0.01,0.0,0.9855962662266938,0.6445153217728807,0.007876569672825129,0.28,0,0,0.0
3.3875590000006923,34,4692.17,-10.6,3.6,-109.6,0.45,0.1,0.35,0.06,-0.15,0.97,-81.4,0.4,3.0,-2.3,-2.3,-0.01,-0.06,0.0,0.9833615815151617,0.5787918451395113,0.009909029296670036,0.28,0,0,0.0
3.3987540990001435,35,4692.18,-10.5,3.6,-109.7,0.39,0.07,0.33,0.05,-0.16,0.97,-81.4,0.0,-2.0,-2.3,-2.3,0.0,0.0,0.0,0.984377976185977,0.5156549233741495,0.008714781933337634,0.28,0,0,0.0
3.4075839510005608,36,4692.19,-10.5,3.6,-109.7,0.4,0.04,0.3,0.04,-0.17,0.96,-81.4,0.1,-1.0,-2.3,-2.3,0.0,-0.08,0.0,0.9757561170702441,0.5015974481593781,0.0169899082280891,0.28,0,0,0.0
3.4185554650002814,37,4692.2,-10.4,3.6,-109.7,0.45,-0.01,0.28,0.04,-0.17,0.97,-81.4,0.0,0.0,-2.3,-2.3,-0.01,-0.13,0.0,0.9855962662266938,0.5300943312279429,0.007006763890206602,0.28,0,0,0.0
3.427497699000014,38,4692.21,-10.4,3.6,-109.8,0.46,-0.05,0.27,0.04,-0.17,0.98,-81.4,0.0,0.0,-2.3,-2.3,-0.01,-0.06,0.0,0.9954396013822234,0.535723809439155,0.002779839840016507,0.28,0,0,0.0
3.4388461590006045,39,4692.22,-10.3,3.6,-109.8,0.44,-0.09,0.27,0.04,-0.17,0.98,-81.4,0.0,-2.0,-2.3,-2.3,0.01,0.09,0.0,0.9954396013822234,0.5240229002629561,0.002724243043216168,0.28,0,0,0.0
3.4476152040006127,40,4692.23,-10.3,3.6,-109.8,0.43,-0.12,0.27,0.04,-0.17,0.98,-81.4,0.0,0.0,-2.3,-2.3,0.0,-0.06,0.0,0.9954396013822234,0.5217278984298233,0.0026697581823518224,0.28,0,0,0.0
3.458614604000104,41,4692.24,-10.3,3.6,-109.8,0.42,-0.16,0.29,0.05,-0.17,0.98,-81.4,0.1,-1.0,-2.3,-2.3,0.0,0.05,0.0,0.9958915603618699,0.5348831648126532,0.0030592828187583354,0.28,0,0,0.0
3.4676423910004814,42,4692.25,-10.2,3.6,-109.9,0.44,-0.17,0.3,0.05,-0.17,0.98,-81.4,0.0,1.0,-2.3,-2.3,-0.01,0.09,0.0,0.9958915603618699,0.5590169943749475,0.0029980971623831953,0.28,0,0,0.0
3.4786226720007107,43,4692.26,-10.2,3.6,-109.9,0.47,-0.18,0.31,0.05,-0.17,0.98,-81.4,0.0,-1.0,-2.3,-2.3,0.0,0.07,0.0,0.9958915603618699,0.591100668245266,0.0029381352191355514,0.28,0,0,0.0
3.487576703000741,44,4692.27,-10.1,3.6,-109.9,0.51,-0.17,0.33,0.06,-0.17,0.97,-81.4,0.0,-1.0,-2.3,-2.3,0.0,0.0,0.0,0.986610358753647,0.6307931515164064,0.006216205061305602,0.28,0,0,0.0
3.4986460730006,45,4692.28,-10.1,3.6,-110.0,0.54,-0.12,0.36,0.06,-0.16,0.97,-81.4,0.0,-2.0,-2.3,-2.3,0.01,0.2,0.0,0.9849365461794988,0.66,0.007732217282744758,0.28,0,0,0.0
3.5073670620004123,46,4692.29,-10.0,3.6,-110.0,0.52,-0.07,0.39,0.06,-0.16,0.97,-81.4,0.3,2.0,-2.3,-2.3,-0.01,-0.08,0.0,0.9849365461794988,0.6537583651472462,0.007577572937089827,0.28,0,0,0.0
3.518669123000109,47,4692.3,-10.0,3.6,-110.1,0.52,0.0,0.41,0.07,-0.16,0.97,-81.4,0.0,2.0,-2.3,-2.3,-0.01,-0.08,0.0,0.9855962662266938,0.6621933252457322,0.006779495832096916,0.28,0,0,0.0
3.5276476140006707,48,4692.31,-9.9,3.6,-110.1,0.6,0.11,0.46,0.08,-0.16,0.97,-81.4,0.1,0.0,-2.3,-2.3,0.0,-0.15,0.0,0.9863569333664158,0.7640026177965623,0.005898452118527464,0.28,0,0,0.0
3.5388441929999317,49,4692.32,-9.8,3.6,-110.1,0.64,0.17,0.51,0.08,-0.15,0.98,-81.4,0.1,0.0,-2.3,-2.3,0.0,-0.14,0.0,0.9946356116689167,0.8358229477586745,0.00233262166029391,0.28,0,0,0.0
3.5474688510003034,50,4692.33,-9.8,3.6,-110.2,0.58,0.17,0.52,0.08,-0.14,0.98,-81.4,0.0,0.0,-2.3,-2.3,0.0,0.23,0.0,0.9931767214348108,0.7973079706111058,0.0008562567976643232,0.28,0,0,0.0
3.55886033600018,51,4692.34,-9.7,3.5,-110.2,0.47,0.21,0.51,0.07,-0.14,0.96,-81.4,0.1,0.0,-2.31,-2.31,0.0,0.05,0.0,0.9726767191621274,0.7246378405796925,0.019250870565518774,0.28,0,0,0.0
3.5677249950003898,52,4692.35,-9.6,3.5,-110.3,0.43,0.28,0.47,0.06,-0.16,0.97,-81.4,0.0,0.0,-2.31,-2.31,0.0,0.05,0.0,0.9849365461794988,0.6958448102845921,0.00685122267718441,0.28,0,0,0.0
3.5788834060003865,53,4692.36,-9.6,3.5,-110.3,0.44,0.25,0.43,0.05,-0.17,0.99,-81.4,0.1,2.0,-2.31,-2.31,0.0,0.07,0.0,1.0057335631269348,0.6640783086353597,0.013666878384846592,0.28,0,0,0.0
3.5876591129999724,54,4692.37,-9.6,3.4,-110.4,0.44,0.18,0.37,0.03,-0.17,0.99,-81.4,0.1,0.0,-2.31,-2.31,0.0,0.0,0.0,1.004937809021036,0.6024118192731613,0.012613701793368737,0.28,0,0,0.0
3.5987711150000905,55,4692.38,-9.5,3.4,-110.4,0.43,0.08,0.3,0.01,-0.17,0.99,-81.4,0.0,0.0,-2.31,-2.31,0.0,-0.03,0.0,1.0045396955820112,0.5303772242470447,0.011971276587257162,0.28,0,0,0.0
3.607673685000009,56,4692.39,-9.5,3.4,-110.4,0.39,-0.02,0.22,0.0,-0.16,1.0,-81.4,0.1,-1.0,-2.31,-2.31,0.01,-0.01,0.0,1.012719112093773,0.44821869662029945,0.019747679237038684,0.28,0,0,0.0
3.6189050630000565,57,4692.4,-9.5,3.3,-110.4,0.28,-0.12,0.17,0.0,-0.16,1.0,-81.4,0.0,1.0,-2.31,-2.31,-0.01,0.11,0.0,1.012719112093773,0.3488552708502482,0.019352725652297953,0.28,0,0,0.0
3.62759139300033,58,4692.41,-9.4,3.3,-110.5,0.24,-0.22,0.11,0.0,-0.17,1.0,-81.4,0.0,0.0,-2.31,-2.31,0.0,-0.14,0.0,1.014347080638575,0.34365680554879163,0.020561080313157953,0.28,0,0,0.0
3.6390179370000624,59,4692.42,-9.4,3.3,-110.5,0.21,-0.29,0.07,0.01,-0.17,1.0,-81.4,0.2,1.0,-2.31,-2.31,0.0,0.2,0.0,1.0143963722332607,0.36482872693909396,0.020198164469686808,0.28,0,0,0.0
3.647604835000493,60,4692.43,-9.4,3.3,-110.5,0.18,-0.32,0.07,0.02,-0.17,1.0,-81.4,0.0,-1.0,-2.31,-2.31,0.0,-0.05,0.0,1.0145442326483356,0.37376463182061515,0.019939104387066475,0.28,0,0,0.0
3.658888128000399,61,4692.44,-9.4,3.3,-110.5,0.17,-0.36,0.06,0.03,-0.18,1.0,-81.4,0.2,0.0,-2.31,-2.31,0.0,0.0,0.0,1.0165136496870075,0.4026164427839479,0.02147035099722361,0.28,0,0,0.0
3.667471366999962,62,4692.45,-9.4,3.4,-110.5,0.21,-0.4,0.06,0.04,-0.17,0.99,-81.4,0.0,1.0,-2.31,-2.31,0.0,0.0,0.0,1.0052860289489753,0.4557411546042337,0.0100378756540076,0.28,0,0,0.0
3.6789169130006485,63,4692.46,-9.4,3.4,-110.5,0.26,-0.38,0.1,0.06,-0.17,0.98,-81.4,0.0,-3.0,-2.31,-2.31,0.01,-0.05,0.0,0.9964436762808021,0.4711687595755899,0.001171612526117638,0.28,0,0,0.0
3.6876442230004614,64,4692.47,-9.3,3.4,-110.5,0.3,-0.33,0.14,0.07,-0.16,0.97,-81.4,0.0,2.0,-2.31,-2.31,0.0,-0.05,0.0,0.9855962662266938,0.46743983570080977,0.009482281577430807,0.28,0,0,0.0
3.6987700650006445,65,4692.48,-9.3,3.5,-110.6,0.29,-0.3,0.18,0.08,-0.16,0.97,-81.4,-0.1,-3.0,-2.31,-2.31,0.01,-0.05,0.0,0.9863569333664158,0.4544227107000705,0.008547182148954668,0.28,0,0,0.0
3.7076071850005974,66,4692.49,-9.3,3.5,-110.6,0.24,-0.28,0.2,0.08,-0.16,0.98,-81.4,0.3,5.0,-2.31,-2.31,-0.02,-0.05,0.0,0.9961927524329817,0.41952353926806063,0.0012628641792589157,0.28,0,0,0.0
3.718550385000526,67,4692.5,-9.3,3.6,-110.6,0.19,-0.25,0.22,0.08,-0.15,0.97,-81.4,0.0,-1.0,-2.31,-2.31,0.0,0.13,0.0,0.9847842403288144,0.38340579025361626,0.009942734966410183,0.28,0,0,0.0
3.727537917000518,68,4692.51,-9.3,3.6,-110.6,0.11,-0.22,0.25,0.08,-0.15,0.97,-81.4,0.0,1.0,-2.31,-2.31,0.0,0.0,0.0,0.9847842403288144,0.3507135583350036,0.00974388026708195,0.28,0,0,0.0
3.739017700000659,69,4692.52,-9.2,3.6,-110.7,0.08,-0.18,0.31,0.08,-0.15,0.97,-81.4,0.0,0.0,-2.31,-2.31,0.0,-0.01,0.0,0.9847842403288144,0.3672873534441392,0.009549002661740302,0.28,0,0,0.0
3.7476437010000154,70,4692.53,-9.2,3.6,-110.7,0.01,-0.11,0.36,0.08,-0.14,0.97,-81.4,0.0,0.0,-2.31,-2.31,0.0,-0.17,0.0,0.9833107342035884,0.3765634076752546,0.010802058611226961,0.28,0,0,0.0
3.7587565339999855,71,4692.54,-9.2,3.6,-110.7,-0.01,-0.03,0.39,0.08,-0.15,0.97,-81.4,0.0,1.0,-2.31,-2.31,0.0,0.13,0.0,0.9847842403288144,0.39127995093027707,0.009141981436280977,0.28,0,0,0.0
3.7677078090000578,72,4692.55,-9.2,3.7,-110.8,-0.04,0.0,0.4,0.08,-0.15,0.98,-81.4,0.0,0.0,-2.31,-2.31,0.0,0.0,0.0,0.9946356116689167,0.4019950248448356,0.0006952021057449187,0.28,0,0,0.0
3.778785608000362,73,4692.56,-9.2,3.6,-110.8,-0.04,0.04,0.41,0.07,-0.15,0.99,-81.4,0.0,-5.0,-2.31,-2.31,0.02,0.0,0.0,1.0037429949942367,0.4138840417314975,0.009606533722443689,0.28,0,0,0.0
3.787570367000626,74,4692.57,-9.2,3.6,-110.9,0.0,0.05,0.42,0.07,-0.15,0.99,-81.4,0.1,2.0,-2.31,-2.31,0.0,0.11,0.0,1.0037429949942367,0.422965719651132,0.00941440304799479,0.28,0,0,0.0
3.7988103130001036,75,4692.58,-9.2,3.6,-110.9,0.0,0.07,0.45,0.06,-0.15,0.99,-81.4,0.0,1.0,-2.31,-2.31,0.0,0.0,0.0,1.0030952098380292,0.455411901469428,0.00859128553395161,0.28,0,0,0.0
3.8075953740008117,76,4692.59,-9.2,3.6,-111.0,-0.02,0.07,0.48,0.05,-0.15,0.99,-81.4,0.0,1.0,-2.31,-2.31,0.0,0.0,0.0,1.002546757014355,0.4854894437575342,0.007881976056071771,0.28,0,0,0.0
3.81868129600025,77,4692.6,-9.2,3.6,-111.0,-0.03,0.05,0.54,0.05,-0.14,0.99,-81.4,0.0,0.0,-2.31,-2.31,0.0,-0.1,0.0,1.0010993956645864,0.5431390245600108,0.006305922412177201,0.28,0,0,0.0
3.827604517000509,78,4692.61,-9.2,3.6,-111.1,-0.05,0.0,0.58,0.05,-0.14,0.99,-81.4,0.0,0.0,-2.31,-2.31,0.0,-0.01,0.0,1.0010993956645864,0.5821511831131154,0.006179803963933694,0.28,0,0,0.0
3.839006559000154,79,4692.62,-9.2,3.6,-111.1,-0.08,-0.04,0.62,0.05,-0.14,0.99,-81.4,0.2,0.0,-2.31,-2.31,0.0,-0.05,0.0,1.0010993956645864,0.626418390534633,0.006056207884654996,0.28,0,0,0.0
3.8475028290004047,80,4692.63,-9.2,3.6,-111.2,-0.12,-0.08,0.63,0.05,-0.14,0.98,-81.4,-0.1,-5.0,-2.31,-2.31,0.03,0.07,0.0,0.9912113800799505,0.646297145282261,0.003755171545981262,0.28,0,0,0.0
3.8588539200000014,81,4692.64,-9.2,3.6,-111.2,-0.17,-0.06,0.64,0.06,-0.14,0.98,-81.4,0.0,2.0,-2.31,-2.31,0.0,-0.08,0.0,0.991766101457395,0.6649060083951717,0.003136441165165982,0.28,0,0,0.0
3.8675939670001753,82,4692.65,-9.3,3.5,-111.3,-0.23,-0.02,0.62,0.06,-0.15,0.99,-81.4,-0.1,0.0,-2.31,-2.31,0.0,0.04,0.0,1.0030952098380292,0.6615889962809237,0.008028813871158946,0.28,0,0,0.0
3.878696312000102,83,4692.66,-9.3,3.5,-111.4,-0.28,0.0,0.57,0.07,-0.16,0.98,-81.4,0.2,5.0,-2.31,-2.31,-0.02,0.23,0.0,0.9954396013822234,0.6350590523722971,0.00036574130704603025,0.28,0,0,0.0
3.8875365120002243,84,4692.67,-9.3,3.5,-111.4,-0.32,0.03,0.49,0.07,-0.16,0.98,-81.4,0.0,-5.0,-2.31,-2.31,0.01,-0.05,0.0,0.9954396013822234,0.5860034129593444,0.0003584264809051163,0.28,0,0,0.0
3.8987970850002966,85,4692.68,-9.4,3.5,-111.5,-0.33,0.05,0.43,0.07,-0.17,0.99,-81.4,0.0,0.0,-2.31,-2.31,0.0,-0.08,0.0,1.0069260151570223,0.5443344560102732,0.011607943450589908,0.28,0,0,0.0
3.9075823070006663,86,4692.69,-9.4,3.5,-111.5,-0.31,0.06,0.4,0.07,-0.17,0.99,-81.4,0.0,0.0,-2.31,-2.31,0.0,-0.08,0.0,1.0069260151570223,0.5096076922496363,0.011375784581578063,0.28,0,0,0.0
3.91876283900001,87,4692.7,-9.4,3.5,-111.5,-0.28,0.08,0.36,0.06,-0.17,0.98,-81.4,-0.2,-5.0,-2.31,-2.31,0.02,-0.05,0.0,0.9964436762808021,0.463033476111609,0.0008755767912507206,0.28,0,0,0.0
3.9274498120003045,88,4692.71,-9.5,3.5,-111.6,-0.25,0.11,0.32,0.06,-0.18,0.98,-81.4,0.0,0.0,-2.31,-2.31,0.0,-0.08,0.0,0.9981983770774224,0.4207136793592526,0.0025776720361135874,0.28,0,0,0.0
3.938813900000241,89,4692.72,-9.5,3.5,-111.6,-0.19,0.14,0.28,0.06,-0.18,0.99,-81.4,0.0,0.0,-2.31,-2.31,0.0,-0.06,0.0,1.0080178569846865,0.3661966684720111,0.0121492089045101,0.28,0,0,0.0
3.9475427430006675,90,4692.73,-9.5,3.5,-111.6,-0.17,0.14,0.23,0.06,-0.18,0.99,-81.4,0.0,0.0,-2.31,-2.31,0.0,0.04,0.0,1.0080178569846865,0.31843366656181316,0.01190622472641989,0.28,0,0,0.0
3.9587490849999085,91,4692.74,-9.6,3.5,-111.6,-0.16,0.14,0.17,0.06,-0.18,0.98,-81.4,0.0,0.0,-2.31,-2.31,0.0,0.03,0.0,0.9981983770774224,0.272213151776324,0.002045009922772678,0.28,0,0,0.0
3.967588438000348,92,4692.75,-9.6,3.4,-111.7,-0.15,0.14,0.11,0.06,-0.18,0.98,-81.4,0.0,2.0,-2.31,-2.31,-0.01,0.04,0.0,0.9981983770774224,0.23280893453645632,0.0020041097243171935,0.28,0,0,0.0
3.978705518999959,93,4692.76,-9.6,3.4,-111.7,-0.15,0.16,0.03,0.06,-0.18,0.97,-81.4,0.2,-1.0,-2.31,-2.31,0.0,0.1,0.0,0.9883825170448939,0.22135943621178655,0.007655515302047111,0.28,0,0,0.0
3.987591618000806,94,4692.77,-9.6,3.4,-111.7,-0.12,0.17,-0.02,0.06,-0.18,0.97,-81.4,-0.1,4.0,-2.31,-2.31,-0.01,0.0,0.0,0.9883825170448939,0.20904544960366872,0.0075024049960061845,0.28,0,0,0.0
3.9987786550000237,95,4692.78,-9.7,3.4,-111.7,-0.07,0.18,-0.13,0.05,-0.17,0.97,-81.4,0.0,-2.0,-2.31,-2.31,0.0,0.07,0.0,0.9860527369263775,0.23280893453645632,0.009635541412232107,0.28,0,0,0.0
4.007425069000419,96,4692.79,-9.7,3.4,-111.6,-0.02,0.18,-0.19,0.04,-0.18,0.97,-81.4,0.1,2.0,-2.31,-2.31,0.0,-0.01,0.0,0.9873702446397704,0.26248809496813374,0.008151673024862416,0.28,0,0,0.0
4.018818941000063,97,4692.8,-9.7,3.3,-111.6,0.0,0.14,-0.25,0.04,-0.18,0.99,-81.4,-0.1,-1.0,-2.31,-2.31,0.0,-0.02,0.0,1.0070253224224304,0.2865309756378881,0.011273336662641631,0.28,0,0,0.0
4.027518966000571,98,4692.81,-9.7,3.3,-111.6,-0.02,0.08,-0.3,0.03,-0.17,0.99,-81.4,0.1,0.0,-2.31,-2.31,0.0,0.19,0.0,1.004937809021036,0.3111269837220809,0.009002106796022202,0.28,0,0,0.0
4.038806644000033,99,4692.82,-9.7,3.3,-111.5,-0.03,0.06,-0.36,0.03,-0.17,0.98,-81.4,-0.2,0.0,-2.31,-2.31,0.0,0.02,0.0,0.9950879358127099,0.3661966684720111,0.0008308110840576921,0.28,0,0,0.0
4.047526128000754,100,4692.83,-9.7,3.3,-111.5,-0.05,0.01,-0.43,0.03,-0.16,0.99,-81.4,0.0,1.0,-2.31,-2.31,0.0,-0.06,0.0,1.0032945728947207,0.4330127018922193,0.007228309477994022,0.28,0,0,0.0
4.058781349000128,101,4692.84,-9.7,3.3,-111.5,-0.06,-0.05,-0.5,0.03,-0.16,0.99,-81.4,0.1,0.0,-2.31,-2.31,0.0,0.07,0.0,1.0032945728947207,0.5060632371551999,0.007083743288434086,0.28,0,0,0.0
4.0675768420005625,102,4692.85,-9.7,3.3,-111.4,-0.06,-0.12,-0.57,0.03,-0.17,0.99,-81.4,0.0,5.0,-2.31,-2.31,-0.02,-0.08,0.0,1.004937809021036,0.585576638878294,0.008552439826454372,0.28,0,0,0.0
4.078823435000231,103,4692.86,-9.7,3.3,-111.3,-0.01,-0.15,-0.64,0.02,-0.17,0.99,-81.4,0.0,-8.0,-2.31,-2.31,0.03,-0.04,0.0,1.0046890066085128,0.6574191965557441,0.00813756466565263,0.28,0,0,0.0
4.087551567999981,104,4692.87,-9.7,3.3,-111.3,-0.01,-0.16,-0.68,0.03,-0.17,0.99,-81.4,0.2,4.0,-2.31,-2.31,0.0,-0.08,0.0,1.004937809021036,0.6986415389883428,0.008218639736612188,0.28,0,0,0.0
4.098756930000491,105,4692.88,-9.7,3.3,-111.2,-0.05,-0.17,-0.73,0.04,-0.17,0.99,-81.4,-0.1,0.0,-2.31,-2.31,0.0,-0.08,0.0,1.0052860289489753,0.7511990415329348,0.00839552247126063,0.28,0,0,0.0
4.107399123000505,106,4692.89,-9.7,3.4,-111.1,-0.01,-0.19,-0.76,0.05,-0.18,0.98,-81.4,0.0,2.0,-2.31,-2.31,0.0,0.02,0.0,0.9976472322419383,0.7834538914320357,0.000741591248939133,0.28,0,0,0.0
4.118710178000583,107,4692.9,-9.7,3.4,-111.1,0.08,-0.18,-0.79,0.06,-0.17,0.97,-81.4,0.0,-1.0,-2.31,-2.31,0.0,-0.06,0.0,0.986610358753647,0.8141867107733951,0.010089376594565103,0.28,0,0,0.0
4.127425210000183,108,4692.91,-9.7,3.4,-111.0,0.07,-0.2,-0.79,0.08,-0.16,0.98,-81.4,0.0,2.0,-2.31,-2.31,0.0,0.0,0.0,0.9961927524329817,0.8179242018671413,0.000496843256925783,0.28,0,0,0.0
4.138892121000026,109,4692.92,-9.7,3.5,-110.9,0.06,-0.18,-0.76,0.09,-0.15,0.97,-81.4,0.0,4.0,-2.31,-2.31,-0.02,0.06,0.0,0.9856469956328178,0.7833262411026456,0.010821748055947933,0.28,0,0,0.0
4.147640027000307,110,4692.93,-9.7,3.5,-110.9,0.06,-0.11,-0.7,0.1,-0.14,0.95,-81.4,0.0,0.0,-2.31,-2.31,0.0,0.06,0.0,0.9654532614269838,0.7111258679024409,0.03039517261654623,0.28,0,0,0.0
4.158590036000533,111,4692.94,-9.7,3.6,-110.8,-0.01,-0.03,-0.63,0.1,-0.13,0.95,-81.4,0.1,0.0,-2.31,-2.31,0.0,0.01,0.0,0.9640539403996023,0.6307931515164064,0.031158603771049176,0.28,0,0,0.0
4.167600276000485,112,4692.95,-9.6,3.6,-110.7,-0.04,0.04,-0.57,0.1,-0.13,0.95,-81.4,-0.1,0.0,-2.31,-2.31,0.0,-0.11,0.0,0.9640539403996023,0.5728001396647874,0.030535431695628223,0.28,0,0,0.0
4.1788147090001075,113,4692.96,-9.6,3.6,-110.7,-0.16,0.12,-0.52,0.09,-0.14,0.96,-81.4,0.1,-1.0,-2.31,-2.31,0.0,-0.03,0.0,0.9743202758846805,0.5571355310873648,0.01986371428633904,0.28,0,0,0.0
4.187531544000194,114,4692.97,-9.6,3.6,-110.6,-0.24,0.14,-0.49,0.08,-0.15,0.97,-81.4,-0.1,0.0,-2.31,-2.31,0.0,-0.01,0.0,0.9847842403288144,0.5632938842203065,0.009211754845361075,0.28,0,0,0.0
4.198798564000754,115,4692.98,-9.7,3.6,-110.6,-0.24,0.15,-0.46,0.07,-0.15,0.97,-81.4,0.1,-1.0,-2.31,-2.31,0.0,0.06,0.0,0.9840223574695851,0.540092584655631,0.009774164950498543,0.28,0,0,0.0
4.2074421670004085,116,4692.99,-9.7,3.6,-110.5,-0.24,0.15,-0.4,0.06,-0.16,0.97,-81.4,-0.1,-1.0,-2.31,-2.31,0.0,-0.06,0.0,0.9849365461794988,0.49000000000000005,0.008682776715773222,0.28,0,0,0.0
4.218656978000581,117,4693.0,-9.7,3.6,-110.5,-0.21,0.15,-0.36,0.06,-0.17,0.97,-81.4,0.0,1.0,-2.31,-2.31,0.01,-0.06,0.0,0.986610358753647,0.442944691807002,0.006868784858792498,0.28,0,0,0.0
4.227417654999954,118,4693.01,-9.7,3.6,-110.4,-0.13,0.15,-0.33,0.05,-0.18,0.97,-81.4,0.0,2.0,-2.31,-2.31,0.0,-0.02,0.0,0.9878258955909184,0.38509739027939416,0.00554018306109072,0.28,0,0,0.0
4.238944521000121,119,4693.02,-9.7,3.6,-110.4,-0.04,0.12,-0.29,0.04,-0.18,0.97,-81.4,0.0,0.0,-2.31,-2.31,0.0,-0.12,0.0,0.9873702446397704,0.3163858403911275,0.005875917331993885,0.28,0,0,0.0
4.2474906800007375,120,4693.03,-9.7,3.6,-110.4,0.02,0.06,-0.29,0.04,-0.18,0.97,-81.4,0.0,0.0,-2.31,-2.31,0.0,-0.03,0.0,0.9873702446397704,0.2968164415931166,0.0057583989853540185,0.28,0,0,0.0
4.258793370000603,121,4693.04,-9.7,3.6,-110.4,0.07,-0.03,-0.3,0.03,-0.17,0.97,-81.4,0.0,-2.0,-2.31,-2.31,0.0,-0.03,0.0,0.9852410872471773,0.3095157508108432,0.007729805250388244,0.28,0,0,0.0
4.267436518000068,122,4693.05,-9.7,3.6,-110.3,0.12,-0.13,-0.31,0.02,-0.17,0.98,-81.4,0.0,-1.0,-2.31,-2.31,0.0,-0.06,0.0,0.994836670011716,0.35693136595149494,0.0018284619638675448,0.28,0,0,0.0
4.278675728000053,123,4693.06,-9.7,3.6,-110.3,0.16,-0.19,-0.31,0.03,-0.16,0.97,-81.4,0.0,0.0,-2.31,-2.31,0.0,-0.04,0.0,0.9835649444749441,0.39724048132082407,0.009254398301446254,0.28,0,0,0.0
4.287463611000021,124,4693.07,-9.7,3.6,-110.3,0.17,-0.26,-0.3,0.04,-0.16,0.98,-81.4,0.0,0.0,-2.31,-2.31,0.0,-0.11,0.0,0.9937806599043875,0.43185645763378366,0.0009420907854371663,0.28,0,0,0.0
4.2986939450001955,125,4693.08,-9.7,3.6,-110.2,0.19,-0.33,-0.31,0.04,-0.17,0.99,-81.4,0.0,-1.0,-2.31,-2.31,0.0,-0.05,0.0,1.0052860289489753,0.49101934788763674,0.012198510633424586,0.28,0,0,0.0
4.307400174000577,126,4693.09,-9.7,3.7,-110.2,0.23,-0.35,-0.32,0.06,-0.18,0.99,-81.4,0.0,1.0,-2.31,-2.31,0.0,0.08,0.0,1.0080178569846865,0.5270673581241775,0.014631731895753064,0.28,0,0,0.0
4.318703106000612,127,4693.1,-9.6,3.7,-110.2,0.16,-0.37,-0.29,0.07,-0.17,1.0,-81.4,-0.1,1.0,-2.31,-2.31,0.0,-0.02,0.0,1.0167595585978033,0.4965883607174054,0.02290596483869245,0.28,0,0,0.0
4.327424623000297,128,4693.11,-9.6,3.7,-110.2,0.25,-0.35,-0.26,0.08,-0.2,1.0,-81.4,0.0,0.0,-2.31,-2.31,0.0,-0.08,0.0,1.0229369482035537,0.5025932749251625,0.02850168735555403,0.28,0,0,0.0
4.3388342719999855,129,4693.12,-9.6,3.8,-110.2,0.29,-0.29,-0.19,0.09,-0.19,1.0,-81.4,0.0,0.0,-2.31,-2.31,0.0,-0.05,0.0,1.0218610473053564,0.4519955751995809,0.026877270728209557,0.28,0,0,0.0
4.3475353850008105,130,4693.13,-9.6,3.8,-110.1,0.42,-0.24,-0.14,0.09,-0.19,0.98,-81.4,0.0,-1.0,-2.31,-2.31,0.0,-0.08,0.0,1.002297361066066,0.5035871324805669,0.007167312799140624,0.28,0,0,0.0
4.3588199940004415,131,4693.14,-9.6,3.9,-110.1,0.46,-0.18,-0.09,0.09,-0.17,0.98,-81.4,0.1,1.0,-2.31,-2.31,0.0,-0.02,0.0,0.9986991538997116,0.5020956084253276,0.003497723520130558,0.28,0,0,0.0
4.367519972000082,132,4693.15,-9.5,3.9,-110.1,0.48,-0.16,-0.07,0.09,-0.16,0.97,-81.4,0.0,0.0,-2.31,-2.31,0.0,0.13,0.0,0.9872183142547548,0.5107837115648853,0.007823453802329738,0.28,0,0,0.0
4.378735563000191,133,4693.16,-9.5,3.9,-110.1,0.42,-0.13,-0.04,0.09,-0.15,0.97,-81.4,0.0,0.0,-2.31,-2.31,0.0,-0.06,0.0,0.9856469956328178,0.4414748010928823,0.009206876975781486,0.28,0,0,0.0
4.387538081999992,134,4693.17,-9.4,4.0,-110.1,0.27,-0.11,-0.03,0.08,-0.14,0.97,-81.4,0.0,2.0,-2.31,-2.31,0.0,0.04,0.0,0.9833107342035884,0.2930870177950569,0.011312275636910618,0.28,0,0,0.0
4.398856348000663,135,4693.18,-9.4,4.0,-110.1,0.11,-0.1,-0.05,0.08,-0.14,0.96,-81.4,0.0,0.0,-2.31,-2.31,0.0,0.15,0.0,0.9734474818910366,0.15684387141358122,0.020752017390473165,0.28,0,0,0.0
4.407545908000429,136,4693.19,-9.4,4.0,-110.1,-0.02,-0.09,-0.07,0.08,-0.14,0.95,-81.4,0.0,1.0,-2.31,-2.31,0.0,-0.08,0.0,0.9635870484808313,0.11575836902790225,0.030000201784664893,0.28,0,0,0.0
4.418711559000258,137,4693.2,-9.4,4.0,-110.1,-0.08,-0.09,-0.08,0.08,-0.15,0.96,-81.4,0.0,1.0,-2.31,-2.31,0.0,0.16,0.0,0.9749358953285082,0.1445683229480096,0.01827832783824823,0.28,0,0,0.0
4.427503122999951,138,4693.21,-9.4,4.1,-110.1,-0.1,-0.12,-0.07,0.08,-0.16,0.96,-81.4,-0.1,-1.0,-2.31,-2.31,0.0,-0.02,0.0,0.9765244492586962,0.17117242768623692,0.016355978429899,0.28,0,0,0.0
4.438753450000149,139,4693.22,-9.4,4.1,-110.1,-0.11,-0.12,-0.08,0.08,-0.17,0.96,-81.4,0.1,0.0,-2.31,-2.31,0.0,0.15,0.0,0.9782126558167197,0.18138357147217055,0.014374416434438042,0.28,0,0,0.0
4.447392851000586,140,4693.23,-9.4,4.1,-110.1,-0.12,-0.11,-0.11,0.08,-0.18,0.97,-81.4,0.0,0.0,-2.31,-2.31,0.0,0.0,0.0,0.9897979591815695,0.196468827043885,0.002733330808196377,0.28,0,0,0.0
4.458868151000388,141,4693.24,-9.5,4.1,-110.1,-0.09,-0.11,-0.16,0.07,-0.19,0.97,-81.4,-0.1,1.0,-2.31,-2.31,0.0,-0.02,0.0,0.9909086738948246,0.21400934559032697,0.0015901637730424412,0.28,0,0,0.0
4.4675176190003185,142,4693.25,-9.5,4.1,-110.1,0.0,-0.14,-0.23,0.07,-0.2,0.98,-81.4,0.0,2.0,-2.31,-2.31,0.0,0.0,0.0,1.002646498024104,0.26925824035672524,0.00994470714911233,0.28,0,0,0.0
4.478821286000311,143,4693.26,-9.5,4.1,-110.0,0.1,-0.18,-0.31,0.06,-0.2,0.98,-81.4,0.0,1.0,-2.31,-2.31,0.0,-0.08,0.0,1.0019980039900278,0.3721558813185679,0.009110288852735349,0.28,0,0,0.0
4.487486901000011,144,4693.27,-9.5,4.2,-110.0,0.18,-0.21,-0.4,0.06,-0.2,0.98,-81.4,0.2,0.0,-2.31,-2.31,0.0,-0.05,0.0,1.0019980039900278,0.48631265663151313,0.008928083075680604,0.28,0,0,0.0
4.498800273000597,145,4693.28,-9.5,4.2,-110.0,0.22,-0.22,-0.49,0.06,-0.19,0.98,-81.4,0.0,1.0,-2.31,-2.31,0.0,-0.07,0.0,1.0000499987500624,0.580430874437258,0.006840476279000862,0.28,0,0,0.0
4.507407194000734,146,4693.29,-9.5,4.2,-109.9,0.25,-0.2,-0.56,0.07,-0.19,0.98,-81.4,-0.2,-1.0,-2.31,-2.31,0.0,0.0,0.0,1.00069975517135,0.6450581369148055,0.007340428046282654,0.28,0,0,0.0
4.518681121000554,147,4693.3,-9.5,4.3,-109.9,0.29,-0.15,-0.6,0.08,-0.18,0.99,-81.4,0.0,-2.0,-2.31,-2.31,0.0,0.0,0.0,1.0094057657849989,0.6830812543175226,0.015725509886732936,0.28,0,0,0.0
4.527458438999929,148,4693.31,-9.4,4.3,-109.8,0.34,-0.12,-0.63,0.09,-0.17,0.98,-81.4,0.2,3.0,-2.31,-2.31,0.0,0.04,0.0,0.9986991538997116,0.7258787777583803,0.004918520041416796,0.28,0,0,0.0
4.538550938000299,149,4693.32,-9.4,4.3,-109.8,0.31,-0.06,-0.66,0.09,-0.16,0.98,-81.4,-0.2,0.0,-2.31,-2.31,0.0,0.0,0.0,0.9970456358662826,0.7316419889536139,0.003199701967827928,0.28,0,0,0.0
4.551070602000436,150,4693.33,-9.4,4.3,-109.7,0.23,-0.01,-0.68,0.09,-0.15,0.98,-81.4,0.0,0.0,-2.31,-2.31,0.0,-0.15,0.0,0.9954898291795853,0.7179136438319027,0.0016110173755080615,0.28,0,0,0.0
4.559587882999949,151,4693.34,-9.3,4.4,-109.6,0.15,0.07,-0.71,0.09,-0.14,0.98,-81.4,0.0,1.0,-2.31,-2.31,0.0,0.03,0.0,0.9940321926376429,0.7290404652692469,0.00015031321689429333,0.28,0,0,0.0
4.567540420000114,152,4693.35,-9.3,4.4,-109.5,0.09,0.16,-0.72,0.08,-0.15,0.98,-81.4,0.0,-2.0,-2.31,-2.31,0.0,-0.08,0.0,0.9946356116689167,0.7430343195303969,0.0007386576032047953,0.28,0,0,0.0
4.5788502960003825,153,4693.36,-9.3,4.4,-109.5,0.1,0.21,-0.74,0.06,-0.16,0.99,-81.4,0.0,0.0,-2.31,-2.31,0.0,-0.11,0.0,1.0046392387319938,0.7756932383358772,0.010527438972956271,0.28,0,0,0.0
4.5876306410000325,154,4693.37,-9.3,4.3,-109.4,0.17,0.21,-0.77,0.05,-0.16,0.99,-81.4,0.0,-4.0,-2.31,-2.31,0.01,-0.11,0.0,1.0040916292848974,0.8160269603389338,0.009780232935342692,0.28,0,0,0.0
4.598878464000336,155,4693.38,-9.2,4.3,-109.3,0.2,0.17,-0.8,0.04,-0.16,0.99,-81.4,0.0,-1.0,-2.31,-2.31,0.0,-0.02,0.0,1.0036433629531956,0.841961994391671,0.009145327271568027,0.28,0,0,0.0
4.607504768000581,156,4693.39,-9.2,4.3,-109.2,0.21,0.09,-0.84,0.02,-0.16,0.99,-81.4,0.0,2.0,-2.31,-2.31,0.0,-0.05,0.0,1.0030453628824572,0.8705170877128144,0.00837638065681301,0.28,0,0,0.0
4.618897725000352,157,4693.4,-9.2,4.3,-109.1,0.26,-0.03,-0.88,0.01,-0.15,0.98,-81.4,0.0,0.0,-2.31,-2.31,0.0,0.1,0.0,0.9914635646356349,0.9180958555619342,0.0031413092382091,0.28,0,0,0.0
4.627521128000808,158,4693.41,-9.1,4.3,-109.0,0.3,-0.14,-0.89,0.01,-0.14,0.98,-81.4,0.1,3.0,-2.31,-2.31,0.0,-0.01,0.0,0.99,0.9495788540189803,0.0045127763963671574,0.28,0,0,0.0
4.638797407000311,159,4693.42,-9.1,4.3,-109.0,0.24,-0.26,-0.9,0.01,-0.14,0.98,-81.4,0.0,-4.0,-2.31,-2.31,0.01,-0.01,0.0,0.99,0.9670573922989266,0.004422520868439861,0.28,0,0,0.0
4.64753652500076,160,4693.43,-9.1,4.3,-108.9,0.19,-0.38,-0.93,0.02,-0.14,0.98,-81.4,0.0,2.0,-2.31,-2.31,0.0,0.13,0.0,0.990151503558925,1.0224480426897007,0.004185596963324545,0.28,0,0,0.0
4.658732802000486,161,4693.44,-9.0,4.3,-108.8,0.22,-0.48,-0.95,0.04,-0.15,0.98,-81.4,-0.1,2.0,-2.31,-2.31,-0.02,0.07,0.0,0.9922197337283712,1.086876257906115,0.002075019458000704,0.28,0,0,0.0
4.6675891530003355,162,4693.45,-9.0,4.4,-108.6,0.18,-0.56,-0.99,0.09,-0.13,0.98,-81.4,0.0,-1.0,-2.31,-2.31,0.0,-0.01,0.0,0.9926731586982696,1.1515641536623134,0.001589162598340299,0.28,0,0,0.0
4.678860370000621,163,4693.46,-9.0,4.4,-108.6,0.18,-0.56,-0.99,0.09,-0.13,0.98,-81.4,0.1,1.0,-2.31,-2.31,0.0,-0.02,0.0,0.9926731586982696,1.1515641536623134,0.0015573793463734553,0.28,0,0,0.0
4.687522473000172,164,4693.47,-8.9,4.5,-108.5,0.12,-0.54,-0.97,0.1,-0.13,0.98,-81.4,-0.2,-4.0,-2.31,-2.31,0.01,0.13,0.0,0.9936297097007516,1.1166467659918244,0.0005888117770135315,0.28,0,0,0.0
4.698881344000256,165,4693.48,-8.9,4.7,-108.3,-0.04,-0.44,-0.95,0.11,-0.12,0.98,-81.4,0.0,1.0,-2.31,-2.31,0.0,-0.07,0.0,0.9934284070832683,1.0477117924314874,0.0007743121066069447,0.28,0,0,0.0
4.707502270000077,166,4693.49,-8.9,4.7,-108.3,-0.04,-0.44,-0.95,0.11,-0.12,0.98,-81.4,0.0,-1.0,-2.31,-2.31,0.01,-0.07,0.0,0.9934284070832683,1.0477117924314874,0.0007588258644748436,0.28,0,0,0.0
4.718815398000515,167,4693.5,-8.9,4.8,-108.3,-0.1,-0.39,-0.91,0.1,-0.13,0.98,-81.4,0.1,1.0,-2.31,-2.31,0.0,-0.07,0.0,0.9936297097007516,0.99508793581271,0.0005463727820517184,0.28,0,0,0.0
4.727505030999964,168,4693.51,-8.9,4.8,-108.2,-0.09,-0.35,-0.87,0.11,-0.14,0.98,-81.4,-0.1,1.0,-2.31,-2.31,0.0,0.04,0.0,0.9960421677820673,0.9420721840708386,0.0018287635932787705,0.28,0,0,0.0
4.738838976000807,169,4693.52,-8.9,4.9,-108.0,-0.08,-0.27,-0.74,0.1,-0.15,0.99,-81.4,0.0,-1.0,-2.31,-2.31,0.0,-0.14,0.0,1.0062802790475425,0.7917701686727027,0.011825537361578875,0.28,0,0,0.0
4.747532178000256,170,4693.53,-8.9,4.9,-108.0,-0.08,-0.27,-0.74,0.1,-0.15,0.99,-81.4,-0.2,-3.0,-2.31,-2.31,0.01,-0.1,0.0,1.0062802790475425,0.7917701686727027,0.011589026614347242,0.28,0,0,0.0
4.758728422000786,171,4693.54,-8.9,5.0,-108.0,-0.03,-0.27,-0.69,0.11,-0.15,0.98,-81.4,0.1,0.0,-2.31,-2.31,0.0,0.05,0.0,0.9974968671630001,0.7415524256584964,0.0027495024352087727,0.28,0,0,0.0
4.767590542000107,172,4693.55,-8.9,5.0,-107.9,-0.1,-0.23,-0.62,0.11,-0.16,0.99,-81.4,0.0,0.0,-2.31,-2.31,0.0,0.14,0.0,1.0088607436113273,0.6688049042882386,0.013831111305865229,0.28,0,0,0.0
4.778851349000433,173,4693.56,-8.9,5.1,-107.8,-0.1,-0.19,-0.55,0.11,-0.16,0.97,-81.4,-0.1,1.0,-2.31,-2.31,0.0,-0.01,0.0,0.9892421341612982,0.5904235767650204,0.005671748181280467,0.28,0,0,0.0
4.787629295000443,174,4693.57,-8.9,5.1,-107.8,-0.05,-0.15,-0.46,0.12,-0.16,0.99,-81.4,0.0,0.0,-2.31,-2.31,0.0,0.01,0.0,1.01,0.4864154602806124,0.01478439530427289,0.28,0,0,0.0
4.7988848920003875,175,4693.58,-8.9,5.2,-107.8,0.0,-0.12,-0.35,0.12,-0.15,0.98,-81.4,0.1,-3.0,-2.31,-2.31,0.01,-0.01,0.0,0.9986490875177326,0.37,0.0033648131655653613,0.28,0,0,0.0
4.811606904000655,176,4693.59,-8.9,5.2,-107.7,0.11,-0.06,-0.16,0.13,-0.14,0.98,-81.4,0.0,0.0,-2.31,-2.31,0.0,0.11,0.0,0.9984487968844471,0.20322401432901577,0.0031012320816342642,0.28,0,0,0.0
4.819576056000187,177,4693.6,-8.9,5.2,-107.7,0.11,-0.06,-0.16,0.13,-0.14,0.98,-81.4,0.0,-1.0,-2.31,-2.31,0.0,-0.02,0.0,0.9984487968844471,0.20322401432901577,0.0030392074400016345,0.28,0,0,0.0
4.827499526000793,178,4693.61,-8.8,5.3,-107.7,0.0,0.01,-0.09,0.12,-0.13,0.99,-81.4,0.0,-3.0,-2.31,-2.31,0.0,0.05,0.0,1.0056838469419702,0.09055385138137416,0.010068772347574306,0.28,0,0,0.0
4.83879948699996,179,4693.62,-8.8,5.3,-107.7,-0.1,0.08,-0.05,0.12,-0.14,0.99,-81.4,0.1,0.0,-2.31,-2.31,0.0,0.04,0.0,1.0070253224224304,0.1374772708486752,0.01118204287147373,0.28,0,0,0.0
4.847475141000359,180,4693.63,-8.9,5.3,-107.7,-0.13,0.11,-0.03,0.12,-0.14,0.98,-81.4,-0.1,1.0,-2.31,-2.31,0.0,0.05,0.0,0.9971960689854328,0.17291616465790582,0.0013257336457865865,0.28,0,0,0.0
4.858729905000473,181,4693.64,-8.9,5.3,-107.7,-0.12,0.12,-0.01,0.11,-0.14,0.98,-81.4,0.0,-2.0,-2.31,-2.31,0.0,-0.07,0.0,0.9960421677820673,0.16999999999999998,0.00016839579357275092,0.28,0,0,0.0
4.867507988000398,182,4693.65,-8.9,5.3,-107.7,-0.15,0.11,-0.01,0.09,-0.14,0.98,-81.4,0.0,4.0,-2.31,-2.31,-0.02,0.01,0.0,0.9940321926376429,0.18627936010197158,0.0018047477638346576,0.28,0,0,0.0
4.878803889000665,183,4693.66,-8.9,5.3,-107.7,-0.15,0.11,-0.01,0.09,-0.14,0.98,-81.4,0.0,0.0,-2.31,-2.31,0.0,-0.01,0.0,0.9940321926376429,0.18627936010197158,0.00176865280855798,0.28,0,0,0.0
4.887561199000629,184,4693.67,-8.9,5.3,-107.7,-0.24,0.07,0.0,0.08,-0.15,0.98,-81.4,0.0,-2.0,-2.31,-2.31,0.0,0.11,0.0,0.9946356116689167,0.25,0.0011419291017384925,0.28,0,0,0.0
4.898857901000156,185,4693.68,-9.0,5.2,-107.7,-0.26,-0.02,0.04,0.07,-0.16,0.98,-81.4,0.1,3.0,-2.31,-2.31,0.0,-0.13,0.0,0.9954396013822234,0.2638181191654584,0.0003311806006630613,0.28,0,0,0.0
4.907418112999949,186,4693.69,-9.0,5.2,-107.7,-0.26,-0.02,0.04,0.07,-0.16,0.98,-81.4,-0.2,-1.0,-2.31,-2.31,0.0,0.17,0.0,0.9954396013822234,0.2638181191654584,0.000324556988649749,0.28,0,0,0.0
4.918740834000346,187,4693.7,-9.0,5.2,-107.7,-0.24,-0.16,0.03,0.06,-0.17,0.98,-81.4,0.0,0.0,-2.31,-2.31,0.0,-0.01,0.0,0.9964436762808021,0.29,0.0006659275517303387,0.28,0,0,0.0
4.927416786000322,188,4693.71,-9.0,5.3,-107.7,-0.17,-0.29,0.03,0.07,-0.17,0.97,-81.4,-0.1,0.0,-2.31,-2.31,0.0,-0.07,0.0,0.98726896031426,0.3374907406137241,0.008338612646515475,0.28,0,0,0.0
4.938615406000281,189,4693.72,-9.0,5.3,-107.7,-0.1,-0.37,0.03,0.08,-0.17,0.96,-81.4,-0.1,-1.0,-2.31,-2.31,0.0,0.05,0.0,0.9782126558167197,0.38444765573482176,0.017047018801174763,0.28,0,0,0.0
4.947507591000431,190,4693.73,-9.1,5.3,-107.7,-0.07,-0.34,0.04,0.1,-0.17,0.96,-81.4,0.1,0.0,-2.31,-2.31,0.01,-0.04,0.0,0.9800510190801294,0.349428104193123,0.014904482427009813,0.28,0,0,0.0
4.958730912000647,191,4693.74,-9.1,5.4,-107.7,0.05,-0.16,0.07,0.1,-0.17,0.98,-81.4,0.0,-1.0,-2.31,-2.31,0.0,-0.07,0.0,0.9996499387285531,0.1816590212458495,0.004600548476985655,0.28,0,0,0.0
4.967535858000701,192,4693.75,-9.1,5.4,-107.7,0.05,-0.16,0.07,0.1,-0.17,0.98,-81.4,0.1,1.0,-2.31,-2.31,0.0,-0.02,0.0,0.9996499387285531,0.1816590212458495,0.004508537507445953,0.28,0,0,0.0
4.978736046999984,193,4693.76,-9.1,5.4,-107.7,0.19,-0.11,0.0,0.07,-0.16,0.98,-81.4,-0.1,-1.0,-2.31,-2.31,0.0,-0.07,0.0,0.9954396013822234,0.21954498400100148,0.00029223615789397694,0.28,0,0,0.0
4.987645550000707,194,4693.77,-9.1,5.4,-107.7,0.19,-0.11,0.0,0.07,-0.16,0.98,-81.4,0.3,2.0,-2.31,-2.31,0.0,0.16,0.0,0.9954396013822234,0.21954498400100148,0.0002863914347360774,0.28,0,0,0.0
4.998821799000325,195,4693.78,-9.1,5.4,-107.7,0.26,-0.13,0.0,0.06,-0.15,0.99,-81.4,-0.5,0.0,-2.31,-2.31,0.0,-0.1,0.0,1.0030952098380292,0.2906888370749727,0.00778315989273104,0.28,0,0,0.0
5.00746633900053,196,4693.79,-9.0,5.4,-107.7,0.32,-0.19,0.0,0.06,-0.14,0.99,-81.4,0.0,0.0,-2.31,-2.31,0.0,0.1,0.0,1.0016486409914407,0.3721558813185679,0.0062098592252196605,0.28,0,0,0.0
5.0188998910007285,197,4693.8,-9.0,5.4,-107.7,0.35,-0.22,0.0,0.07,-0.13,0.98,-81.4,0.0,0.0,-2.31,-2.31,0.0,0.11,0.0,0.9910600385445879,0.41340053217188777,0.004291168357200448,0.28,0,0,0.0
5.027424760000031,198,4693.81,-8.9,5.4,-107.7,0.3,-0.27,0.01,0.08,-0.13,0.98,-81.4,0.1,1.0,-2.31,-2.31,0.0,-0.07,0.0,0.9918165152889923,0.403732584763727,0.0034639977805401845,0.28,0,0,0.0
5.038597158000812,199,4693.82,-8.9,5.4,-107.8,0.29,-0.3,0.05,0.09,-0.13,0.98,-81.4,0.0,1.0,-2.31,-2.31,0.0,0.02,0.0,0.9926731586982696,0.42023802778901387,0.002555207283837624,0.28,0,0,0.0
5.047529609000776,200,4693.83,-8.9,5.5,-107.8,0.32,-0.36,0.1,0.1,-0.13,0.96,-81.4,0.0,-2.0,-2.31,-2.31,0.02,-0.07,0.0,0.973909646733207,0.4919349550499537,0.020892344863922108,0.28,0,0,0.0
5.0588332080005785,201,4693.84,-8.8,5.5,-107.8,0.29,-0.36,0.13,0.11,-0.13,0.95,-81.4,0.0,2.0,-2.31,-2.31,0.0,-0.01,0.0,0.9651424765287248,0.4802082881417188,0.0290663247670363,0.28,0,0,0.0
5.067438183999911,202,4693.85,-8.8,5.6,-107.8,0.23,-0.35,0.14,0.11,-0.14,0.95,-81.4,-0.2,1.0,-2.31,-2.31,-0.01,-0.01,0.0,0.9665402216152207,0.44158804331639234,0.027115208086929576,0.28,0,0,0.0
5.078735519000475,203,4693.86,-8.8,5.6,-107.8,0.16,-0.32,0.13,0.12,-0.14,0.95,-81.4,-0.1,0.0,-2.31,-2.31,0.0,0.01,0.0,0.9677293009927931,0.38065732621348564,0.025407606135170013,0.28,0,0,0.0
5.087582817000111,204,4693.87,-8.8,5.7,-107.9,0.02,-0.2,0.07,0.13,-0.16,0.95,-81.4,-0.1,3.0,-2.31,-2.31,0.0,0.01,0.0,0.972111104761179,0.21283796653792764,0.020605286319448357,0.28,0,0,0.0
5.098766508000153,205,4693.88,-8.8,5.7,-107.9,0.02,-0.2,0.07,0.13,-0.16,0.95,-81.4,0.0,-2.0,-2.31,-2.31,0.0,-0.01,0.0,0.972111104761179,0.21283796653792764,0.020193180593059412,0.28,0,0,0.0
5.107272286000807,206,4693.89,-8.8,5.7,-107.9,0.11,-0.16,0.02,0.13,-0.17,0.96,-81.4,0.0,2.0,-2.31,-2.31,0.0,-0.1,0.0,0.9835649444749441,0.19519221295943134,0.008564554061708418,0.28,0,0,0.0
5.11875114600025,207,4693.9,-8.8,5.8,-107.9,0.24,-0.13,0.0,0.13,-0.17,0.96,-81.4,0.0,0.0,-2.31,-2.31,0.0,-0.1,0.0,0.9835649444749441,0.2729468812791236,0.00839326298047427,0.28,0,0,0.0
5.127294482000252,208,4693.91,-8.7,5.8,-107.9,0.32,-0.11,-0.02,0.13,-0.16,0.97,-81.4,-0.1,0.0,-2.31,-2.31,0.0,-0.07,0.0,0.9916652661054535,0.33896902513356586,0.0002870825229656093,0.28,0,0,0.0
5.138532399000724,209,4693.92,-8.7,5.8,-107.9,0.31,-0.11,-0.04,0.13,-0.15,0.97,-81.4,0.1,2.0,-2.31,-2.31,-0.01,0.14,0.0,0.990101004948485,0.3313608305156178,0.0018143168063354809,0.28,0,0,0.0
5.146984669000631,210,4693.93,-8.7,5.9,-107.9,0.27,-0.1,-0.02,0.13,-0.14,0.97,-81.4,0.0,-1.0,-2.31,-2.31,0.0,0.1,0.0,0.9886354231970448,0.28861739379323625,0.0032143005866202,0.28,0,0,0.0
5.158847071000309,211,4693.94,-8.6,5.9,-107.9,0.17,-0.02,0.08,0.12,-0.13,0.97,-81.4,-0.2,-3.0,-2.31,-2.31,0.01,-0.01,0.0,0.9860020283954795,0.18894443627691188,0.005730741480421853,0.28,0,0,0.0
5.167574455000249,212,4693.95,-8.6,5.9,-107.9,0.17,-0.02,0.08,0.12,-0.13,0.97,-81.4,0.0,2.0,-2.31,-2.31,0.0,0.14,0.0,0.9860020283954795,0.18894443627691188,0.005616126650813458,0.28,0,0,0.0
5.179055628000242,213,4693.96,-8.6,5.9,-107.9,0.17,0.02,0.16,0.11,-0.15,0.98,-81.4,0.1,0.0,-2.31,-2.31,0.0,-0.14,0.0,0.9974968671630001,0.23430749027719963,0.005761137874373046,0.28,0,0,0.0
5.187656869999955,214,4693.97,-8.6,5.9,-107.9,0.17,0.02,0.16,0.11,-0.15,0.98,-81.4,0.0,0.0,-2.31,-2.31,0.0,0.07,0.0,0.9974968671630001,0.23430749027719963,0.005645915116885614,0.28,0,0,0.0
5.199658830000772,215,4693.98,-8.6,5.9,-107.9,0.23,0.0,0.16,0.09,-0.16,0.99,-81.4,0.0,-2.0,-2.31,-2.31,0.0,0.11,0.0,1.0068763578513502,0.28017851452243797,0.014724897689130989,0.28,0,0,0.0
5.207692367000163,216,4693.99,-8.6,5.9,-107.9,0.29,-0.02,0.16,0.09,-0.15,0.98,-81.4,0.0,2.0,-2.31,-2.31,0.0,-0.04,0.0,0.9954898291795853,0.33181320046074114,0.003271601637018784,0.28,0,0,0.0
5.2186893510006485,217,4694.0,-8.5,5.9,-107.9,0.32,-0.05,0.12,0.08,-0.15,0.98,-81.4,0.0,-3.0,-2.31,-2.31,0.01,0.05,0.0,0.9946356116689167,0.3453983207834109,0.002369036443823136,0.28,0,0,0.0
5.227619820000655,218,4694.01,-8.5,5.9,-108.0,0.33,-0.08,0.06,0.07,-0.15,0.98,-81.4,0.0,-1.0,-2.31,-2.31,0.0,-0.05,0.0,0.9938812806366764,0.3448187929913334,0.0015824113033511278,0.28,0,0,0.0
5.238897890000771,219,4694.02,-8.5,5.9,-108.0,0.32,-0.1,0.02,0.07,-0.15,0.98,-81.4,0.0,-5.0,-2.31,-2.31,0.03,0.17,0.0,0.9938812806366764,0.3358571124749333,0.0015507630772840786,0.28,0,0,0.0
5.247550099000364,220,4694.03,-8.5,5.9,-108.0,0.31,-0.13,-0.01,0.07,-0.15,0.98,-81.4,0.0,3.0,-2.31,-2.31,0.0,0.05,0.0,0.9938812806366764,0.33630343441600474,0.0015197478157383815,0.28,0,0,0.0
5.259729400000651,221,4694.04,-8.4,5.9,-108.0,0.32,-0.16,-0.03,0.07,-0.15,0.98,-81.4,0.0,0.0,-2.31,-2.31,0.0,-0.07,0.0,0.9938812806366764,0.35902646142032485,0.0014893528594236427,0.28,0,0,0.0
5.267636926000705,222,4694.05,-8.4,5.9,-108.0,0.33,-0.2,-0.04,0.07,-0.14,0.98,-81.4,0.0,0.0,-2.31,-2.31,0.0,-0.01,0.0,0.9924212815130478,0.3879432948254165,2.8766661079093758e-05,0.28,0,0,0.0
5.279022155000348,223,4694.06,-8.4,5.9,-108.0,0.34,-0.25,-0.05,0.07,-0.14,0.98,-81.4,0.1,5.0,-2.31,-2.31,-0.01,0.04,0.0,0.9924212815130478,0.4249705872175156,2.8191327857474135e-05,0.28,0,0,0.0
5.287718709000728,224,4694.07,-8.3,5.9,-108.0,0.32,-0.27,-0.06,0.07,-0.14,0.97,-81.4,-0.2,-1.0,-2.31,-2.31,0.0,0.08,0.0,0.98254770876533,0.422965719651132,0.009648473791463053,0.28,0,0,0.0
5.298882267999943,225,4694.08,-8.3,5.9,-108.0,0.32,-0.3,-0.08,0.07,-0.14,0.98,-81.4,0.3,2.0,-2.31,-2.31,0.0,-0.1,0.0,0.9924212815130478,0.4458699361921591,0.0002205969771296168,0.28,0,0,0.0
5.307735201000469,226,4694.09,-8.3,6.0,-108.0,0.37,-0.34,-0.12,0.07,-0.15,0.98,-81.4,0.0,3.0,-2.31,-2.31,-0.01,0.07,0.0,0.9938812806366764,0.5166236541235796,0.0016469841787430939,0.28,0,0,0.0
5.318709664999915,227,4694.1,-8.2,6.0,-107.9,0.42,-0.38,-0.15,0.07,-0.14,0.98,-81.4,-0.3,0.0,-2.31,-2.31,0.0,0.01,0.0,0.9924212815130478,0.5859180830116101,0.0001832453540122625,0.28,0,0,0.0
5.32759799500036,228,4694.11,-8.2,6.0,-107.9,0.44,-0.43,-0.16,0.07,-0.14,0.98,-81.4,0.4,0.0,-2.31,-2.31,0.0,0.1,0.0,0.9924212815130478,0.6356886030125127,0.00017958044693200392,0.28,0,0,0.0
5.338938488000167,229,4694.12,-8.1,6.0,-107.9,0.42,-0.47,-0.15,0.08,-0.13,0.98,-81.4,-0.2,2.0,-2.31,-2.31,-0.01,0.01,0.0,0.9918165152889923,0.6479197481170025,0.0004166820615809641,0.28,0,0,0.0
5.347397573000308,230,4694.13,-8.1,6.1,-107.9,0.36,-0.51,-0.14,0.09,-0.12,0.98,-81.4,0.0,-1.0,-2.31,-2.31,0.0,0.17,0.0,0.9914131328563284,0.6397655820689325,0.0008036632043599834,0.28,0,0,0.0
5.358999828000378,231,4694.14,-8.0,6.1,-107.9,0.3,-0.52,-0.12,0.1,-0.12,0.98,-81.4,0.0,3.0,-2.31,-2.31,-0.01,-0.03,0.0,0.9923708984044222,0.6122091146005587,0.00015102029685909457,0.28,0,0,0.0
5.367700026000421,232,4694.15,-8.0,6.2,-107.9,0.26,-0.51,-0.09,0.12,-0.13,0.98,-81.4,0.3,0.0,-2.31,-2.31,0.0,0.11,0.0,0.9958413528268446,0.5794825277780168,0.0035490452248958526,0.28,0,0,0.0
5.379022479000014,233,4694.16,-8.0,6.2,-107.9,0.26,-0.45,-0.04,0.13,-0.12,0.98,-81.4,0.0,0.0,-2.31,-2.31,0.0,-0.01,0.0,0.9958413528268446,0.5212485011968859,0.003478064320397989,0.28,0,0,0.0
5.387531133000266,234,4694.17,-7.9,6.3,-107.9,0.24,-0.37,0.01,0.14,-0.11,0.98,-81.4,-0.1,1.0,-2.31,-2.31,0.0,-0.1,0.0,0.9960421677820673,0.4411349000022555,0.003605301690108309,0.28,0,0,0.0
5.398997389000215,235,4694.18,-7.9,6.4,-107.9,0.15,-0.27,0.05,0.15,-0.1,0.98,-81.4,0.0,0.0,-2.31,-2.31,0.0,0.01,0.0,0.9964436762808021,0.31288975694324034,0.003926673985066187,0.28,0,0,0.0
5.407640293999975,236,4694.19,-7.9,6.4,-107.9,0.01,-0.16,0.1,0.15,-0.09,0.98,-81.4,0.1,4.0,-2.31,-2.31,-0.01,0.13,0.0,0.9954898291795853,0.18894443627691185,0.0029133703461723393,0.28,0,0,0.0
5.418932610000411,237,4694.2,-7.9,6.4,-107.9,-0.07,-0.05,0.15,0.15,-0.09,0.98,-81.4,0.0,-1.0,-2.31,-2.31,0.0,-0.04,0.0,0.9954898291795853,0.17291616465790582,0.0028551029392488436,0.28,0,0,0.0
5.427538143000675,238,4694.21,-7.8,6.5,-108.0,-0.14,0.05,0.2,0.15,-0.09,0.99,-81.4,0.0,0.0,-2.31,-2.31,0.0,0.04,0.0,1.0053357648069623,0.24919871588754228,0.012447017795293336,0.28,0,0,0.0
5.438762993000637,239,4694.22,-7.8,6.5,-108.0,-0.21,0.11,0.24,0.14,-0.09,1.0,-81.4,-0.2,0.0,-2.31,-2.31,0.0,-0.07,0.0,1.013755394560246,0.33734255586865997,0.02044931459760546,0.28,0,0,0.0
5.447451677000572,240,4694.23,-7.8,6.5,-108.0,-0.31,0.17,0.29,0.12,-0.1,1.0,-81.4,0.2,-1.0,-2.31,-2.31,0.0,-0.04,0.0,1.0121264743103997,0.45727453460694706,0.01844398646080403,0.28,0,0,0.0
5.458954005000123,241,4694.24,-7.9,6.4,-108.0,-0.33,0.19,0.31,0.11,-0.11,1.0,-81.4,-0.1,2.0,-2.31,-2.31,-0.01,0.07,0.0,1.01202766760598,0.49101934788763674,0.01797827616125669,0.28,0,0,0.0
5.467647364000186,242,4694.25,-7.9,6.4,-108.0,-0.32,0.2,0.31,0.09,-0.12,1.02,-81.4,0.0,-2.0,-2.31,-2.31,0.0,0.2,0.0,1.030970416646375,0.48836461788299124,0.03618260469761847,0.28,0,0,0.0
5.478939051999987,243,4694.26,-7.9,6.4,-108.1,-0.37,0.17,0.29,0.08,-0.12,1.02,-81.4,0.0,0.0,-2.31,-2.31,0.0,-0.01,0.0,1.030145620774073,0.4998999899979995,0.034650652648810176,0.28,0,0,0.0
5.487634515000536,244,4694.27,-8.0,6.3,-108.1,-0.46,0.09,0.23,0.08,-0.12,1.03,-81.4,0.0,2.0,-2.31,-2.31,0.0,-0.02,0.0,1.0400480758118829,0.5221110992882645,0.04366204553288777,0.28,0,0,0.0
5.498965820000194,245,4694.28,-8.0,6.3,-108.1,-0.56,0.1,0.16,0.08,-0.13,1.0,-81.4,0.0,1.0,-2.31,-2.31,0.0,-0.16,0.0,1.011582918005242,0.5909314681077663,0.01489294997172197,0.28,0,0,0.0
5.5073791009999695,246,4694.29,-8.1,6.3,-108.1,-0.49,0.09,0.11,0.08,-0.14,1.0,-81.4,0.1,1.0,-2.31,-2.31,0.0,0.11,0.0,1.012916580968048,0.5101960407529639,0.015902080675837427,0.28,0,0,0.0
5.519108466000034,247,4694.3,-8.1,6.3,-108.1,-0.34,0.16,0.07,0.09,-0.13,1.0,-81.4,-0.3,-6.0,-2.31,-2.31,0.02,-0.03,0.0,1.0124228365658292,0.38223029707232786,0.015100169548146192,0.28,0,0,0.0
5.527627018000203,248,4694.31,-8.1,6.2,-108.1,-0.37,0.18,0.03,0.09,-0.12,1.0,-81.4,0.2,3.0,-2.31,-2.31,0.0,-0.07,0.0,1.0111874208078342,0.4125530268947254,0.013587458714348188,0.28,0,0,0.0
5.538862773000801,249,4694.32,-8.2,6.2,-108.1,-0.49,0.16,-0.01,0.09,-0.12,1.0,-81.4,0.0,0.0,-2.31,-2.31,0.0,0.1,0.0,1.0111874208078342,0.5155579501860096,0.013315709540061227,0.28,0,0,0.0
5.5475665010008015,250,4694.33,-8.2,6.2,-108.1,-0.56,0.09,-0.07,0.08,-0.13,1.01,-81.4,0.0,0.0,-2.31,-2.31,0.0,-0.01,0.0,1.0214695296483396,0.571489282489182,0.0231258620129553,0.28,0,0,0.0
5.5588662440004555,251,4694.34,-8.2,6.2,-108.1,-0.51,0.04,-0.09,0.08,-0.12,1.02,-81.4,-0.1,1.0,-2.31,-2.31,0.0,0.01,0.0,1.030145620774073,0.5194227565288221,0.031165914075914847,0.28,0,0,0.0
5.56742094800029,252,4694.35,-8.3,6.2,-108.1,-0.49,-0.03,-0.03,0.11,-0.12,1.0,-81.4,0.0,-2.0,-2.31,-2.31,0.0,0.14,0.0,1.01316336293808,0.4918333050943175,0.013899983115123526,0.28,0,0,0.0
5.579016786000466,253,4694.36,-8.3,6.2,-108.1,-0.65,0.07,0.02,0.12,-0.11,1.01,-81.4,0.0,2.0,-2.31,-2.31,0.0,0.17,0.0,1.0230347012687302,0.6540642170307134,0.023295895016858137,0.28,0,0,0.0
5.587684298000568,254,4694.37,-8.4,6.2,-108.1,-0.81,0.16,0.02,0.14,-0.11,1.02,-81.4,-0.1,3.0,-2.31,-2.31,-0.02,0.1,0.0,1.0354226190305098,0.8258934555982388,0.03497013652306502,0.28,0,0,0.0
5.598976206000771,255,4694.38,-8.4,6.2,-108.1,-0.97,0.29,0.04,0.16,-0.1,1.02,-81.4,0.0,0.0,-2.31,-2.31,0.0,0.08,0.0,1.0373041983911953,1.0132127121192271,0.03611468156607556,0.28,0,0,0.0
5.607609093000065,256,4694.39,-8.5,6.2,-108.1,-1.11,0.45,0.05,0.17,-0.09,1.01,-81.4,0.2,0.0,-2.31,-2.31,0.0,-0.02,0.0,1.028153685010174,1.198791057691039,0.0264248848213533,0.28,0,0,0.0
5.61905040000056,257,4694.4,-8.6,6.1,-108.1,-1.23,0.61,0.06,0.18,-0.08,1.01,-81.4,-0.2,1.0,-2.31,-2.31,0.0,0.17,0.0,1.0290286682109493,1.3742634390829147,0.026753870661686108,0.28,0,0,0.0
5.627611087000332,258,4694.41,-8.7,6.1,-108.1,-1.38,0.73,0.04,0.17,-0.08,1.01,-81.4,-0.1,0.0,-2.31,-2.31,0.0,-0.01,0.0,1.0273266277090263,1.561697794069006,0.024550793556567863,0.28,0,0,0.0
5.639685135000036,259,4694.42,-8.8,6.1,-108.1,-1.58,0.85,0.0,0.16,-0.08,1.0,-81.4,0.0,-1.0,-2.31,-2.31,0.0,-0.1,0.0,1.0158740079360236,1.7941293152947477,0.012836210307893836,0.28,0,0,0.0
5.651655502000722,260,4694.43,-8.9,6.0,-108.0,-1.73,0.93,-0.05,0.13,-0.09,1.0,-81.4,0.0,0.0,-2.31,-2.31,0.0,0.05,0.0,1.0124228365658292,1.9647646169452462,0.009197338158945412,0.28,0,0,0.0
5.659428797000146,261,4694.44,-9.1,5.9,-108.0,-1.81,0.93,-0.1,0.1,-0.09,1.02,-81.4,-0.2,2.0,-2.31,-2.31,0.0,0.14,0.0,1.0288342918079665,2.0374003043093913,0.02509661753306114,0.28,0,0,0.0
5.6675199900000734,262,4694.45,-9.2,5.8,-108.0,-1.95,0.81,-0.13,0.08,-0.09,1.03,-81.4,0.0,2.0,-2.31,-2.31,0.0,-0.01,0.0,1.0370149468546728,2.1155377566945006,0.03261172712817206,0.28,0,0,0.0
5.67880687700017,263,4694.46,-9.4,5.7,-108.0,-2.16,0.68,-0.12,0.06,-0.09,1.02,-81.4,0.1,6.0,-2.31,-2.31,-0.03,0.11,0.0,1.0257192598367255,2.267686045289339,0.020889719308020416,0.28,0,0,0.0
5.6874492659999305,264,4694.47,-9.6,5.6,-107.9,-2.38,0.57,-0.11,0.05,-0.09,1.01,-81.4,-0.1,3.0,-2.31,-2.31,-0.02,-0.1,0.0,1.0152339631828715,2.449775499918309,0.010196334201083124,0.28,0,0,0.0
5.698930911000389,265,4694.48,-9.8,5.6,-107.9,-2.54,0.45,-0.13,0.06,-0.1,1.02,-81.4,0.0,-2.0,-2.31,-2.31,0.0,0.13,0.0,1.0266450214168479,2.5828279075463003,0.02117524458635822,0.28,0,0,0.0
5.707548491000125,266,4694.49,-10.0,5.5,-107.9,-2.76,0.36,-0.15,0.07,-0.1,1.02,-81.4,0.0,3.0,-2.31,-2.31,0.0,-0.07,0.0,1.027277956543408,2.7874181602335875,0.02137201611865991,0.28,0,0,0.0
5.718789763000132,267,4694.5,-10.3,5.5,-107.9,-3.01,0.29,-0.18,0.1,-0.12,1.02,-81.4,0.0,0.0,-2.31,-2.31,0.0,0.01,0.0,1.0318914671611545,3.0292903459391276,0.025465816201678315,0.28,0,0,0.0
5.727483694000512,268,4694.51,-10.5,5.5,-107.8,-3.15,0.2,-0.24,0.12,-0.13,1.01,-81.4,-0.2,0.0,-2.31,-2.31,0.0,0.04,0.0,1.0253779790886872,3.165454153830063,0.018573281566626854,0.28,0,0,0.0
5.738899336000031,269,4694.52,-10.8,5.5,-107.8,-3.32,0.15,-0.24,0.13,-0.14,0.98,-81.4,0.1,1.0,-2.31,-2.31,0.0,-0.01,0.0,0.9984487968844471,3.3320414163092273,0.008188782624861002,0.28,0,0,0.0
5.7515303140007745,270,4694.53,-11.2,5.5,-107.8,-3.41,0.15,-0.23,0.13,-0.17,0.97,-81.4,0.0,0.0,-2.31,-2.31,0.0,-0.05,0.0,0.993327740476425,3.421037854219097,0.01304364225222543,0.28,0,0,0.0
5.759656353000537,271,4694.54,-11.5,5.5,-107.7,-3.45,0.19,-0.21,0.13,-0.19,0.98,-81.4,-0.1,0.0,-2.31,-2.31,0.0,0.01,0.0,1.006677704133751,3.4616036745993903,0.0003001949769985135,0.28,0,0,0.0
5.767524622000565,272,4694.55,-11.8,5.5,-107.7,-3.56,0.37,-0.19,0.15,-0.22,0.96,-81.4,0.1,0.0,-2.31,-2.31,0.0,0.13,0.0,0.9962429422585637,3.584215395313178,0.009931875560224901,0.28,0,0,0.0
5.778778589000467,273,4694.56,-12.2,5.5,-107.7,-3.56,0.54,-0.19,0.16,-0.23,0.97,-81.4,0.2,0.0,-2.31,-2.31,0.0,-0.05,0.0,1.0096534058774822,3.6057315485210486,0.0034090162975197735,0.28,0,0,0.0
5.7874572139999145,274,4694.57,-12.6,5.5,-107.7,-3.52,0.7,-0.16,0.18,-0.22,0.96,-81.4,0.0,2.0,-2.31,-2.31,0.0,-0.08,0.0,1.0011992808627062,3.592492171181449,0.004944206542911056,0.28,0,0,0.0
5.798928303000139,275,4694.58,-12.9,5.5,-107.6,-3.49,0.86,-0.14,0.17,-0.21,0.96,-81.4,0.0,1.0,-2.31,-2.31,0.0,0.07,0.0,0.9972963451251589,3.5971238510788033,0.008670199434849257,0.28,0,0,0.0
5.81161734700072,276,4694.59,-13.2,5.4,-107.6,-3.52,0.99,-0.1,0.16,-0.18,0.93,-81.4,0.0,-3.0,-2.31,-2.31,0.01,0.09,0.0,0.9606768447297979,3.657936576814858,0.044383905833606074,0.28,0,0,0.0
5.8195851090004,277,4694.6,-13.6,5.3,-107.6,-3.64,1.1,-0.02,0.15,-0.17,0.92,-81.4,0.0,5.0,-2.31,-2.31,-0.01,-0.05,0.0,0.9475230867899737,3.802630668366309,0.05638691049796163,0.28,0,0,0.0
5.82765039700007,278,4694.61,-13.9,5.3,-107.5,-3.77,1.16,0.06,0.13,-0.16,0.93,-81.4,-0.1,0.0,-2.31,-2.31,0.0,-0.05,0.0,0.9525754563287887,3.9448827612490587,0.05030785013996364,0.28,0,0,0.0
5.8388505980001355,279,4694.62,-14.3,5.2,-107.5,-3.99,1.21,0.18,0.12,-0.16,0.93,-81.4,0.0,0.0,-2.31,-2.31,0.0,-0.02,0.0,0.9512623192369181,4.173320021278023,0.05058856748719753,0.28,0,0,0.0
5.851512981000269,280,4694.63,-14.6,5.1,-107.5,-4.17,1.22,0.33,0.11,-0.18,0.94,-81.4,0.1,0.0,-2.31,-2.31,0.0,-0.01,0.0,0.9633794683301071,4.35731568743877,0.037701990026128396,0.28,0,0,0.0
5.859529893000399,281,4694.64,-15.0,4.9,-107.5,-4.25,1.24,0.45,0.09,-0.21,0.95,-81.4,0.1,0.0,-2.31,-2.31,0.0,-0.11,0.0,0.9770875088752287,4.450011235940871,0.023514070491386763,0.28,0,0,0.0
5.867571278000469,282,4694.65,-15.4,4.8,-107.5,-4.4,1.27,0.54,0.07,-0.22,0.95,-81.4,0.0,0.0,-2.31,-2.31,0.0,-0.04,0.0,0.9776502442080194,4.611344706265191,0.02249230845542416,0.28,0,0,0.0
5.878926622000108,283,4694.66,-15.9,4.7,-107.5,-4.56,1.26,0.6,0.06,-0.25,0.97,-81.4,0.0,0.0,-2.31,-2.31,0.01,-0.05,0.0,1.003493896344168,4.768773427203268,0.0032843168071099438,0.28,0,0,0.0
5.887546406000183,284,4694.67,-16.3,4.5,-107.6,-4.64,1.19,0.61,0.05,-0.27,0.97,-81.4,-0.1,-1.0,-2.31,-2.31,0.01,0.13,0.0,1.0081170566953026,4.828850794961467,0.0077493276150797374,0.28,0,0,0.0
5.898851652000303,285,4694.68,-16.8,4.4,-107.6,-4.71,1.15,0.57,0.03,-0.28,0.97,-81.4,0.1,1.0,-2.31,-2.31,0.0,-0.02,0.0,1.0100495037373167,4.881751734777179,0.00948813916395208,0.28,0,0,0.0
5.907487174999915,286,4694.69,-17.3,4.2,-107.6,-4.8,1.1,0.54,0.02,-0.3,0.98,-81.4,0.0,0.0,-2.31,-2.31,0.0,0.0,0.0,1.02508536229916,4.953947920598278,0.024033517771279378,0.28,0,0,0.0
5.91896163399997,287,4694.7,-17.8,4.1,-107.6,-4.83,1.07,0.49,0.0,-0.32,0.99,-81.4,0.0,1.0,-2.31,-2.31,0.0,0.0,0.0,1.0404326023342405,4.97130767504889,0.038593142650232615,0.28,0,0,0.0
5.9274335430000065,288,4694.71,-18.2,3.9,-107.6,-4.79,0.98,0.42,0.0,-0.34,0.99,-81.4,0.1,2.0,-2.31,-2.31,0.0,-0.08,0.0,1.0467568963231146,4.9072293608511925,0.044019087906324694,0.28,0,0,0.0
5.938844084000266,289,4694.72,-18.7,3.8,-107.6,-4.71,0.95,0.36,0.0,-0.35,0.98,-81.4,-0.1,0.0,-2.31,-2.31,0.0,-0.08,0.0,1.0406248123122954,4.8183192090188465,0.03712926381759529,0.28,0,0,0.0
5.947533700000349,290,4694.73,-19.2,3.6,-107.6,-4.73,0.98,0.31,0.0,-0.35,0.98,-81.4,0.2,0.0,-2.31,-2.31,0.0,0.03,0.0,1.0406248123122954,4.840392546064834,0.036386678541243445,0.28,0,0,0.0
5.9587976790007815,291,4694.74,-19.7,3.5,-107.6,-4.77,0.96,0.26,0.01,-0.35,0.97,-81.4,0.3,1.0,-2.31,-2.31,-0.01,0.18,0.0,1.0312613635737546,4.872586582093744,0.026482765206648606,0.28,0,0,0.0
5.967579422000199,292,4694.75,-20.2,3.4,-107.6,-4.8,0.94,0.21,0.02,-0.35,0.96,-81.4,0.0,-2.0,-2.31,-2.31,0.0,0.06,0.0,1.0220078277586724,4.895681770703647,0.01688464480373497,0.28,0,0,0.0
5.978942893000749,293,4694.76,-20.7,3.3,-107.6,-4.82,0.93,0.2,0.03,-0.35,0.95,-81.4,0.1,-2.0,-2.31,-2.31,0.0,0.0,0.0,1.0128672173587216,4.912972623575262,0.007589153715708452,0.28,0,0,0.0
5.987540824000462,294,4694.77,-21.1,3.2,-107.6,-4.91,0.96,0.19,0.03,-0.35,0.94,-81.4,0.2,2.0,-2.31,-2.31,0.0,-0.05,0.0,1.003493896344168,5.006575676048451,0.0017484839528683072,0.28,0,0,0.0
5.998693208000077,295,4694.78,-21.6,3.1,-107.6,-5.01,0.98,0.16,0.03,-0.36,0.93,-81.4,0.3,0.0,-2.31,-2.31,0.0,0.18,0.0,0.9976973488989535,5.107455335095942,0.007394130770121188,0.28,0,0,0.0
6.007428378000441,296,4694.79,-22.1,2.9,-107.6,-5.15,1.04,0.12,0.03,-0.36,0.91,-81.4,0.4,2.0,-2.31,-2.31,-0.02,0.0,0.0,0.9790812019439451,5.25533062708713,0.025490072170626932,0.28,0,0,0.0
6.018901612000263,297,4694.8,-22.7,2.8,-107.5,-5.32,1.12,0.06,0.03,-0.38,0.9,-81.4,0.5,-2.0,-2.31,-2.31,0.0,-0.07,0.0,0.9773944955850734,5.436947673097471,0.026633242958908565,0.28,0,0,0.0
6.0272279900000285,298,4694.81,-23.2,2.7,-107.5,-5.39,1.2,0.0,0.03,-0.4,0.9,-81.4,0.2,-1.0,-2.31,-2.31,0.0,0.12,0.0,0.9853425800197615,5.521965229879666,0.018311455353736017,0.28,0,0,0.0
6.0388443410001855,299,4694.82,-23.7,2.6,-107.4,-5.42,1.24,-0.11,0.04,-0.42,0.89,-81.4,0.0,0.0,-2.31,-2.31,0.0,0.0,0.0,0.9849365461794988,5.561123987109081,0.01834313941011878,0.28,0,0,0.0
6.047395184999914,300,4694.83,-24.3,2.5,-107.4,-5.33,1.24,-0.21,0.04,-0.43,0.88,-81.4,0.2,1.0,-2.31,-2.31,0.0,0.14,0.0,0.9802550688468793,5.476367409149974,0.022564124407883468,0.28,0,0,0.0
6.058980310000152,301,4694.84,-24.8,2.4,-107.3,-5.29,1.3,-0.28,0.04,-0.43,0.86,-81.4,0.3,-2.0,-2.31,-2.31,0.0,0.0,0.0,0.9623408959407264,5.4545852271277235,0.039668731367755616,0.28,0,0,0.0
6.06756521600073,302,4694.85,-25.4,2.3,-107.2,-5.25,1.39,-0.31,0.04,-0.43,0.85,-81.4,0.3,2.0,-2.31,-2.31,-0.01,-0.1,0.0,0.9534149149242421,5.439733449352091,0.047622818136555,0.28,0,0,0.0
6.0788247140008025,303,4694.86,-25.9,2.2,-107.1,-5.26,1.42,-0.32,0.03,-0.43,0.87,-81.4,0.0,0.0,-2.31,-2.31,0.0,-0.1,0.0,0.9709273917240155,5.457691819808077,0.029508134510045858,0.28,0,0,0.0
6.087478495000141,304,4694.87,-26.5,2.0,-107.0,-5.38,1.39,-0.37,0.01,-0.44,0.87,-81.4,0.1,0.0,-2.31,-2.31,0.0,0.08,0.0,0.9749871794028884,5.568967588341667,0.02493937989454953,0.28,0,0,0.0
6.098599292000472,305,4694.88,-27.0,1.9,-106.9,-5.46,1.28,-0.41,0.0,-0.45,0.86,-81.4,-0.2,0.0,-2.31,-2.31,0.0,0.08,0.0,0.9706183596038146,5.6229974213047615,0.028722035699750847,0.28,0,0,0.0
6.107490328000495,306,4694.89,-27.6,1.8,-106.8,-5.49,1.14,-0.43,0.0,-0.46,0.87,-81.4,0.0,-1.0,-2.31,-2.31,0.0,-0.04,0.0,0.9841239759298622,5.6235753751505815,0.014912090986229143,0.28,0,0,0.0
6.118880865999927,307,4694.9,-28.1,1.7,-106.7,-5.58,1.02,-0.44,-0.01,-0.46,0.87,-81.4,0.1,-3.0,-2.31,-2.31,0.01,0.09,0.0,0.9841747812253675,5.6894990992177865,0.01456405997690935,0.28,0,0,0.0
6.127437299000121,308,4694.91,-28.7,1.6,-106.7,-5.73,0.95,-0.45,-0.01,-0.47,0.88,-81.4,-0.3,0.0,-2.31,-2.31,0.0,0.14,0.0,0.9976973488989535,5.8256244300503965,0.00102066245725696,0.28,0,0,0.0
6.138896968000154,309,4694.92,-29.2,1.6,-106.6,-5.89,0.92,-0.5,0.0,-0.49,0.87,-81.4,-1.0,-4.0,-2.31,-2.31,0.03,-0.02,0.0,0.9984988733093293,5.9823490369586425,0.00021475528594350202,0.28,0,0,0.0
6.14739316000032,310,4694.93,-29.8,1.5,-106.5,-5.94,0.91,-0.54,0.01,-0.52,0.86,-81.4,-0.2,6.0,-2.31,-2.31,0.0,0.12,0.0,1.0050373127401788,6.03351473023809,0.0061972104620079405,0.28,0,0,0.0
6.1589296810007,311,4694.94,-30.4,1.4,-106.4,-5.9,0.91,-0.57,0.01,-0.52,0.85,-81.4,0.0,-3.0,-2.31,-2.31,0.03,0.06,0.0,0.9964938534682489,5.996915874013909,0.0022993238337235544,0.28,0,0,0.0
6.167442104000656,312,4694.95,-31.0,1.4,-106.3,-5.87,0.93,-0.56,0.02,-0.53,0.84,-81.4,-2.5,-17.0,-2.31,-2.31,0.09,0.01,0.0,0.9934284070832683,5.969539345711694,0.005257474814330143,0.28,0,0,0.0
6.179130694000378,313,4694.96,-31.6,1.3,-106.2,-5.82,0.95,-0.54,0.03,-0.53,0.84,-81.4,-4.9,-25.0,-2.3,-2.3,0.18,0.06,0.0,0.9936800289831732,5.921697391795702,0.004905735856136739,0.28,0,0,0.0
6.187379868000789,314,4694.97,-32.2,1.3,-106.1,-5.79,0.94,-0.5,0.03,-0.54,0.82,-81.5,-7.3,-21.0,-2.3,-2.3,0.22,0.06,0.0,0.9822932352408825,5.887079072001666,0.015966679006458873,0.28,0,0,0.0
6.199144916000478,315,4694.98,-32.8,1.2,-106.0,-5.84,1.02,-0.52,0.02,-0.52,0.83,-81.6,-11.2,-46.0,-2.3,-2.3,0.4,0.12,0.0,0.9796427920420789,5.951167952595523,0.018244779761157237,0.28,0,0,0.0
6.211652318000233,316,4694.99,-33.4,1.2,-105.9,-6.02,1.01,-0.51,0.02,-0.52,0.81,-81.8,-20.9,-83.0,-2.29,-2.29,0.69,-0.05,0.0,0.9627564593395362,6.125406108985754,0.034428490214425955,0.28,0,0,0.0
6.219405695000205,317,4695.0,-34.0,1.1,-105.8,-6.23,1.0,-0.49,0.01,-0.53,0.79,-82.0,-28.4,-130.0,-2.28,-2.28,1.02,0.11,0.0,0.9513674369033239,6.328743951211805,0.04490116239762554,0.28,0,0,0.0
6.227363339000476,318,4695.01,-34.6,1.1,-105.7,-6.36,0.96,-0.5,0.01,-0.54,0.8,-82.5,-45.6,-146.0,-2.27,-2.27,1.42,0.17,0.0,0.9652460826131335,6.451449449542328,0.03040206635405962,0.28,0,0,0.0
6.239070223999988,319,4695.02,-35.3,1.0,-105.6,-6.53,0.91,-0.49,0.0,-0.55,0.79,-83.0,-60.7,-155.0,-2.25,-2.25,1.86,-0.1,0.0,0.9626006440887104,6.611285805348306,0.032386554780913124,0.28,0,0,0.0
6.24736456500068,320,4695.03,-35.9,0.9,-105.5,-6.67,0.83,-0.46,-0.01,-0.57,0.77,-83.8,-78.5,-175.0,-2.23,-2.23,2.36,-0.16,0.0,0.958070978581441,6.737165576115819,0.03617789588241893,0.28,0,0,0.0
6.259007317000396,321,4695.04,-36.6,0.9,-105.4,-6.71,0.76,-0.42,-0.03,-0.58,0.78,-84.7,-97.7,-186.0,-2.2,-2.2,2.88,0.12,0.0,0.9724710792614863,6.7659515221438,0.021342239298326127,0.28,0,0,0.0
6.2674768000006225,322,4695.05,-37.3,0.8,-105.4,-6.8,0.62,-0.36,-0.04,-0.59,0.77,-85.8,-115.1,-171.0,-2.17,-2.17,3.33,-0.03,0.0,0.9708758932015976,6.837689668301714,0.02247867685105054,0.28,0,0,0.0
6.278907189000165,323,4695.06,-38.0,0.8,-105.3,-6.86,0.44,-0.32,-0.05,-0.61,0.76,-87.0,-130.7,-157.0,-2.14,-2.14,3.73,-0.04,0.0,0.9758073580374356,6.881540525202189,0.017196267774908347,0.28,0,0,0.0
6.287421751000693,324,4695.07,-38.7,0.7,-105.3,-6.84,0.25,-0.28,-0.05,-0.62,0.76,-88.4,-143.2,-121.0,-2.1,-2.1,4.0,0.0,0.0,0.982089608946149,6.85029196458078,0.010695736528871014,0.28,0,0,0.0
6.2990611459999855,325,4695.08,-39.4,0.7,-105.2,-6.79,0.03,-0.24,-0.04,-0.62,0.74,-89.9,-150.5,-85.0,-2.06,-2.06,4.17,0.1,0.0,0.966229786334493,6.794306439953971,0.026024447957716523,0.28,0,0,0.0
6.307488895000461,326,4695.09,-40.1,0.7,-105.2,-6.83,-0.11,-0.17,-0.03,-0.63,0.71,-91.5,-154.6,-47.0,-2.01,-2.01,4.24,-0.11,0.0,0.9496841580230767,6.8330008049172655,0.04171867474375013,0.28,0,0,0.0
6.318970869000623,327,4695.1,-40.8,0.7,-105.2,-6.88,-0.19,-0.12,-0.02,-0.63,0.71,-93.0,-156.6,-24.0,-1.97,-1.97,4.25,-0.02,0.0,0.9494208761134337,6.883669079785866,0.04114231752032527,0.28,0,0,0.0
6.327448277000258,328,4695.11,-41.5,0.7,-105.2,-6.91,-0.26,-0.1,0.0,-0.64,0.7,-94.6,-156.9,-10.0,-1.93,-1.93,4.27,-0.14,0.0,0.94847245611035,6.915612771114358,0.04124892277294079,0.28,0,0,0.0
6.339112753000336,329,4695.12,-42.2,0.7,-105.2,-7.01,-0.3,-0.12,0.0,-0.65,0.67,-96.2,-156.3,9.0,-1.89,-1.89,4.21,-0.1,0.0,0.9334880824091972,7.017442554093336,0.05510863054461168,0.28,0,0,0.0
6.347382892000496,330,4695.13,-42.9,0.7,-105.3,-7.11,-0.35,-0.16,0.01,-0.66,0.67,-97.7,-153.7,23.0,-1.84,-1.84,4.13,-0.11,0.0,0.9405317644821998,7.120407291721451,0.047103649502176936,0.28,0,0,0.0
6.358974953000143,331,4695.14,-43.6,0.8,-105.3,-7.2,-0.38,-0.14,0.02,-0.65,0.65,-99.2,-149.1,48.0,-1.8,-1.8,3.95,0.22,0.0,0.9194563611178076,7.21137989569264,0.06681547180923775,0.28,0,0,0.0
6.367448587000581,332,4695.15,-44.4,0.8,-105.3,-7.29,-0.3,-0.07,0.02,-0.67,0.63,-100.7,-141.5,69.0,-1.76,-1.76,3.74,-0.15,0.0,0.9198912979260104,7.296506013154516,0.06505292430101417,0.28,0,0,0.0
6.378936608000004,333,4695.16,-45.1,0.8,-105.3,-7.34,-0.22,0.01,0.02,-0.68,0.62,-102.0,-132.2,88.0,-1.73,-1.73,3.47,-0.17,0.0,0.9204346799203081,7.3433030715067185,0.06321935146058211,0.28,0,0,0.0
6.387455417000638,334,4695.17,-45.9,0.8,-105.3,-7.42,-0.19,0.1,0.03,-0.71,0.61,-103.3,-123.0,85.0,-1.7,-1.7,3.25,-0.23,0.0,0.9365361712181757,7.423105818995173,0.04617550295946027,0.28,0,0,0.0
6.399217561000114,335,4695.18,-46.7,0.9,-105.3,-7.37,-0.11,0.18,0.04,-0.72,0.61,-104.4,-114.1,81.0,-1.67,-1.67,3.02,-0.11,0.0,0.9445104552094699,7.37301837784228,0.03743719458880279,0.28,0,0,0.0
6.407473207000294,336,4695.19,-47.4,0.9,-105.4,-7.36,-0.05,0.28,0.05,-0.75,0.6,-105.5,-107.2,68.0,-1.64,-1.64,2.85,-0.21,0.0,0.9617692030835672,7.365493873461576,0.019774877780411315,0.28,0,0,0.0
6.419102687000304,337,4695.2,-48.2,0.9,-105.4,-7.38,0.05,0.35,0.06,-0.77,0.57,-106.6,-101.1,65.0,-1.61,-1.61,2.67,0.21,0.0,0.9598958276813166,7.388463981099184,0.021215288119008635,0.28,0,0,0.0
6.42761711500043,338,4695.21,-48.9,0.8,-105.4,-7.18,0.2,0.4,0.07,-0.77,0.55,-107.5,-95.8,45.0,-1.58,-1.58,2.58,0.15,0.0,0.948841398759561,7.193914094566322,0.03162432269994908,0.28,0,0,0.0
6.438980392000303,339,4695.22,-49.7,0.8,-105.4,-7.18,0.39,0.48,0.07,-0.78,0.55,-108.5,-95.1,13.0,-1.56,-1.56,2.59,0.12,0.0,0.9569743988216196,7.206587264440777,0.023021496185132606,0.28,0,0,0.0
6.44736636900052,340,4695.23,-50.4,0.7,-105.4,-7.18,0.58,0.52,0.07,-0.79,0.53,-109.4,-96.6,-11.0,-1.53,-1.53,2.66,0.08,0.0,0.9538867857350788,7.222132649017186,0.025586927086239997,0.28,0,0,0.0
6.458984524000698,341,4695.24,-51.1,0.6,-105.4,-7.22,0.74,0.54,0.05,-0.78,0.53,-110.4,-99.2,-22.0,-1.5,-1.5,2.73,0.02,0.0,0.944351629426243,7.277884307956537,0.034419641727174266,0.28,0,0,0.0
6.467532264000511,342,4695.25,-51.9,0.6,-105.4,-7.29,0.81,0.56,0.04,-0.78,0.51,-111.5,-104.1,-41.0,-1.48,-1.48,2.88,-0.1,0.0,0.9327915093953204,7.356208262413457,0.045060166522934875,0.28,0,0,0.0
6.478787427000498,343,4695.26,-52.7,0.5,-105.3,-7.4,0.85,0.52,0.03,-0.8,0.51,-112.5,-110.0,-64.0,-1.45,-1.45,3.09,-0.08,0.0,0.9492101980067429,7.466786457372408,0.028068648353282155,0.28,0,0,0.0
6.487528637000651,344,4695.27,-53.4,0.4,-105.3,-7.52,0.84,0.46,0.02,-0.82,0.51,-113.7,-118.7,-81.0,-1.41,-1.41,3.33,0.03,0.0,0.9658674857349738,7.580738750280212,0.011183133412550172,0.28,0,0,0.0
6.498701720000099,345,4695.28,-54.2,0.3,-105.2,-7.58,0.78,0.39,0.0,-0.84,0.52,-114.9,-125.7,-66.0,-1.38,-1.38,3.49,0.11,0.0,0.9879271228182775,7.63,0.010658973597338472,0.28,0,0,0.0
6.50740143800067,346,4695.29,-55.0,0.2,-105.2,-7.56,0.7,0.37,-0.01,-0.85,0.5,-116.2,-131.9,-62.0,-1.34,-1.34,3.65,-0.07,0.0,0.9862048468751307,7.601348564564053,0.008757963701107707,0.28,0,0,0.0
6.519007320000128,347,4695.3,-55.8,0.2,-105.2,-7.5,0.58,0.34,-0.02,-0.85,0.49,-117.6,-136.4,-49.0,-1.3,-1.3,3.76,-0.14,0.0,0.9813256340277675,7.530073040814411,0.0038011758366697235,0.28,0,0,0.0
6.5275217660000635,348,4695.31,-56.6,0.1,-105.2,-7.42,0.48,0.35,-0.01,-0.85,0.46,-119.0,-140.8,-41.0,-1.27,-1.27,3.86,0.08,0.0,0.9665402216152207,7.443742338367174,0.010764551844359538,0.28,0,0,0.0
6.53905061200021,349,4695.32,-57.4,0.0,-105.1,-7.49,0.38,0.39,-0.01,-0.85,0.45,-120.4,-142.5,-23.0,-1.23,-1.23,3.89,-0.08,0.0,0.9618211892030659,7.5097669737482535,0.015173912571384007,0.28,0,0,0.0
6.547559937000187,350,4695.33,-58.2,0.0,-105.1,-7.53,0.3,0.35,0.0,-0.86,0.41,-121.8,-145.3,-25.0,-1.19,-1.19,3.98,-0.07,0.0,0.952732911156112,7.544097030128921,0.02377694680597109,0.28,0,0,0.0
6.558863440000096,351,4695.34,-59.0,0.0,-105.1,-7.65,0.27,0.33,0.0,-0.86,0.41,-123.3,-147.4,-18.0,-1.15,-1.15,4.02,0.1,0.0,0.952732911156112,7.661873139122052,0.023301407869851687,0.28,0,0,0.0
6.567617462000271,352,4695.35,-59.9,0.0,-105.1,-7.77,0.29,0.34,0.01,-0.88,0.39,-124.8,-148.2,-5.0,-1.11,-1.11,4.01,0.12,0.0,0.9626006440887104,7.78284009857584,0.013165001438508295,0.28,0,0,0.0
6.57917654800076,353,4695.36,-60.7,-0.1,-105.1,-7.84,0.35,0.36,0.03,-0.89,0.38,-126.3,-146.6,7.0,-1.07,-1.07,3.97,0.03,0.0,0.9681941953967707,7.856061354139236,0.007420021127839016,0.28,0,0,0.0
6.587654678000035,354,4695.37,-61.5,-0.1,-105.1,-7.87,0.4,0.35,0.03,-0.92,0.37,-127.7,-146.0,11.0,-1.03,-1.03,3.93,-0.1,0.0,0.9920685460188726,7.887927484453695,0.016125242904377668,0.28,0,0,0.0
6.599002523000308,355,4695.38,-62.3,-0.2,-105.1,-7.76,0.44,0.29,0.04,-0.93,0.36,-129.2,-142.4,26.0,-0.99,-0.99,3.83,-0.01,0.0,0.998048095033501,7.777872459741159,0.021662696080625876,0.28,0,0,0.0
6.607648660999985,356,4695.39,-63.0,-0.2,-105.0,-7.63,0.54,0.27,0.04,-0.93,0.33,-130.6,-138.0,43.0,-0.95,-0.95,3.68,0.05,0.0,0.9876234100101112,7.653848705063355,0.011013250836091393,0.28,0,0,0.0
6.619099189000735,357,4695.4,-63.8,-0.3,-105.0,-7.52,0.67,0.29,0.03,-0.92,0.32,-131.9,-133.5,43.0,-0.92,-0.92,3.57,-0.02,0.0,0.9745255255764212,7.555355716311443,0.002042940925646608,0.28,0,0,0.0
6.627548031000515,358,4695.41,-64.5,-0.3,-104.9,-7.41,0.81,0.28,0.04,-0.92,0.31,-133.2,-126.9,60.0,-0.88,-0.88,3.37,0.01,0.0,0.9716480844420988,7.459396758451719,0.004821974418769637,0.28,0,0,0.0
6.638902749000408,359,4695.42,-65.3,-0.4,-104.9,-7.43,0.89,0.28,0.03,-0.92,0.3,-134.4,-123.1,33.0,-0.85,-0.85,3.34,-0.04,0.0,0.9681425514871248,7.488350953314087,0.00816095722626875,0.28,0,0,0.0
6.647542147000422,360,4695.43,-66.0,-0.5,-104.8,-7.52,0.98,0.28,0.04,-0.92,0.31,-135.7,-121.5,17.0,-0.82,-0.82,3.3,0.02,0.0,0.9716480844420988,7.588754838575298,0.0045623157858688534,0.28,0,0,0.0
6.659049640000376,361,4695.44,-66.8,-0.5,-104.7,-7.6,1.04,0.25,0.04,-0.94,0.29,-136.9,-121.1,7.0,-0.78,-0.78,3.29,0.02,0.0,0.9845303448853163,7.674900650822784,0.008153545764201686,0.28,0,0,0.0
6.6676649650007676,362,4695.45,-67.5,-0.6,-104.6,-7.64,1.14,0.22,0.03,-0.94,0.27,-138.1,-120.2,12.0,-0.75,-0.75,3.25,0.06,0.0,0.9784681905918046,7.727716350902122,0.0020495636412761753,0.28,0,0,0.0
6.679047072000685,363,4695.46,-68.3,-0.6,-104.5,-7.64,1.16,0.23,0.02,-0.96,0.27,-139.3,-120.2,0.0,-0.72,-0.72,3.27,0.19,0.0,0.9974467404327911,7.73098311988844,0.02060755121261748,0.28,0,0,0.0
6.687634949000312,364,4695.47,-69.1,-0.7,-104.4,-7.5,1.26,0.25,0.02,-0.96,0.24,-140.5,-121.9,-8.0,-0.68,-0.68,3.31,-0.02,0.0,0.9897474425326898,7.609211522884615,0.01265008824626579,0.28,0,0,0.0
6.69906365099996,365,4695.48,-69.9,-0.8,-104.3,-7.4,1.28,0.28,0.01,-0.97,0.25,-141.7,-123.0,-12.0,-0.65,-0.65,3.35,1.25,0.0,1.0017484714238398,7.515104789688564,0.024158094794667573,0.28,0,0,0.0
6.707754863000446,366,4695.49,-70.7,-0.8,-104.2,-7.33,1.28,0.3,0.01,-0.97,0.24,-143.0,-125.6,-26.0,-0.62,-0.62,3.45,0.25,0.0,0.9992997548283498,7.44696582508608,0.021275190635194008,0.28,0,0,0.0
6.718949774000066,367,4695.5,-71.5,-0.9,-104.1,-7.27,1.29,0.29,0.01,-0.96,0.22,-144.2,-127.4,-18.0,-0.58,-0.58,3.49,0.11,0.0,0.9849365461794988,7.389255713534347,0.006773742346616207,0.28,0,0,0.0
6.727600472000631,368,4695.51,-72.2,-0.9,-104.0,-7.22,1.33,0.33,0.0,-0.96,0.21,-145.5,-129.3,-12.0,-0.55,-0.55,3.5,-0.29,0.0,0.982700361249552,7.348891072808196,0.004446806268336045,0.28,0,0,0.0
6.738888184000643,369,4695.52,-73.0,-1.0,-103.8,-7.17,1.38,0.32,0.0,-0.97,0.19,-146.8,-129.6,-7.0,-0.51,-0.51,3.54,-0.07,0.0,0.9884331034521254,7.30860451796374,0.009975957501491273,0.28,0,0,0.0
6.747549136000089,370,4695.53,-73.8,-1.0,-103.7,-7.07,1.42,0.31,0.0,-0.97,0.19,-148.1,-130.3,-4.0,-0.48,-0.48,3.54,0.07,0.0,0.9884331034521254,7.2178528663308175,0.00977643835146147,0.28,0,0,0.0
6.759013259000312,371,4695.54,-74.5,-1.1,-103.6,-7.0,1.39,0.29,0.0,-0.99,0.2,-149.4,-129.9,3.0,-0.44,-0.44,3.5,0.1,0.0,1.01,7.1425625653542575,0.030716468201349323,0.28,0,0,0.0
6.7676359690003665,372,4695.55,-75.3,-1.1,-103.5,-6.87,1.32,0.15,0.0,-0.99,0.18,-150.7,-129.9,2.0,-0.4,-0.4,3.5,-0.06,0.0,1.0062305898749053,6.997270896571034,0.02640811691472955,0.28,0,0,0.0
6.7789724120002575,373,4695.56,-76.0,-1.2,-103.3,-6.82,1.22,0.09,0.0,-0.97,0.18,-152.0,-128.6,11.0,-0.37,-0.37,3.46,-0.1,0.0,0.9865596788841514,6.928845502679361,0.006602461805496174,0.28,0,0,0.0
6.787405665000733,374,4695.57,-76.7,-1.2,-103.2,-6.78,1.13,0.06,0.0,-0.98,0.17,-153.3,-127.2,8.0,-0.34,-0.34,3.44,0.05,0.0,0.9946356116689167,6.873783528741649,0.014384826698456199,0.28,0,0,0.0
6.79905586500081,375,4695.58,-77.4,-1.2,-103.1,-6.65,1.1,0.07,0.0,-0.99,0.17,-154.5,-125.2,19.0,-0.3,-0.3,3.37,-0.08,0.0,1.0044899203078146,6.740726963762885,0.02375435263060699,0.28,0,0,0.0
6.807637658000203,376,4695.59,-78.1,-1.2,-103.0,-6.48,1.04,0.03,0.0,-0.99,0.16,-155.8,-124.4,5.0,-0.27,-0.27,3.38,0.0,0.0,1.0028459502834919,6.562994743255552,0.021668174954158625,0.28,0,0,0.0
6.819065762000719,377,4695.6,-78.8,-1.3,-102.9,-6.36,0.99,0.04,0.0,-0.98,0.15,-157.0,-123.0,17.0,-0.23,-0.23,3.31,-0.04,0.0,0.9914131328563284,6.436715000681637,0.01003065037645523,0.28,0,0,0.0
6.827453364000576,378,4695.61,-79.4,-1.3,-102.8,-6.27,0.99,0.03,0.0,-0.99,0.12,-158.2,-119.5,26.0,-0.2,-0.2,3.21,-0.05,0.0,0.9972462083156797,6.3477476320345305,0.015546451319090382,0.28,0,0,0.0
6.838956732000042,379,4695.62,-80.1,-1.3,-102.7,-6.25,1.04,0.01,0.0,-1.01,0.12,-159.4,-114.1,49.0,-0.17,-0.17,3.03,-0.03,0.0,1.0171037311896953,6.335945075519516,0.034695894709243946,0.28,0,0,0.0
6.847287166000569,380,4695.63,-80.7,-1.3,-102.6,-6.07,1.03,0.0,0.0,-1.0,0.14,-160.5,-109.1,45.0,-0.14,-0.14,2.92,0.18,0.0,1.009752444909147,6.15676863297623,0.02679771626012173,0.28,0,0,0.0
6.859128455000246,381,4695.64,-81.3,-1.3,-102.5,-5.83,0.97,0.0,0.01,-1.0,0.13,-161.6,-104.5,50.0,-0.11,-0.11,2.77,-0.02,0.0,1.0084641788382966,5.910143822277086,0.0249992611854859,0.28,0,0,0.0
6.867592391000471,382,4695.65,-81.9,-1.3,-102.4,-5.53,0.99,0.07,0.02,-0.99,0.11,-162.6,-99.5,45.0,-0.09,-0.09,2.66,-0.25,0.0,0.9962931295557548,5.61835385144083,0.012571647664885166,0.28,0,0,0.0
6.878947223000068,383,4695.66,-82.5,-1.3,-102.3,-5.3,1.04,0.14,0.02,-0.99,0.07,-163.5,-97.1,28.0,-0.06,-0.06,2.6,-0.12,0.0,0.9926731586982696,5.40288811655396,0.008772643271251934,0.28,0,0,0.0
6.887591876999977,384,4695.67,-83.0,-1.3,-102.2,-5.15,1.16,0.16,0.03,-0.99,0.07,-164.5,-93.6,29.0,-0.03,-0.03,2.52,0.05,0.0,0.9929249719893241,5.281448664902463,0.008843967431060307,0.28,0,0,0.0
6.899053628000729,385,4695.68,-83.6,-1.3,-102.1,-5.03,1.16,0.23,0.03,-0.98,0.07,-165.4,-91.1,33.0,-0.01,-0.01,2.42,0.9,0.0,0.9829547293746543,5.167146214304372,0.0011037496799372049,0.28,0,0,0.0
6.907625338000798,386,4695.69,-84.1,-1.3,-102.0,-4.85,1.27,0.3,0.02,-0.99,0.05,-166.3,-88.9,27.0,0.0,0.0,2.37,0.07,0.0,0.9914635646356349,5.022489422587169,0.007256983869422529,0.28,0,0,0.0
6.919046469000023,387,4695.7,-84.6,-1.3,-101.8,-4.67,1.38,0.39,0.03,-0.99,0.05,-167.2,-85.0,32.0,0.03,0.03,2.28,-0.02,0.0,0.9917156850630123,4.885222615193703,0.007358922210863983,0.28,0,0,0.0
6.927602689000196,388,4695.71,-85.1,-1.3,-101.7,-4.53,1.52,0.41,0.03,-1.01,0.06,-168.0,-80.8,47.0,0.05,0.05,2.12,0.03,0.0,1.0122252713699653,4.795768968580535,0.027311138347460684,0.28,0,0,0.0
6.938896511000166,389,4695.72,-85.5,-1.3,-101.5,-4.42,1.6,0.39,0.03,-1.03,0.07,-168.8,-76.3,38.0,0.07,0.07,2.04,-0.04,0.0,1.032811696293182,4.716831563666441,0.04693961200526375,0.28,0,0,0.0
6.947454746000403,390,4695.73,-86.0,-1.4,-101.4,-4.34,1.67,0.35,0.04,-1.03,0.07,-169.5,-71.5,53.0,0.09,0.09,1.86,-0.04,0.0,1.0331505214633538,4.663367881692372,0.046332868431926966,0.28,0,0,0.0
6.959025497000766,391,4695.74,-86.4,-1.4,-101.2,-4.19,1.74,0.32,0.03,-1.03,0.06,-170.2,-64.2,68.0,0.11,0.11,1.65,-0.1,0.0,1.0321821544669332,4.548197445142416,0.04445721140679615,0.28,0,0,0.0
6.967701852000573,392,4695.75,-86.8,-1.4,-101.0,-4.03,1.83,0.3,0.03,-1.01,0.05,-170.8,-58.2,61.0,0.12,0.12,1.49,0.15,0.0,1.0116817681464858,4.43619206076563,0.023477688584621847,0.28,0,0,0.0
6.978968035000435,393,4695.76,-87.2,-1.4,-100.9,-3.94,1.91,0.33,0.03,-0.99,0.05,-171.3,-55.0,29.0,0.14,0.14,1.49,-0.12,0.0,0.9917156850630123,4.39096800261628,0.0034413733911253797,0.28,0,0,0.0
6.987673241000266,394,4695.77,-87.6,-1.4,-100.7,-4.04,1.96,0.39,0.02,-0.99,0.04,-171.9,-54.6,17.0,0.15,0.15,1.46,0.0,0.0,0.9910095862301231,4.5072497157357505,0.002680569067071481,0.28,0,0,0.0
6.999065416000121,395,4695.78,-88.0,-1.4,-100.5,-4.08,2.06,0.39,0.02,-0.99,0.0,-172.4,-54.6,0.0,0.17,0.17,1.5,-0.11,0.0,0.9902019995940222,4.587166881638383,0.0018355227823511067,0.28,0,0,0.0
7.00769665200005,396,4695.79,-88.5,-1.4,-100.3,-4.05,2.19,0.37,0.02,-1.0,-0.02,-173.0,-55.4,-4.0,0.18,0.18,1.52,-0.02,0.0,1.000399920031984,4.619036696108832,0.011792774355906643,0.28,0,0,0.0
7.019069988999945,397,4695.8,-88.9,-1.4,-100.0,-3.93,2.38,0.35,0.02,-1.01,-0.06,-173.5,-56.2,-10.0,0.2,0.2,1.54,0.16,0.0,1.0119782606360672,4.607797738616573,0.022903692660790065,0.28,0,0,0.0
7.027604720000454,398,4695.81,-89.4,-1.4,-99.8,-3.94,2.64,0.33,0.03,-1.04,-0.05,-174.1,-57.4,-12.0,0.21,0.21,1.58,0.02,0.0,1.041633332799983,4.754166593631317,0.05150758952821166,0.28,0,0,0.0
7.038839356000608,399,4695.82,-89.8,-1.4,-99.5,-3.96,2.83,0.27,0.04,-1.05,-0.03,-174.7,-58.4,-6.0,0.23,0.23,1.58,-0.22,0.0,1.0511898020814319,4.8747717895302545,0.05984277763346735,0.28,0,0,0.0
7.0475477170002705,400,4695.83,-90.2,-1.4,-99.2,-3.88,2.94,0.12,0.04,-1.09,0.0,-175.3,-59.7,-15.0,0.24,0.24,1.65,0.14,0.0,1.0907336980216575,4.869537965762254,0.09739894010221917,0.28,0,0,0.0
7.05894984600036,401,4695.84,-90.6,-1.4,-98.9,-3.78,3.0,-0.01,0.03,-1.1,0.0,-175.9,-61.8,-22.0,0.26,0.26,1.71,-0.01,0.0,1.100409014866745,4.825815993176698,0.10493277180836036,0.28,0,0,0.0
7.067580464000457,402,4695.85,-91.0,-1.3,-98.6,-3.6,3.05,-0.15,0.02,-1.09,-0.01,-176.5,-65.8,-39.0,0.28,0.28,1.86,0.12,0.0,1.0902293336725077,4.720699100768869,0.09285802880184069,0.28,0,0,0.0
7.079043394000109,403,4695.86,-91.3,-1.3,-98.3,-3.38,3.08,-0.26,0.0,-1.07,-0.03,-177.2,-70.4,-32.0,0.3,0.3,1.93,0.17,0.0,1.0704204781299729,4.580218335407166,0.07158818979411974,0.28,0,0,0.0
7.087576238000111,404,4695.87,-91.7,-1.2,-98.0,-3.14,3.04,-0.37,-0.01,-1.06,-0.02,-177.9,-72.1,-28.0,0.32,0.32,2.01,0.05,0.0,1.0602358228243376,4.386125853187526,0.06017546379871486,0.28,0,0,0.0
7.098900328000127,405,4695.88,-92.0,-1.2,-97.7,-2.92,2.9,-0.45,-0.03,-1.05,-0.03,-178.7,-74.7,-20.0,0.34,0.34,2.04,-0.22,0.0,1.0508567932882196,4.139915458073993,0.049780505577344814,0.28,0,0,0.0
7.10760714800017,406,4695.89,-92.3,-1.1,-97.4,-2.71,2.85,-0.48,-0.04,-1.03,-0.04,-179.4,-76.6,-14.0,0.36,0.36,2.06,-0.1,0.0,1.0315522284402279,3.961943967296862,0.02986642191476596,0.28,0,0,0.0
7.118850558000304,407,4695.9,-92.5,-1.1,-97.1,-2.57,2.82,-0.45,-0.05,-1.01,-0.03,-180.2,-74.7,21.0,0.38,0.38,1.96,-0.02,0.0,1.0116817681464858,3.8418485134112195,0.009796042388603432,0.28,0,0,0.0
7.127572148000581,408,4695.91,-92.8,-1.1,-96.8,-2.43,2.81,-0.36,-0.05,-1.0,-0.04,-180.9,-70.2,32.0,0.4,0.4,1.86,0.13,0.0,1.0020479030465559,3.7323719000121094,0.00015893374289999151,0.28,0,0,0.0
7.138918682000622,409,4695.92,-93.0,-1.0,-96.6,-2.33,2.83,-0.28,-0.03,-1.0,-0.02,-181.6,-67.9,21.0,0.42,0.42,1.83,-0.01,0.0,1.000649788887201,3.6764384939775616,0.0012143968081257395,0.28,0,0,0.0
7.147231895000004,410,4695.93,-93.2,-1.0,-96.3,-2.25,2.74,-0.22,-0.01,-1.01,-0.01,-182.3,-66.0,23.0,0.43,0.43,1.76,0.09,0.0,1.010099005048515,3.5522528063188297,0.008070122966124416,0.28,0,0,0.0
7.159049606000735,411,4695.94,-93.4,-0.9,-96.0,-2.08,2.66,-0.32,0.0,-1.02,-0.04,-182.9,-62.2,33.0,0.45,0.45,1.64,-0.18,0.0,1.0207840124139875,3.391813674127752,0.018380027724965053,0.28,0,0,0.0
7.171551567000279,412,4695.95,-93.6,-0.9,-95.8,-1.96,2.72,-0.4,0.01,-1.0,-0.04,-183.5,-59.2,28.0,0.47,0.47,1.57,-0.07,0.0,1.0008496390567367,3.3763886032268267,0.001523258719640097,0.28,0,0,0.0
7.183663582000008,413,4695.96,-93.8,-0.8,-95.5,-1.77,2.75,-0.44,0.0,-0.98,-0.06,-184.1,-57.1,22.0,0.48,0.48,1.53,0.19,0.0,0.9818350166906862,3.2998484813700157,0.020127123463976826,0.28,0,0,0.0
7.19143239999994,414,4695.97,-94.0,-0.7,-95.2,-1.62,2.79,-0.45,0.0,-0.96,-0.06,-184.6,-56.6,7.0,0.5,0.5,1.54,-0.03,0.0,0.9618731725128838,3.2574529927536946,0.03928718828894351,0.28,0,0,0.0
7.1996510460003265,415,4695.98,-94.1,-0.7,-94.9,-1.53,2.8,-0.46,0.0,-0.95,-0.04,-185.2,-55.3,18.0,0.51,0.51,1.47,-0.03,0.0,0.9508417323613851,3.223740063962974,0.04931225587163346,0.28,0,0,0.0
7.211499120000553,416,4695.99,-94.3,-0.6,-94.7,-1.58,2.72,-0.5,-0.01,-0.94,-0.03,-185.7,-53.3,18.0,0.53,0.53,1.42,0.06,0.0,0.9405317644821997,3.18509026559688,0.05842977927580251,0.28,0,0,0.0
7.21957407500031,417,4696.0,-94.6,-0.4,-94.1,-1.6,2.53,-0.64,-0.03,-0.95,-0.03,-186.1,-52.8,7.0,0.54,0.54,1.44,-0.08,0.0,0.950946896519464,3.0611272433533365,0.047054354293767475,0.28,0,0,0.0
7.2275001370007885,418,4696.01,-94.7,-0.4,-93.9,-1.56,2.39,-0.68,-0.04,-0.96,-0.04,-186.9,-52.6,4.0,0.56,0.56,1.43,-0.13,0.0,0.9616652224137047,2.9339563732271143,0.03560930783153626,0.28,0,0,0.0
7.239029413000026,419,4696.02,-94.8,-0.3,-93.7,-1.71,2.29,-0.69,-0.04,-0.96,-0.05,-187.4,-51.9,0.0,0.57,0.57,1.43,0.03,0.0,0.9621330469326994,2.9401190452088843,0.03443865364629073,0.28,0,0,0.0
7.247549731000618,420,4696.03,-95.0,-0.2,-93.5,-1.8,2.26,-0.65,-0.04,-0.97,-0.06,-187.9,-52.0,4.0,0.59,0.59,1.4,0.17,0.0,0.9726767191621274,2.9614354627443764,0.02341708178852553,0.28,0,0,0.0
7.2589702700006455,421,4696.04,-95.2,-0.2,-93.2,-1.79,2.28,-0.52,-0.02,-0.97,-0.06,-188.4,-51.4,-2.0,0.6,0.6,1.41,-0.13,0.0,0.97205966895042,2.9449787775126666,0.023553449360228296,0.28,0,0,0.0
7.2675315160004175,422,4696.05,-95.4,-0.1,-93.0,-1.81,2.4,-0.37,-0.01,-0.99,-0.07,-188.9,-52.4,-13.0,0.61,0.61,1.47,-0.08,0.0,0.9925220400575495,3.0286960890785988,0.0030292566880367744,0.28,0,0,0.0
7.278899819000799,423,4696.06,-95.4,-0.1,-93.0,-1.81,2.4,-0.37,-0.01,-0.99,-0.07,-189.4,-54.0,-12.0,0.63,0.63,1.49,-0.22,0.0,0.9925220400575495,3.0286960890785988,0.002968671554276048,0.28,0,0,0.0
7.287528613000177,424,4696.07,-95.5,-0.1,-92.8,-1.89,2.51,-0.15,0.0,-0.99,-0.1,-189.9,-54.7,-4.0,0.64,0.64,1.46,-0.05,0.0,0.9950376877284598,3.145584206471033,0.000443963405698411,0.28,0,0,0.0
7.299038064000342,425,4696.08,-95.7,0.0,-92.5,-1.88,2.71,0.04,0.02,-1.03,-0.12,-190.4,-53.4,5.0,0.66,0.66,1.43,0.03,0.0,1.0371595827065379,3.298499658935862,0.04084437294093202,0.28,0,0,0.0
7.307617921000201,426,4696.09,-95.9,0.0,-92.2,-1.55,2.96,0.14,0.03,-1.04,-0.1,-191.0,-52.0,10.0,0.67,0.67,1.4,-0.04,0.0,1.0452272480183435,3.3442039411495226,0.047933797487683005,0.28,0,0,0.0
7.318804115000603,427,4696.1,-96.0,0.0,-91.9,-1.24,3.14,0.22,0.02,-1.02,-0.08,-191.5,-52.7,-8.0,0.69,0.69,1.46,0.05,0.0,1.0233279044372825,3.3831346411279584,0.02551376482848955,0.28,0,0,0.0
7.327503545000582,428,4696.11,-96.2,0.0,-91.6,-1.26,3.27,0.26,0.02,-1.0,-0.08,-192.1,-55.0,-24.0,0.7,0.7,1.55,0.17,0.0,1.0033942395688744,3.5139863403263254,0.005468497960879781,0.28,0,0,0.0
7.338958582000487,429,4696.12,-96.3,0.0,-91.3,-1.27,3.39,0.27,0.02,-0.98,-0.07,-192.7,-58.3,-23.0,0.72,0.72,1.59,0.2,0.0,0.982700361249552,3.630137738433626,0.01492087275127385,0.28,0,0,0.0
7.347395059000519,430,4696.13,-96.4,0.0,-90.9,-1.31,3.52,0.29,0.01,-0.97,-0.08,-193.2,-58.6,-6.0,0.73,0.73,1.59,0.05,0.0,0.973344748791506,3.7670412793066124,0.023790955505133438,0.28,0,0,0.0
7.358929140000328,431,4696.14,-96.5,0.0,-90.5,-1.3,3.67,0.26,0.0,-0.97,-0.08,-193.8,-58.9,-6.0,0.75,0.75,1.61,-0.04,0.0,0.9732933781753578,3.902114811227368,0.023365479598856043,0.28,0,0,0.0
7.367680975999974,432,4696.15,-96.6,0.0,-90.2,-1.28,3.74,0.24,-0.02,-0.96,-0.07,-194.4,-59.6,-8.0,0.76,0.76,1.63,0.18,0.0,0.9627564593395361,3.9602525172013974,0.033224350465984154,0.28,0,0,0.0
7.378976941000474,433,4696.16,-96.7,0.0,-89.8,-1.25,3.81,0.2,-0.03,-0.97,-0.07,-195.0,-61.7,-20.0,0.78,0.78,1.72,0.02,0.0,0.9729850975220535,4.014797628772838,0.022535798037797372,0.28,0,0,0.0
7.387669931000346,434,4696.17,-96.8,0.0,-89.4,-1.3,3.81,0.14,-0.05,-0.95,-0.05,-195.7,-61.0,15.0,0.8,0.8,1.59,0.12,0.0,0.9526279441628824,4.028113702466702,0.04203509236902914,0.28,0,0,0.0
7.3990556440003274,435,4696.18,-96.9,0.0,-89.0,-1.32,3.81,0.16,-0.06,-0.96,-0.05,-196.2,-57.6,28.0,0.81,0.81,1.51,0.06,0.0,0.96317184344228,4.035356242018789,0.030861369227838886,0.28,0,0,0.0
7.407624532000227,436,4696.19,-97.0,0.0,-88.7,-1.27,3.79,0.16,-0.08,-0.96,-0.05,-196.8,-54.2,38.0,0.83,0.83,1.4,0.05,0.0,0.9646242791885346,4.000324986797947,0.028820754811952676,0.28,0,0,0.0
7.419055061000108,437,4696.2,-97.2,0.1,-88.3,-1.31,3.76,0.25,-0.08,-0.95,-0.04,-197.3,-48.4,52.0,0.84,0.84,1.25,0.11,0.0,0.95420123663722,3.9895112482608694,0.03845892141600182,0.28,0,0,0.0
7.427604642000006,438,4696.21,-97.3,0.1,-87.9,-1.25,3.7,0.27,-0.09,-0.97,-0.04,-197.8,-42.6,57.0,0.85,0.85,1.07,0.01,0.0,0.9749871794028884,3.914766915155997,0.01731951907732676,0.28,0,0,0.0
7.4388686410002265,439,4696.22,-97.4,0.1,-87.5,-1.13,3.69,0.28,-0.09,-0.98,-0.04,-198.1,-34.2,76.0,0.86,0.86,0.83,-0.17,0.0,0.9849365461794988,3.8692893404344937,0.00722274925470201,0.28,0,0,0.0
7.447557733000394,440,4696.23,-97.5,0.1,-87.2,-1.19,3.64,0.25,-0.08,-0.99,-0.05,-198.4,-24.9,92.0,0.87,0.87,0.54,0.18,0.0,0.9944847912361455,3.8377337062386183,0.0022789858859058043,0.28,0,0,0.0
7.459025250000195,441,4696.24,-97.6,0.1,-86.8,-1.15,3.58,0.2,-0.09,-1.0,-0.04,-198.6,-14.4,91.0,0.87,0.87,0.29,0.0,0.0,1.0048382954485762,3.765488016180638,0.012379840296369737,0.28,0,0,0.0
7.4677119410007435,442,4696.25,-97.7,0.2,-86.4,-0.97,3.52,0.19,-0.1,-1.01,-0.07,-198.7,-6.6,87.0,0.87,0.87,0.06,-0.24,0.0,1.0173494974687902,3.656145511327469,0.024393221470252135,0.28,0,0,0.0
7.478991158000099,443,4696.26,-97.8,0.2,-86.1,-0.77,3.48,0.14,-0.11,-1.04,-0.07,-198.7,1.0,67.0,0.87,0.87,-0.07,0.03,0.0,1.0481412118603104,3.566917436667129,0.05408123714453683,0.28,0,0,0.0
7.48768191399995,444,4696.27,-97.9,0.2,-85.8,-0.54,3.46,0.13,-0.1,-1.04,-0.08,-198.7,-0.2,4.0,0.87,0.87,0.03,0.23,0.0,1.047854951794379,3.5042973618116373,0.05271907753703331,0.28,0,0,0.0
7.49887356399995,445,4696.28,-97.9,0.3,-85.4,-0.34,3.4,0.15,-0.09,-1.04,-0.07,-198.7,0.0,10.0,0.87,0.87,-0.01,-0.19,0.0,1.0462313319720453,3.4202485289814835,0.05007354856040569,0.28,0,0,0.0
7.507618251000167,446,4696.29,-98.0,0.3,-85.1,-0.21,3.32,0.27,-0.08,-1.04,-0.06,-198.7,0.1,3.0,0.87,0.87,0.0,0.04,0.0,1.0447966309287182,3.337573969217761,0.047666070566736995,0.28,0,0,0.0
7.518908326000201,447,4696.3,-98.0,0.3,-84.7,-0.01,3.2,0.42,-0.08,-1.05,-0.06,-198.7,0.0,-1.0,0.87,0.87,0.01,0.13,0.0,1.0547511554864493,3.227460301847259,0.05646818322197866,0.28,0,0,0.0
7.527624676000414,448,4696.31,-98.0,0.3,-84.4,0.19,3.18,0.57,-0.07,-1.04,-0.07,-198.7,0.1,-1.0,0.87,0.87,0.01,0.0,0.0,1.04470091413763,3.236263277299917,0.04548958303569617,0.28,0,0,0.0
7.539004641000247,449,4696.32,-97.9,0.2,-84.1,0.43,3.17,0.69,-0.06,-1.02,-0.08,-198.7,-0.2,2.0,0.87,0.87,0.0,-0.05,0.0,1.0248902380255165,3.272598356046767,0.02516532878511102,0.28,0,0,0.0
7.547670030000518,450,4696.33,-97.8,0.2,-83.8,0.58,3.18,0.73,-0.06,-1.01,-0.09,-198.7,0.0,0.0,0.87,0.87,0.0,0.0,0.0,1.0157755657624374,3.313864813175094,0.01572964339159144,0.28,0,0,0.0
7.558917930999996,451,4696.34,-97.7,0.1,-83.4,0.52,3.17,0.74,-0.06,-1.0,-0.1,-198.7,0.0,0.0,0.87,0.87,0.0,-0.01,0.0,1.0067770358922576,3.296498141968231,0.006596491250983494,0.28,0,0,0.0
7.567544774000453,452,4696.35,-97.7,0.0,-83.1,0.28,3.12,0.74,-0.06,-0.99,-0.11,-198.7,0.0,4.0,0.87,0.87,-0.01,0.0,0.0,0.9978977903573091,3.2187575242630504,0.0022370991982857413,0.28,0,0,0.0
7.579043147000448,453,4696.36,-97.6,0.0,-82.8,0.03,3.07,0.76,-0.06,-1.01,-0.11,-198.7,0.0,0.0,0.87,0.87,0.0,0.17,0.0,1.017742600071354,3.162815201683462,0.017255556305444175,0.28,0,0,0.0
7.5876195740002,454,4696.37,-97.6,0.0,-82.5,-0.03,3.05,0.8,-0.06,-1.03,-0.12,-198.7,0.1,-8.0,0.87,0.87,0.03,0.03,0.0,1.0387011119662866,3.153315715243242,0.037449786836369015,0.28,0,0,0.0
7.599106399999982,455,4696.38,-97.6,-0.1,-82.2,0.05,3.05,0.83,-0.06,-1.04,-0.13,-198.7,-0.7,5.0,0.87,0.87,-0.02,-0.1,0.0,1.0498095065296371,3.1613130183517097,0.04758701777172525,0.28,0,0,0.0
7.607743896000102,456,4696.39,-97.6,-0.2,-81.9,0.22,3.05,0.84,-0.06,-1.04,-0.13,-198.7,0.1,0.0,0.87,0.87,0.0,0.13,0.0,1.0498095065296371,3.1711985116040906,0.04663527741629081,0.28,0,0,0.0
7.619100838000122,457,4696.4,-97.6,-0.2,-81.6,0.32,3.05,0.86,-0.07,-1.03,-0.13,-198.7,-0.3,-3.0,0.87,0.87,0.01,-0.01,0.0,1.0405287117614774,3.1850431708220217,0.036607392995168464,0.28,0,0,0.0
7.627512220999961,458,4696.41,-97.6,-0.3,-81.2,0.3,3.06,0.87,-0.08,-1.01,-0.12,-198.7,-0.5,-1.0,0.87,0.87,0.02,-0.06,0.0,1.0202450685987166,3.195387300469225,0.015997274835759523,0.28,0,0,0.0
7.639090178000515,459,4696.42,-97.5,-0.4,-80.9,0.28,3.03,0.87,-0.09,-1.0,-0.11,-198.7,-0.9,-6.0,0.87,0.87,0.04,-0.14,0.0,1.0100495037373167,3.1648380685273616,0.005685675774872445,0.28,0,0,0.0
7.647685466999974,460,4696.43,-97.5,-0.5,-80.6,0.26,2.95,0.85,-0.1,-0.98,-0.1,-198.7,-2.1,-6.0,0.87,0.87,0.05,-0.01,0.0,0.990151503558925,3.0810063291074234,0.013928077915448922,0.28,0,0,0.0
7.658847011000034,461,4696.44,-97.4,-0.6,-80.3,0.22,2.87,0.79,-0.1,-0.97,-0.1,-198.7,-2.1,0.0,0.87,0.87,0.05,0.22,0.0,0.9802550688468793,2.984861805846294,0.02334802237494482,0.28,0,0,0.0
7.667627326000002,462,4696.45,-97.4,-0.7,-80.0,0.11,2.76,0.75,-0.12,-0.96,-0.1,-198.8,-2.7,-13.0,0.88,0.88,0.11,0.04,0.0,0.9726253132630263,2.8622019495486337,0.030358222399621937,0.28,0,0,0.0
7.679047026000262,463,4696.46,-97.4,-0.7,-79.8,0.0,2.62,0.76,-0.13,-0.96,-0.1,-198.8,-6.0,-28.0,0.88,0.88,0.2,0.13,0.0,0.973909646733207,2.7280029325497437,0.028492411150852326,0.28,0,0,0.0
7.687606589000097,464,4696.47,-97.4,-0.8,-79.5,-0.09,2.52,0.8,-0.13,-0.96,-0.1,-198.9,-7.7,-8.0,0.88,0.88,0.19,-0.25,0.0,0.973909646733207,2.645467822522134,0.027922562927835348,0.28,0,0,0.0
7.69911138200041,465,4696.48,-97.4,-0.8,-79.2,-0.17,2.43,0.84,-0.14,-0.97,-0.09,-199.0,-6.5,3.0,0.88,0.88,0.16,-0.15,0.0,0.9841747812253675,2.5767033201360223,0.01730427986696126,0.28,0,0,0.0
7.707707579000271,466,4696.49,-97.5,-0.9,-79.0,-0.11,2.33,0.84,-0.14,-0.98,-0.09,-199.0,-9.4,-34.0,0.88,0.88,0.33,0.15,0.0,0.9940321926376429,2.4792337525937325,0.00729793108559218,0.28,0,0,0.0
7.719056083999931,467,4696.5,-97.5,-0.9,-78.8,0.0,2.21,0.77,-0.13,-0.97,-0.09,-199.2,-13.3,-22.0,0.89,0.89,0.36,0.05,0.0,0.9828021163998376,2.3402991261802413,0.018157447176929575,0.28,0,0,0.0
7.727524113000072,468,4696.51,-97.5,-1.0,-78.5,0.03,2.0,0.65,-0.14,-0.95,-0.08,-199.3,-13.8,-3.0,0.89,0.89,0.35,-0.1,0.0,0.9635870484808313,2.103188056261256,0.03662506479401717,0.28,0,0,0.0
7.738961400000335,469,4696.52,-97.5,-1.0,-78.3,-0.04,1.75,0.52,-0.15,-0.94,-0.08,-199.4,-9.4,29.0,0.89,0.89,0.21,0.0,0.0,0.9552486587271399,1.826061335223984,0.04406418545675439,0.28,0,0,0.0
7.747688589000063,470,4696.53,-97.5,-1.0,-78.2,-0.17,1.5,0.39,-0.15,-0.93,-0.09,-199.5,-9.1,-5.0,0.9,0.9,0.28,-0.01,0.0,0.9463086177352503,1.559166443969341,0.051944141919671116,0.28,0,0,0.0
7.759073511000679,471,4696.54,-97.5,-1.1,-78.0,-0.36,1.28,0.25,-0.16,-0.94,-0.09,-199.6,-11.8,-14.0,0.9,0.9,0.34,-0.01,0.0,0.9577577981932592,1.352959718543017,0.03968506223242896,0.28,0,0,0.0
7.767698921000374,472,4696.55,-97.6,-1.1,-77.9,-0.6,1.01,0.08,-0.16,-0.97,-0.09,-199.7,-12.5,1.0,0.9,0.9,0.31,0.08,0.0,0.9872183142547548,1.177497346069196,0.010020055247514703,0.28,0,0,0.0
7.778880817000754,473,4696.56,-97.6,-1.0,-77.8,-0.68,0.78,-0.04,-0.15,-0.99,-0.1,-199.8,-7.4,39.0,0.9,0.9,0.13,-0.08,0.0,1.0062802790475425,1.0355674772799695,0.008861071354367533,0.28,0,0,0.0
7.7875593180006035,474,4696.57,-97.7,-1.0,-77.8,-0.52,0.51,-0.12,-0.15,-0.99,-0.1,-199.9,-3.2,26.0,0.91,0.91,0.08,0.18,0.0,1.0062802790475425,0.738173421358423,0.008683849927280218,0.28,0,0,0.0
7.7990659020006206,475,4696.58,-97.8,-1.0,-77.7,-0.31,0.27,-0.12,-0.14,-0.99,-0.1,-199.9,-3.9,-2.0,0.91,0.91,0.13,-0.04,0.0,1.004838295448576,0.4282522621072771,0.007097029001747468,0.28,0,0,0.0
7.807721270000002,476,4696.59,-97.8,-1.0,-77.7,-0.15,0.06,-0.15,-0.13,-0.99,-0.11,-199.9,-5.0,-3.0,0.91,0.91,0.13,-0.12,0.0,1.0045396955820114,0.220454076850486,0.00666246055247921,0.28,0,0,0.0
7.818989402000625,477,4696.6,-97.8,-1.0,-77.7,-0.13,-0.09,-0.23,-0.12,-0.99,-0.12,-200.0,-4.5,11.0,0.91,0.91,0.09,-0.17,0.0,1.0044401425669924,0.27910571473905726,0.006431649386711036,0.28,0,0,0.0
7.8275903220001055,478,4696.61,-97.8,-1.1,-77.7,-0.2,-0.17,-0.35,-0.11,-0.99,-0.13,-200.0,0.0,33.0,0.91,0.91,-0.04,0.01,0.0,1.0045396955820112,0.43749285708454716,0.00640057835369523,0.28,0,0,0.0
7.839000241000576,479,4696.62,-97.8,-1.1,-77.8,-0.21,-0.19,-0.47,-0.09,-0.98,-0.14,-200.0,-0.2,0.0,0.91,0.91,0.01,0.1,0.0,0.9940321926376429,0.5487257967327579,0.00402478609885959,0.28,0,0,0.0
7.847671785000784,480,4696.63,-97.8,-1.1,-77.8,-0.2,-0.18,-0.56,-0.08,-0.98,-0.14,-200.0,0.4,10.0,0.91,0.91,-0.03,0.34,0.0,0.9931767214348108,0.6212889826803627,0.004782652155657763,0.28,0,0,0.0
7.858980242000143,481,4696.64,-97.9,-1.0,-77.8,-0.18,-0.17,-0.64,-0.07,-0.98,-0.15,-200.0,-0.2,-2.0,0.91,0.91,0.0,0.19,0.0,0.9938812806366764,0.6862215385719105,0.003996531094716427,0.28,0,0,0.0
7.867603683000198,482,4696.65,-97.9,-1.0,-77.8,-0.18,-0.11,-0.71,-0.06,-0.98,-0.15,-200.0,0.1,3.0,0.91,0.91,0.0,-0.02,0.0,0.9932270636667125,0.7406753674856482,0.004557733103386585,0.28,0,0,0.0
7.878975866000474,483,4696.66,-97.9,-0.9,-77.9,-0.23,-0.05,-0.74,-0.04,-0.97,-0.15,-200.0,0.0,-3.0,0.91,0.91,0.0,-0.18,0.0,0.982344135219425,0.776530746332687,0.015131848319660635,0.28,0,0,0.0
7.8877052300003925,484,4696.67,-98.0,-0.9,-77.9,-0.26,0.02,-0.76,-0.04,-0.98,-0.16,-200.0,0.1,0.0,0.91,0.91,0.0,0.01,0.0,0.9937806599043875,0.8034923770640267,0.003621417162004148,0.28,0,0,0.0
7.89906337299999,485,4696.68,-98.0,-0.8,-77.9,-0.26,0.1,-0.72,-0.05,-1.0,-0.15,-200.0,0.0,1.0,0.91,0.91,0.0,-0.07,0.0,1.0124228365658292,0.7720103626247513,0.014720344309448796,0.28,0,0,0.0
7.907446908000566,486,4696.69,-98.0,-0.8,-77.9,-0.28,0.13,-0.66,-0.06,-1.0,-0.14,-200.0,-0.2,-2.0,0.91,0.91,0.0,-0.02,0.0,1.0115334893121435,0.7286288492778749,0.013554377114647798,0.28,0,0,0.0
7.919041923000805,487,4696.7,-98.1,-0.8,-77.9,-0.3,0.11,-0.58,-0.06,-1.02,-0.13,-200.0,0.3,-1.0,0.91,0.91,0.0,-0.03,0.0,1.03,0.6621933252457322,0.03138047004645428,0.28,0,0,0.0
7.927573073000531,488,4696.71,-98.1,-0.7,-77.9,-0.28,0.08,-0.51,-0.07,-1.03,-0.14,-200.0,-0.2,4.0,0.91,0.91,-0.01,0.07,0.0,1.0418253212511202,0.587281874401041,0.04234167547162293,0.28,0,0,0.0
7.939039247999972,489,4696.72,-98.1,-0.7,-77.9,-0.25,0.09,-0.42,-0.08,-1.02,-0.14,-200.0,-0.2,-5.0,0.91,0.91,0.01,0.01,0.0,1.032666451474047,0.49699094559156703,0.03251914958065871,0.28,0,0,0.0
7.947632227000213,490,4696.73,-98.1,-0.7,-77.9,-0.14,0.04,-0.34,-0.09,-1.01,-0.14,-200.0,0.0,0.0,0.91,0.91,0.0,-0.03,0.0,1.0236210236215355,0.36986484017813864,0.0230042472935843,0.28,0,0,0.0
7.958864396000536,491,4696.74,-98.1,-0.7,-77.9,-0.01,-0.01,-0.29,-0.09,-0.99,-0.14,-200.0,-0.4,-2.0,0.91,0.91,0.01,-0.02,0.0,1.0038924245156948,0.2903446228191595,0.0032101352239888303,0.28,0,0,0.0
7.967460509000375,492,4696.75,-98.1,-0.8,-77.9,-0.05,-0.04,-0.28,-0.09,-0.98,-0.15,-200.0,-0.1,-1.0,0.91,0.91,0.01,-0.14,0.0,0.9954898291795853,0.2872281323269015,0.005088610909878222,0.28,0,0,0.0
7.979047376999915,493,4696.76,-98.2,-0.8,-77.9,-0.18,-0.12,-0.28,-0.09,-0.96,-0.15,-200.0,-1.2,-7.0,0.91,0.91,0.05,0.11,0.0,0.9758073580374356,0.3538361202590827,0.024275660410987276,0.28,0,0,0.0
7.98768902700067,494,4696.77,-98.2,-0.8,-77.9,-0.22,-0.28,-0.31,-0.09,-0.96,-0.15,-200.0,-2.4,-13.0,0.91,0.91,0.09,0.17,0.0,0.9758073580374356,0.4721228653645151,0.02379014720276751,0.28,0,0,0.0
7.999054530000649,495,4696.78,-98.2,-0.8,-78.0,-0.22,-0.51,-0.37,-0.1,-0.95,-0.15,-200.1,-4.4,-19.0,0.91,0.91,0.15,-0.2,0.0,0.9669539802906858,0.6673829485385434,0.031990654450526956,0.28,0,0,0.0
8.00763391000055,496,4696.79,-98.3,-0.8,-78.0,-0.31,-0.77,-0.46,-0.13,-0.94,-0.15,-200.1,-7.3,-24.0,0.91,0.91,0.22,-0.13,0.0,0.960728889958036,0.9489994731294639,0.037451429887513266,0.28,0,0,0.0
8.019084936000581,497,4696.8,-98.3,-0.8,-78.1,-0.46,-1.08,-0.52,-0.15,-0.95,-0.16,-200.2,-8.0,-7.0,0.92,0.92,0.22,0.1,0.0,0.9749871794028883,1.2839003076563227,0.02272927763380772,0.28,0,0,0.0
8.027542971000003,498,4696.81,-98.3,-0.8,-78.3,-0.61,-1.41,-0.55,-0.16,-0.94,-0.16,-200.3,-8.3,-16.0,0.92,0.92,0.27,-0.07,0.0,0.9668505572217455,1.6317781711985242,0.03024858181865142,0.28,0,0,0.0
8.03896481800075,499,4696.82,-98.4,-0.7,-78.4,-0.75,-1.75,-0.52,-0.17,-0.95,-0.15,-200.4,-13.7,-41.0,0.92,0.92,0.43,0.15,0.0,0.9766780431646859,1.9736767719158068,0.020012673958196836,0.28,0,0,0.0
8.04766491800001,500,4696.83,-98.5,-0.7,-78.6,-0.92,-2.13,-0.5,-0.17,-0.96,-0.16,-200.6,-17.4,-35.0,0.93,0.93,0.51,-0.11,0.0,0.9879777325425912,2.3734573937612615,0.008538724888685678,0.28,0,0,0.0
8.058703237000373,501,4696.84,-98.6,-0.7,-78.9,-1.05,-2.43,-0.46,-0.15,-0.97,-0.18,-200.8,-18.4,-20.0,0.93,0.93,0.53,-0.03,0.0,0.9978977903573091,2.6868196813333047,0.001353706267511523,0.28,0,0,0.0
8.06707975000063,502,4696.85,-98.7,-0.7,-79.1,-1.16,-2.61,-0.41,-0.13,-0.98,-0.2,-201.0,-19.1,-5.0,0.94,0.94,0.52,-0.07,0.0,1.008612908900139,2.885446239318972,0.011827448314134625,0.28,0,0,0.0
8.078722957000537,503,4696.86,-98.8,-0.7,-79.4,-1.2,-2.68,-0.32,-0.11,-0.98,-0.2,-201.2,-21.3,-33.0,0.94,0.94,0.66,0.21,0.0,1.0062305898749053,2.9537772427859212,0.009256226703122983,0.28,0,0,0.0
8.087037971999962,504,4696.87,-99.0,-0.7,-79.7,-1.2,-2.68,-0.17,-0.07,-0.99,-0.2,-201.4,-27.6,-44.0,0.95,0.95,0.79,-0.03,0.0,1.0124228365658292,2.9413092322977534,0.01513950392616592,0.28,0,0,0.0
8.099019529000543,505,4696.88,-99.1,-0.8,-79.9,-1.21,-2.6,0.01,-0.03,-1.0,-0.2,-201.7,-31.2,-39.0,0.96,0.96,0.88,0.0,0.0,1.0202450685987166,2.867786602939626,0.022502501239872186,0.28,0,0,0.0
8.1075000310002,506,4696.89,-99.2,-0.9,-80.2,-1.09,-2.46,0.2,-0.01,-1.02,-0.2,-202.1,-33.9,-29.0,0.97,0.97,0.96,-0.07,0.0,1.0394710193170371,2.6980919183749097,0.040893882919028846,0.28,0,0,0.0
8.118944534000548,507,4696.9,-99.3,-0.9,-80.4,-0.84,-2.27,0.35,0.0,-1.03,-0.2,-202.4,-36.6,-21.0,0.98,0.98,1.0,0.29,0.0,1.049237818609299,2.445608308785362,0.04964746856706492,0.28,0,0,0.0
8.127520944000025,508,4696.91,-99.4,-1.0,-80.6,-0.66,-2.08,0.46,0.0,-1.02,-0.21,-202.8,-39.7,-33.0,0.99,0.99,1.12,-0.01,0.0,1.0413932974625868,2.230156945149825,0.04096688847194563,0.28,0,0,0.0
8.139041992000784,509,4696.92,-99.5,-1.1,-80.8,-0.56,-1.91,0.51,0.0,-1.01,-0.21,-203.2,-41.7,-7.0,1.0,1.0,1.09,-0.09,0.0,1.0316006979447039,2.0547019248543084,0.03055080317498149,0.28,0,0,0.0
8.14765612300016,510,4696.93,-99.6,-1.1,-81.0,-0.47,-1.78,0.52,-0.02,-0.98,-0.2,-203.6,-37.4,29.0,1.01,1.01,0.96,0.08,0.0,1.000399920031984,1.9130342391081243,0.0006369752429835618,0.28,0,0,0.0
8.15906174400061,511,4696.94,-99.7,-1.2,-81.1,-0.46,-1.7,0.54,-0.04,-0.96,-0.19,-203.9,-31.9,49.0,1.02,1.02,0.78,0.21,0.0,0.979438614717635,1.8420640596895645,0.021166314946185816,0.28,0,0,0.0
8.167651739000576,512,4696.95,-99.7,-1.3,-81.3,-0.42,-1.69,0.52,-0.05,-0.95,-0.18,-204.2,-25.3,54.0,1.03,1.03,0.63,-0.13,0.0,0.9681941953967705,1.81738823590338,0.03176251958170928,0.28,0,0,0.0
8.179046000000199,513,4696.96,-99.8,-1.4,-81.4,-0.39,-1.68,0.52,-0.06,-0.94,-0.18,-204.4,-19.5,65.0,1.03,1.03,0.44,-0.02,0.0,0.9589577675789481,1.8013605968822566,0.04017896845154101,0.28,0,0,0.0
8.187579887000538,514,4696.97,-99.8,-1.5,-81.6,-0.35,-1.7,0.44,-0.08,-0.95,-0.17,-204.6,-10.6,88.0,1.03,1.03,0.14,-0.04,0.0,0.9684007434941384,1.79055857206627,0.0301212726856237,0.28,0,0,0.0
8.199047726000572,515,4696.98,-99.8,-1.6,-81.8,-0.31,-1.73,0.33,-0.08,-0.96,-0.18,-204.6,-0.7,86.0,1.03,1.03,-0.06,-0.04,0.0,0.98,1.788267317824715,0.01815157585616689,0.28,0,0,0.0
8.207569642000635,516,4696.99,-99.9,-1.7,-81.9,-0.26,-1.76,0.16,-0.08,-0.98,-0.18,-204.6,1.2,14.0,1.03,1.03,0.02,-0.09,0.0,0.9995999199679839,1.7862810529141264,0.0014193772295807427,0.28,0,0,0.0
8.219023847000244,517,4697.0,-99.9,-1.8,-82.1,-0.16,-1.83,0.0,-0.07,-0.99,-0.17,-204.6,-0.3,7.0,1.03,1.03,0.0,-0.12,0.0,1.0069260151570223,1.83698121928342,0.00857056297024672,0.28,0,0,0.0
8.22732909000024,518,4697.01,-99.9,-1.8,-82.3,-0.05,-1.91,-0.09,-0.07,-0.98,-0.16,-204.6,0.2,2.0,1.03,1.03,0.0,0.05,0.0,0.9954396013822234,1.912772856352787,0.0028575337884610974,0.28,0,0,0.0
8.238751795000098,519,4697.02,-99.9,-1.9,-82.5,0.0,-2.04,-0.14,-0.06,-0.98,-0.15,-204.6,0.0,0.0,1.03,1.03,0.0,0.04,0.0,0.9932270636667125,2.044798278559526,0.004968670073892567,0.28,0,0,0.0
8.246873052999945,520,4697.03,-99.9,-1.9,-82.7,0.1,-2.13,-0.15,-0.06,-0.97,-0.14,-204.6,0.0,-1.0,1.03,1.03,0.01,0.03,0.0,0.9818859404228171,2.1376154939558236,0.015983597451432296,0.28,0,0,0.0
8.258660183000757,521,4697.04,-99.8,-2.0,-82.9,0.13,-2.2,-0.15,-0.05,-0.97,-0.13,-204.6,0.0,2.0,1.03,1.03,-0.01,0.03,0.0,0.9799489782636644,2.2089363956438404,0.017562148418373225,0.28,0,0,0.0
8.267279186999986,522,4697.05,-99.8,-2.0,-83.1,0.16,-2.24,-0.16,-0.03,-0.97,-0.14,-204.6,0.0,0.0,1.03,1.03,0.0,-0.03,0.0,0.9805100713404222,2.2513995647152463,0.016661034234783156,0.28,0,0,0.0
8.278668414000094,523,4697.06,-99.7,-2.0,-83.4,0.15,-2.27,-0.2,-0.02,-0.97,-0.15,-204.6,0.0,-2.0,1.03,1.03,0.0,-0.04,0.0,0.9817331613019904,2.28372502723073,0.015129185387750654,0.28,0,0,0.0
8.287086459999955,524,4697.07,-99.7,-2.0,-83.6,0.15,-2.31,-0.21,-0.01,-0.96,-0.17,-204.6,0.0,3.0,1.03,1.03,0.0,-0.03,0.0,0.9749871794028884,2.3243708826260927,0.02143766394111568,0.28,0,0,0.0
8.298649925000063,525,4697.08,-99.7,-2.0,-83.8,0.16,-2.27,-0.17,0.0,-0.96,-0.19,-204.6,0.0,-1.0,1.03,1.03,0.0,-0.03,0.0,0.9786214794290998,2.2819728306883937,0.017447296636606158,0.28,0,0,0.0
8.306940125000438,526,4697.09,-99.7,-2.0,-84.1,0.13,-2.19,-0.12,0.02,-0.97,-0.2,-204.6,-0.3,0.0,1.03,1.03,0.0,-0.04,0.0,0.9906058752097122,2.1971344974762013,0.005353642838873851,0.28,0,0,0.0
8.318803902000582,527,4697.1,-99.7,-2.0,-84.3,0.1,-2.08,-0.05,0.02,-0.97,-0.2,-204.6,0.0,-3.0,1.03,1.03,0.01,-0.02,0.0,0.9906058752097122,2.083002640420794,0.005246569982096383,0.28,0,0,0.0
8.327345131000584,528,4697.11,-99.7,-2.0,-84.5,0.09,-2.02,0.02,0.02,-0.98,-0.2,-204.6,-0.1,0.0,1.03,1.03,0.0,0.04,0.0,1.000399920031984,2.0221028658305196,0.00445652534337182,0.28,0,0,0.0
8.338804480000363,529,4697.12,-99.7,-2.0,-84.7,0.12,-1.94,0.08,0.02,-0.99,-0.2,-204.6,-0.3,-2.0,1.03,1.03,0.0,0.02,0.0,1.010198000393982,1.9453534383242548,0.013969513591262528,0.28,0,0,0.0
8.351257954000175,530,4697.13,-99.7,-2.0,-84.8,0.06,-1.83,0.16,0.0,-0.99,-0.18,-204.6,-0.7,-4.0,1.03,1.03,0.03,-0.11,0.0,1.0062305898749053,1.837960826568401,0.009802061010741991,0.28,0,0,0.0
8.359260985000219,531,4697.14,-99.7,-2.0,-85.0,0.07,-1.8,0.22,0.0,-0.99,-0.17,-204.6,-1.3,-5.0,1.03,1.03,0.03,0.02,0.0,1.0044899203078146,1.8147451611727747,0.007900163614778188,0.28,0,0,0.0
8.367291627000668,532,4697.15,-99.7,-2.1,-85.2,0.1,-1.8,0.28,-0.02,-0.98,-0.17,-204.6,-1.8,-7.0,1.04,1.04,0.06,-0.03,0.0,0.994836670011716,1.8243903091169937,0.001718024947693908,0.28,0,0,0.0
8.37862941200001,533,4697.16,-99.7,-2.2,-85.5,-0.07,-1.91,0.38,-0.04,-0.98,-0.17,-204.7,-4.0,-24.0,1.04,1.04,0.18,0.05,0.0,0.9954396013822235,1.9486918689213029,0.0010927917056426928,0.28,0,0,0.0
8.390908051000224,534,4697.17,-99.7,-2.2,-85.5,-0.07,-1.91,0.38,-0.04,-0.98,-0.17,-204.7,-8.3,-28.0,1.04,1.04,0.25,-0.02,0.0,0.9954396013822235,1.9486918689213029,0.0010709358715298434,0.28,0,0,0.0
8.39889162000054,535,4697.18,-99.7,-2.3,-85.7,-0.04,-1.99,0.36,-0.04,-0.98,-0.16,-204.8,-8.8,-9.0,1.04,1.04,0.24,0.0,0.0,0.9937806599043875,2.022696220394946,0.002675279802378583,0.28,0,0,0.0
8.407350376000068,536,4697.19,-99.7,-2.3,-85.9,0.04,-2.08,0.28,-0.04,-0.98,-0.16,-204.9,-9.4,-12.0,1.04,1.04,0.28,-0.07,0.0,0.9937806599043875,2.099142682144308,0.002621774206331029,0.28,0,0,0.0
8.418763301000581,537,4697.2,-99.7,-2.4,-86.1,0.05,-2.17,0.26,-0.04,-0.96,-0.17,-205.0,-10.3,-2.0,1.05,1.05,0.27,-0.01,0.0,0.9757561170702441,2.1860924042684013,0.0202333906996649,0.28,0,0,0.0
8.426910786000008,538,4697.21,-99.6,-2.5,-86.3,0.0,-2.24,0.29,-0.03,-0.96,-0.16,-205.1,-11.4,-22.0,1.05,1.05,0.37,0.19,0.0,0.9737042672187485,2.2586943130932973,0.021839535740137306,0.28,0,0,0.0
8.438810282000304,539,4697.22,-99.6,-2.5,-86.6,-0.09,-2.33,0.33,-0.03,-0.97,-0.16,-205.3,-14.4,-13.0,1.05,1.05,0.38,0.29,0.0,0.9835649444749441,2.3549734605723267,0.011739281314262828,0.28,0,0,0.0
8.446980919999987,540,4697.23,-99.6,-2.6,-86.8,-0.15,-2.46,0.35,-0.03,-0.98,-0.14,-205.4,-13.9,9.0,1.06,1.06,0.32,0.03,0.0,0.9904039579888602,2.4892970895415436,0.0048022624443399,0.28,0,0,0.0
8.45864408000034,541,4697.24,-99.6,-2.7,-87.0,-0.13,-2.57,0.35,-0.03,-0.99,-0.14,-205.5,-10.6,14.0,1.06,1.06,0.28,0.04,0.0,1.000299955013495,2.5969790141624167,0.004991859888688999,0.28,0,0,0.0
8.466871083000115,542,4697.25,-99.6,-2.7,-87.3,0.0,-2.67,0.33,-0.03,-0.98,-0.15,-205.6,-11.9,-8.0,1.06,1.06,0.35,0.12,0.0,0.9918669265581951,2.690315966573443,0.0033723451952787364,0.28,0,0,0.0
8.478607912999905,543,4697.26,-99.6,-2.8,-87.6,0.09,-2.74,0.39,-0.03,-0.97,-0.15,-205.8,-14.1,-14.0,1.07,1.07,0.39,-0.04,0.0,0.9819877799646999,2.7690792693601245,0.012986461952998463,0.28,0,0,0.0
8.486934760000622,544,4697.27,-99.6,-2.9,-87.8,0.08,-2.77,0.44,-0.03,-0.96,-0.15,-205.9,-11.3,31.0,1.07,1.07,0.22,0.03,0.0,0.972111104761179,2.8058688493940696,0.022405874413388926,0.28,0,0,0.0
8.498748058000274,545,4697.28,-99.5,-3.0,-88.1,0.08,-2.8,0.49,-0.02,-0.95,-0.15,-206.0,-7.8,15.0,1.07,1.07,0.22,-0.02,0.0,0.961977130705299,2.8436771968702774,0.031889051499883525,0.28,0,0,0.0
8.507241577000059,546,4697.29,-99.5,-3.1,-88.4,0.09,-2.83,0.52,-0.02,-0.95,-0.15,-206.1,-9.0,3.0,1.08,1.08,0.23,-0.11,0.0,0.961977130705299,2.8787844657077057,0.03125127046988585,0.28,0,0,0.0
8.518740618000265,547,4697.3,-99.5,-3.1,-88.6,0.09,-2.84,0.52,-0.01,-0.96,-0.16,-206.2,-8.3,-1.0,1.08,1.08,0.24,0.05,0.0,0.9732933781753578,2.888615585362649,0.01953632253983051,0.28,0,0,0.0
8.527353389999917,548,4697.31,-99.5,-3.2,-88.9,0.12,-2.82,0.5,-0.01,-0.96,-0.16,-206.2,-9.3,-3.0,1.08,1.08,0.25,0.01,0.0,0.9732933781753578,2.866496118957777,0.01914559608903388,0.28,0,0,0.0
8.538922846000787,549,4697.32,-99.4,-3.3,-89.2,0.11,-2.76,0.52,0.0,-0.97,-0.16,-206.3,-8.0,13.0,1.08,1.08,0.19,0.02,0.0,0.9831073186585481,2.8107116536564187,0.009145022493726729,0.28,0,0,0.0
8.547622190000766,550,4697.33,-99.4,-3.3,-89.4,0.13,-2.67,0.51,0.01,-0.99,-0.15,-206.4,-8.9,-20.0,1.08,1.08,0.31,0.11,0.0,1.0013490899781154,2.721378327245221,0.0089148138493238,0.28,0,0,0.0
8.55908605500008,551,4697.34,-99.4,-3.4,-89.7,0.15,-2.6,0.43,0.02,-1.01,-0.16,-206.5,-13.5,-32.0,1.09,1.09,0.41,-0.02,0.0,1.0227903010881556,2.6395833004472506,0.02974890446017664,0.28,0,0,0.0
8.567728433999946,552,4697.35,-99.3,-3.4,-89.9,0.17,-2.48,0.37,0.02,-1.0,-0.15,-206.7,-16.7,-29.0,1.09,1.09,0.48,-0.03,0.0,1.0113851887386922,2.51320512493509,0.017976916268498955,0.28,0,0,0.0
8.578857154000616,553,4697.36,-99.3,-3.5,-90.2,0.27,-2.39,0.35,0.01,-0.99,-0.14,-206.9,-20.0,-45.0,1.1,1.1,0.62,0.0,0.0,0.9998999949994999,2.4305349205473266,0.006361888078720512,0.28,0,0,0.0
8.58757841500028,554,4697.37,-99.2,-3.5,-90.4,0.37,-2.31,0.35,0.0,-0.97,-0.14,-207.1,-24.5,-35.0,1.11,1.11,0.69,-0.04,0.0,0.9800510190801293,2.365480923617859,0.013217346083837067,0.28,0,0,0.0
8.59918673500033,555,4697.38,-99.2,-3.5,-90.6,0.37,-2.3,0.35,0.0,-0.96,-0.13,-207.4,-28.7,-44.0,1.11,1.11,0.83,0.09,0.0,0.9687620966986683,2.3557164515280693,0.024016143095992093,0.28,0,0,0.0
8.60754451899993,556,4697.39,-99.1,-3.6,-90.8,0.29,-2.33,0.32,-0.01,-0.96,-0.12,-207.7,-31.7,-29.0,1.12,1.12,0.9,0.24,0.0,0.9675226095549395,2.369683523173506,0.024750517634926417,0.28,0,0,0.0
8.619031834999987,557,4697.4,-99.1,-3.6,-91.1,0.22,-2.42,0.32,-0.03,-0.94,-0.11,-208.0,-33.8,-23.0,1.13,1.13,0.93,0.04,0.0,0.9468896451012652,2.450958995985041,0.044475812446828744,0.28,0,0,0.0
8.627595006000774,558,4697.41,-99.0,-3.7,-91.3,0.12,-2.54,0.33,-0.03,-0.94,-0.11,-208.4,-37.3,-27.0,1.14,1.14,1.02,-0.02,0.0,0.9468896451012652,2.564156781478075,0.043586296197892116,0.28,0,0,0.0
8.63899534400025,559,4697.42,-98.9,-3.7,-91.6,0.17,-2.69,0.35,-0.04,-0.94,-0.12,-208.8,-37.6,-14.0,1.15,1.15,1.05,0.09,0.0,0.94847245611035,2.7179955849853767,0.04116341548503111,0.28,0,0,0.0
8.647411972000555,560,4697.43,-98.9,-3.8,-91.8,0.23,-2.77,0.42,-0.04,-0.94,-0.13,-209.2,-39.0,-18.0,1.16,1.16,1.09,-0.27,0.0,0.9497894503520241,2.811085199704911,0.039049492818489906,0.28,0,0,0.0
8.65904535000027,561,4697.44,-98.9,-3.9,-92.1,0.13,-2.84,0.49,-0.04,-0.93,-0.14,-209.6,-40.1,-12.0,1.17,1.17,1.11,0.02,0.0,0.9413288479590967,2.8848916790756634,0.046559893307189015,0.28,0,0,0.0
8.667668594000133,562,4697.45,-98.8,-4.0,-92.4,-0.11,-2.91,0.56,-0.03,-0.97,-0.14,-210.0,-41.4,-8.0,1.19,1.19,1.12,0.06,0.0,0.9805100713404222,2.965434200922354,0.007231096527346215,0.28,0,0,0.0
8.678981207000106,563,4697.46,-98.8,-4.0,-92.7,-0.19,-3.02,0.55,-0.02,-0.99,-0.13,-210.4,-40.6,-1.0,1.2,1.2,1.11,0.08,0.0,0.9986991538997116,3.075548731527433,0.010738826311304295,0.28,0,0,0.0
8.687718025000322,564,4697.47,-98.8,-4.1,-93.0,-0.24,-3.13,0.48,-0.02,-1.02,-0.12,-210.8,-39.4,17.0,1.21,1.21,1.02,-0.01,0.0,1.0272292830717005,3.1756731569857752,0.038483576373627315,0.28,0,0,0.0
8.69904631100053,565,4697.48,-98.8,-4.2,-93.3,-0.27,-3.18,0.42,-0.02,-1.03,-0.14,-211.1,-34.3,46.0,1.22,1.22,0.85,-0.05,0.0,1.0396634070698074,3.2189594592041697,0.0498993463642996,0.28,0,0,0.0
8.707666742000583,566,4697.49,-98.8,-4.2,-93.6,-0.3,-3.15,0.37,-0.03,-1.05,-0.15,-211.4,-28.0,55.0,1.22,1.22,0.68,0.01,0.0,1.0610843510296435,3.185812298300074,0.069893884517653,0.28,0,0,0.0
8.718956774000617,567,4697.5,-98.8,-4.3,-93.9,-0.22,-3.1,0.29,-0.03,-1.07,-0.14,-211.7,-20.7,59.0,1.23,1.23,0.52,-0.01,0.0,1.0795369377654476,3.1212978070027217,0.0865795418283879,0.28,0,0,0.0
8.727494162000767,568,4697.51,-98.8,-4.3,-94.2,-0.13,-3.07,0.18,-0.03,-1.08,-0.15,-211.9,-20.6,-3.0,1.23,1.23,0.63,-0.04,0.0,1.0907795377618705,3.078018843347129,0.09586569898831465,0.28,0,0,0.0
8.738923539000098,569,4697.52,-98.8,-4.4,-94.5,0.0,-2.96,0.08,-0.04,-1.07,-0.15,-212.1,-25.0,-19.0,1.24,1.24,0.7,0.0,0.0,1.0812030336620408,2.9610808837314795,0.0845634109907153,0.28,0,0,0.0
8.747689897000782,570,4697.53,-98.7,-4.4,-94.8,0.17,-2.85,0.04,-0.04,-1.07,-0.13,-212.4,-24.3,10.0,1.25,1.25,0.61,-0.04,0.0,1.0786102168995062,2.855345863463829,0.08033118234361702,0.28,0,0,0.0
8.759047733000443,571,4697.54,-98.7,-4.4,-95.1,0.16,-2.72,-0.06,-0.03,-1.1,-0.11,-212.6,-19.5,28.0,1.25,1.25,0.5,-0.02,0.0,1.1058933040759402,2.7253623612283193,0.10546198412965002,0.28,0,0,0.0
8.767742179000379,572,4697.55,-98.6,-4.4,-95.3,0.19,-2.62,-0.27,-0.03,-1.11,-0.11,-212.8,-18.1,15.0,1.26,1.26,0.48,0.13,0.0,1.11584049039278,2.64071959889724,0.11310098703756011,0.28,0,0,0.0
8.778853707000053,573,4697.56,-98.5,-4.4,-95.6,0.33,-2.57,-0.39,-0.04,-1.08,-0.1,-212.9,-17.4,6.0,1.26,1.26,0.48,0.03,0.0,1.0853570840972109,2.620286243905425,0.08096522912715098,0.28,0,0,0.0
8.787752301000182,574,4697.57,-98.4,-4.4,-95.9,0.51,-2.57,-0.4,-0.04,-1.07,-0.11,-213.1,-19.7,-8.0,1.27,1.27,0.54,-0.06,0.0,1.0763828315241748,2.650471656139714,0.0705511570230326,0.28,0,0,0.0
8.798974074000398,575,4697.58,-98.3,-4.3,-96.1,0.93,-2.53,-0.4,-0.03,-1.03,-0.12,-213.3,-19.7,-7.0,1.27,1.27,0.56,0.25,0.0,1.0374005976477938,2.7250321099025605,0.030937544683718565,0.28,0,0,0.0
8.807601830000749,576,4697.59,-98.2,-4.3,-96.4,1.02,-2.47,-0.42,0.0,-1.02,-0.12,-213.5,-23.7,-32.0,1.28,1.28,0.68,0.0,0.0,1.0270345661174214,2.7051247660690256,0.020160082890279263,0.28,0,0,0.0
8.819694005000201,577,4697.6,-98.0,-4.3,-96.6,0.95,-2.45,-0.5,0.0,-1.02,-0.1,-213.8,-25.0,-6.0,1.29,1.29,0.66,-0.05,0.0,1.0248902380255165,2.6748831750190516,0.017655439702406905,0.28,0,0,0.0
8.827677514000243,578,4697.61,-97.9,-4.2,-96.9,0.93,-2.41,-0.58,0.0,-1.02,-0.11,-214.0,-24.2,3.0,1.29,1.29,0.64,-0.11,0.0,1.0259142264341596,2.6475271481138773,0.01830583954882914,0.28,0,0,0.0
8.838986968999961,579,4697.62,-97.8,-4.1,-97.1,0.99,-2.3,-0.73,0.0,-1.02,-0.12,-214.3,-22.9,5.0,1.3,1.3,0.62,0.11,0.0,1.0270345661174214,2.608256122392891,0.01903765564744897,0.28,0,0,0.0
8.847739565000666,580,4697.63,-97.7,-4.0,-97.4,1.09,-2.14,-0.83,0.0,-0.98,-0.13,-214.5,-24.8,-12.0,1.31,1.31,0.69,-0.2,0.0,0.9885848471426213,2.5409840613431642,0.019023822060804108,0.28,0,0,0.0
8.858977249000418,581,4697.64,-97.5,-3.9,-97.6,1.01,-1.95,-0.86,0.01,-0.96,-0.14,-214.7,-21.8,17.0,1.31,1.31,0.57,-0.04,0.0,0.9702061636580134,2.358431682283801,0.03665445543450374,0.28,0,0,0.0
8.867607329000748,582,4697.65,-97.4,-3.8,-97.8,0.76,-1.79,-0.87,0.01,-0.94,-0.13,-215.0,-22.9,-11.0,1.32,1.32,0.65,0.03,0.0,0.9489994731294639,2.130399023657305,0.056703923043792126,0.28,0,0,0.0
8.879033908000565,583,4697.66,-97.4,-3.7,-97.9,0.55,-1.63,-0.86,0.02,-0.95,-0.13,-215.2,-22.6,6.0,1.32,1.32,0.6,0.01,0.0,0.9590620417887468,1.9232784509789527,0.04570852729681896,0.28,0,0,0.0
8.887537330000669,584,4697.67,-97.3,-3.6,-98.1,0.5,-1.46,-0.81,0.02,-0.95,-0.13,-215.4,-20.7,19.0,1.33,1.33,0.52,-0.16,0.0,0.9590620417887468,1.7428998823799375,0.044794356750882613,0.28,0,0,0.0
8.89894559000004,585,4697.68,-97.3,-3.5,-98.3,0.51,-1.25,-0.78,0.03,-0.96,-0.14,-215.6,-14.4,57.0,1.33,1.33,0.29,-0.22,0.0,0.9706183596038146,1.559166443969341,0.03257327815709854,0.28,0,0,0.0
8.90767221600072,586,4697.69,-97.2,-3.3,-98.4,0.52,-0.99,-0.8,0.03,-0.97,-0.14,-215.7,-10.6,31.0,1.34,1.34,0.26,-0.07,0.0,0.9805100713404222,1.3749545447032059,0.022227935092081097,0.28,0,0,0.0
8.919045942000594,587,4697.7,-97.2,-3.2,-98.5,0.47,-0.75,-0.86,0.02,-0.98,-0.13,-215.8,-6.8,43.0,1.34,1.34,0.12,-0.12,0.0,0.9887871358386495,1.2340988615179904,0.013671853181976834,0.28,0,0,0.0
8.9275107630001,588,4697.71,-97.1,-3.1,-98.5,0.45,-0.58,-0.92,0.02,-0.97,-0.13,-215.8,-3.0,33.0,1.34,1.34,0.05,0.0,0.0,0.9788769074812216,1.1769876804792818,0.02311043990861661,0.28,0,0,0.0
8.938992076000432,589,4697.72,-97.1,-3.0,-98.6,0.51,-0.48,-0.92,0.01,-0.97,-0.13,-215.8,-0.5,20.0,1.34,1.34,0.01,-0.12,0.0,0.9787236586493656,1.1562439189029277,0.02279841496566315,0.28,0,0,0.0
8.947804827000255,590,4697.73,-97.0,-2.8,-98.7,0.52,-0.39,-0.9,0.0,-0.97,-0.11,-215.8,0.0,9.0,1.34,1.34,0.0,-0.06,0.0,0.9762171889492625,1.110180165558726,0.02479878697245097,0.28,0,0,0.0
8.95899787899998,591,4697.74,-97.0,-2.7,-98.7,0.47,-0.34,-0.82,-0.01,-0.98,-0.11,-215.8,0.3,0.0,1.34,1.34,0.0,0.29,0.0,0.9862048468751307,1.0044401425669924,0.014514906465651012,0.28,0,0,0.0
8.96751780500017,592,4697.75,-96.9,-2.6,-98.8,0.43,-0.37,-0.84,-0.02,-0.99,-0.1,-215.8,-0.1,-2.0,1.34,1.34,0.01,-0.09,0.0,0.995238664843765,1.0136074190730846,0.005371466727076335,0.28,0,0,0.0
8.979039579000528,593,4697.76,-96.9,-2.6,-98.8,0.38,-0.43,-0.81,-0.04,-0.98,-0.09,-215.8,0.2,5.0,1.34,1.34,0.0,0.29,0.0,0.9849365461794988,0.9926731586982697,0.015360113683515753,0.28,0,0,0.0
8.987613450000026,594,4697.77,-96.8,-2.5,-98.9,0.29,-0.52,-0.75,-0.05,-0.97,-0.1,-215.8,-0.1,-3.0,1.34,1.34,0.0,-0.06,0.0,0.9764220398987314,0.957601169589929,0.023397127564997455,0.28,0,0,0.0
8.999173521000557,595,4697.78,-96.8,-2.4,-98.9,0.27,-0.6,-0.69,-0.05,-0.97,-0.1,-215.8,0.2,-1.0,1.34,1.34,0.0,-0.27,0.0,0.9764220398987314,0.9534149149242421,0.02292918501369756,0.28,0,0,0.0
9.007662841000638,596,4697.79,-96.7,-2.4,-99.0,0.39,-0.65,-0.61,-0.05,-0.97,-0.11,-215.8,0.0,4.0,1.34,1.34,-0.01,0.23,0.0,0.9774968030638258,0.9729850975220535,0.0214173334116311,0.28,0,0,0.0
9.019261407000158,597,4697.8,-96.7,-2.3,-99.1,0.44,-0.7,-0.57,-0.05,-0.98,-0.1,-215.8,0.3,0.0,1.34,1.34,0.0,0.05,0.0,0.9863569333664157,1.0042410069301093,0.01230605904686033,0.28,0,0,0.0
9.027472089000184,598,4697.81,-96.6,-2.3,-99.2,0.45,-0.72,-0.52,-0.04,-0.99,-0.1,-215.8,0.0,-4.0,1.34,1.34,0.01,0.02,0.0,0.9958413528268446,0.9956404973684025,0.0027652067947028236,0.28,0,0,0.0
9.039321881999967,599,4697.82,-96.6,-2.2,-99.2,0.48,-0.7,-0.54,-0.04,-0.99,-0.11,-215.8,0.0,4.0,1.34,1.34,-0.01,0.11,0.0,0.9968951800465282,1.0059821071967434,0.0016771519835188098,0.28,0,0,0.0
9.047622254000089,600,4697.83,-96.5,-2.2,-99.3,0.42,-0.66,-0.54,-0.04,-1.0,-0.11,-215.8,0.0,-4.0,1.34,1.34,0.01,-0.03,0.0,1.0068266980965492,0.9505787710652915,0.00808927874517218,0.28,0,0,0.0
9.059357944000112,601,4697.84,-96.5,-2.2,-99.4,0.34,-0.66,-0.6,-0.04,-1.03,-0.09,-215.8,0.0,4.0,1.34,1.34,-0.01,-0.06,0.0,1.0346980235798269,0.9545679651025379,0.03524139214388078,0.28,0,0,0.0
9.067609428000651,602,4697.85,-96.4,-2.1,-99.5,0.3,-0.67,-0.68,-0.04,-1.04,-0.07,-215.8,0.0,-5.0,1.34,1.34,0.01,-0.03,0.0,1.0431203190428227,1.000649788887201,0.04279041385473903,0.28,0,0,0.0
9.079082185000516,603,4697.86,-96.4,-2.0,-99.5,0.39,-0.73,-0.75,-0.03,-1.04,-0.06,-215.8,-0.2,1.0,1.34,1.34,0.0,-0.03,0.0,1.0421612159354234,1.116915395184434,0.040994684532392967,0.28,0,0,0.0
9.08760499500022,604,4697.87,-96.3,-2.0,-99.6,0.61,-0.76,-0.76,-0.02,-1.02,-0.06,-215.8,0.4,-1.0,1.34,1.34,0.0,-0.16,0.0,1.0219589032832974,1.2358397954427587,0.020376524442661692,0.28,0,0,0.0
9.099146776999987,605,4697.88,-96.2,-1.9,-99.7,0.83,-0.78,-0.71,-0.02,-0.99,-0.07,-215.8,-0.4,0.0,1.34,1.34,0.0,-0.03,0.0,0.9926731586982696,1.3421624342828256,0.008731035739518944,0.28,0,0,0.0
9.1076281630003,606,4697.89,-96.1,-1.8,-99.8,0.81,-0.78,-0.67,-0.02,-0.98,-0.07,-215.8,0.0,-3.0,1.34,1.34,0.01,0.14,0.0,0.982700361249552,1.3089690599857584,0.018329756524471774,0.28,0,0,0.0
9.11940177300039,607,4697.9,-96.0,-1.8,-99.9,0.63,-0.78,-0.64,-0.02,-0.98,-0.06,-215.8,-0.2,3.0,1.34,1.34,0.0,-0.19,0.0,0.9820386957752734,1.1894956914591999,0.018611593558775397,0.28,0,0,0.0
9.127562643000601,608,4697.91,-95.9,-1.7,-100.0,0.52,-0.84,-0.64,-0.02,-0.97,-0.05,-215.8,-0.5,-11.0,1.34,1.34,0.06,0.06,0.0,0.9714936952960631,1.1771151175649728,0.028573462157226004,0.28,0,0,0.0
9.139088075000473,609,4697.92,-95.8,-1.7,-100.1,0.55,-0.89,-0.61,-0.01,-0.97,-0.06,-215.8,-2.6,-15.0,1.34,1.34,0.09,-0.19,0.0,0.9719053451854249,1.2110739036078682,0.027598576022506927,0.28,0,0,0.0
9.147632439000517,610,4697.93,-95.7,-1.6,-100.2,0.73,-0.87,-0.55,-0.01,-0.96,-0.08,-215.9,-6.5,-39.0,1.34,1.34,0.25,-0.12,0.0,0.9633794683301071,1.2618637010390623,0.03540196382026828,0.28,0,0,0.0
9.159086375000697,611,4697.94,-95.7,-1.5,-100.2,0.91,-0.79,-0.48,-0.01,-0.96,-0.09,-216.0,-10.4,-29.0,1.35,1.35,0.3,-0.02,0.0,0.9642613753542137,1.29715072370176,0.033829655660238434,0.28,0,0,0.0
9.167159449000792,612,4697.95,-95.6,-1.5,-100.3,0.93,-0.67,-0.47,0.0,-0.97,-0.09,-216.1,-14.9,-48.0,1.35,1.35,0.47,0.0,0.0,0.9741663102366043,1.2388300932734884,0.02344622636229099,0.28,0,0,0.0
9.178835542000343,613,4697.96,-95.5,-1.4,-100.4,0.8,-0.58,-0.54,0.0,-0.98,-0.09,-216.3,-17.4,-22.0,1.35,1.35,0.48,-0.03,0.0,0.9841239759298621,1.1260550608207398,0.013218789455652469,0.28,0,0,0.0
9.18718459000047,614,4697.97,-95.4,-1.4,-100.4,0.73,-0.49,-0.64,0.0,-0.98,-0.09,-216.5,-19.1,-30.0,1.36,1.36,0.58,0.03,0.0,0.9841239759298621,1.0874741376235115,0.012954413666539377,0.28,0,0,0.0
9.199168185000417,615,4697.98,-95.3,-1.3,-100.5,0.71,-0.4,-0.65,0.0,-0.98,-0.09,-216.7,-22.9,-26.0,1.37,1.37,0.64,-0.14,0.0,0.9841239759298621,1.042401074443038,0.012695325393208612,0.28,0,0,0.0
9.207693979000396,616,4697.99,-95.3,-1.2,-100.5,0.75,-0.3,-0.6,0.0,-0.98,-0.1,-216.9,-24.9,-22.0,1.37,1.37,0.7,-0.01,0.0,0.9850888284819801,1.0062305898749053,0.011495863384268779,0.28,0,0,0.0
9.219065523000609,617,4698.0,-95.2,-1.1,-100.6,0.82,-0.18,-0.49,0.01,-0.97,-0.12,-217.1,-26.4,-29.0,1.38,1.38,0.77,0.02,0.0,0.977445650662992,0.9720596689504198,0.018756260379191647,0.28,0,0,0.0
9.227610007000294,618,4698.01,-95.1,-1.1,-100.6,0.87,-0.02,-0.4,0.02,-0.97,-0.14,-217.5,-30.5,-43.0,1.39,1.39,0.9,-0.07,0.0,0.9802550688468792,0.9577577981932593,0.015627905351398463,0.28,0,0,0.0
9.238983157000803,619,4698.02,-95.1,-1.0,-100.6,0.65,0.16,-0.3,0.03,-0.97,-0.15,-217.8,-33.7,-24.0,1.4,1.4,0.93,0.06,0.0,0.9819877799646999,0.7335529974037323,0.013617290348906241,0.28,0,0,0.0
9.247470680000333,620,4698.03,-95.1,-1.0,-100.5,0.2,0.33,-0.29,0.02,-1.0,-0.14,-218.2,-37.4,-32.0,1.41,1.41,1.04,-0.03,0.0,1.0099504938362078,0.4827007354458868,0.014058515052149723,0.28,0,0,0.0
9.25911486700079,621,4698.04,-95.1,-0.9,-100.5,0.14,0.45,-0.27,0.0,-1.0,-0.14,-218.6,-39.6,-20.0,1.42,1.42,1.08,0.22,0.0,1.009752444909147,0.5431390245600108,0.013583256802587207,0.28,0,0,0.0
9.267584779000572,622,4698.05,-95.1,-0.9,-100.5,0.43,0.58,-0.18,-0.01,-0.99,-0.13,-219.0,-40.2,-4.0,1.43,1.43,1.06,0.06,0.0,0.9985489472229191,0.7441102068914255,0.0023321639340320166,0.28,0,0,0.0
9.279124338000656,623,4698.06,-95.1,-0.9,-100.4,0.69,0.77,-0.01,-0.01,-0.98,-0.13,-219.4,-36.0,40.0,1.44,1.44,0.89,0.01,0.0,0.9886354231970448,1.0339729203417274,0.00742973289000548,0.28,0,0,0.0
9.287664887000574,624,4698.07,-95.0,-0.8,-100.3,0.66,0.97,0.08,0.0,-0.99,-0.12,-219.7,-31.6,28.0,1.45,1.45,0.83,0.04,0.0,0.9972462083156797,1.175967686630887,0.0011574311840568674,0.28,0,0,0.0
