host_time_s,seq,device_time_s,roll,pitch,yaw,gyro_x,gyro_y,gyro_z,accel_x,accel_y,accel_z,belt_length,belt_velocity,belt_acceleration,motor_pos,motor_vel,motor_iq_meas,motor_iq_set,acc_mag,gyro_mag,acc_residual,threshold,heel_strike,hs_count,torque_cmd_nm
2.066746204998708,1,147.87,100.2,3.4,-21.5,1.57,-2.42,-0.2,-0.4,1.15,0.14,15.1,-28.6,-180.0,-4.92,1.22,0.31,0.0,1.2256018929489298,2.8915912574221134,0.0,0.35,0,0,0.0
2.075182661999861,2,147.88,100.4,3.4,-20.8,-0.19,-4.76,0.6,-0.29,1.22,0.17,14.5,-52.4,-204.0,-4.91,1.69,0.22,0.0,1.2654643416548725,4.8014268712540025,0.039065199731823874,0.35,0,0,0.0
2.083066514998791,3,147.89,100.4,3.3,-20.2,-1.39,-5.85,0.71,-0.09,1.15,0.19,13.8,-76.8,-243.0,-4.88,2.41,0.08,0.0,1.169059451011795,6.054642846609534,0.05619289709302855,0.35,0,0,0.0
2.0909338549990935,4,147.9,100.2,3.3,-19.6,-1.97,-6.65,0.72,0.11,1.05,0.12,12.9,-102.5,-243.0,-4.86,3.07,0.1,0.0,1.0625441167311596,6.972933385598918,0.15945406674619078,0.35,0,0,0.0
2.102403480999783,5,147.91,100.1,3.2,-18.9,-2.31,-6.67,0.58,0.25,0.96,0.01,11.7,-123.3,-200.0,-4.82,3.54,0.05,0.0,0.9920685460188726,7.082471320097244,0.2253310447093081,0.35,0,0,0.0
2.111073422998743,6,147.92,99.9,3.2,-18.3,-2.45,-6.08,0.49,0.3,0.88,-0.01,10.4,-136.7,-143.0,-4.78,3.83,0.0,0.0,0.9297849213662265,6.573355307603569,0.2818623759747151,0.35,0,0,0.0
2.123131187998297,7,147.93,99.7,3.1,-17.7,-2.03,-5.53,0.37,0.31,0.82,-0.02,8.9,-142.3,-44.0,-4.75,3.79,-0.13,0.0,0.8768694315575152,5.902431702273225,0.32808230846775777,0.35,0,0,0.0
2.1311031009990984,8,147.94,99.5,3.1,-17.2,-1.15,-4.96,0.25,0.31,0.81,-0.07,7.6,-127.5,114.0,-4.71,3.21,-0.12,0.0,0.8701149349367588,5.0977053661426925,0.32814006898674386,0.35,0,0,0.0
2.142471877999924,9,147.95,99.5,3.0,-16.7,-0.89,-4.38,0.16,0.28,0.84,-0.13,6.4,-114.6,84.0,-4.68,3.07,0.07,0.0,0.8949301648732151,4.472370735974378,0.29725834226928183,0.35,0,0,0.0
2.1509324079997896,10,147.96,99.4,2.9,-16.3,-0.72,-3.71,0.1,0.25,0.87,-0.14,5.3,-114.9,-4.0,-4.65,3.23,-0.07,0.0,0.9159694318043589,3.780542289143186,0.27069469383137534,0.35,0,0,0.0
2.1624229939989164,11,147.97,99.3,2.9,-16.0,-0.71,-3.37,0.18,0.21,0.91,-0.1,4.1,-128.8,-120.0,-4.61,3.75,-0.11,0.0,0.9392550239418472,3.4486809072455515,0.24246091966000927,0.35,0,0,0.0
2.171163916998921,12,147.98,99.3,2.9,-15.7,-0.5,-3.15,0.2,0.18,0.92,-0.11,2.6,-150.6,-189.0,-4.57,4.37,-0.05,0.0,0.9438749917229505,3.1957002362549587,0.23308413284132778,0.35,0,0,0.0
2.182437729999947,13,147.99,99.3,2.9,-15.4,-0.42,-2.84,0.25,0.15,0.93,-0.14,0.9,-178.7,-274.0,-4.52,5.26,0.14,0.0,0.9523654760647301,2.8817529387509957,0.22010177552955723,0.35,0,0,0.0
2.196487167999294,14,148.0,99.3,2.9,-15.1,-0.17,-2.42,0.28,0.14,0.94,-0.16,-1.3,-215.5,-347.0,-4.44,6.5,0.01,0.0,0.9637427042525406,2.4420687950997615,0.20455005639491186,0.35,0,0,0.0
2.206492059998709,15,148.01,99.3,3.0,-14.9,0.26,-2.01,0.35,0.13,0.96,-0.15,-4.4,-256.0,-332.0,-4.37,7.26,-0.04,0.0,0.9803060746521975,2.056745001209435,0.1842269522753498,0.35,0,0,0.0
2.2148194379988126,16,148.02,99.3,3.0,-14.7,0.68,-1.64,0.5,0.12,1.02,-0.15,-7.1,-277.1,-233.0,-4.29,7.73,0.09,0.0,1.0379306335203715,1.8444511378727275,0.1240703455390324,0.35,0,0,0.0
2.2268206699991424,17,148.03,99.4,3.1,-14.5,0.83,-1.38,0.64,0.11,1.03,-0.14,-9.9,-291.9,-162.0,-4.21,8.06,0.06,0.0,1.0452750834110607,1.7328877632437711,0.11439137773537644,0.35,0,0,0.0
2.234898977998455,18,148.04,99.5,3.2,-14.4,0.77,-1.19,0.79,0.11,1.02,-0.15,-12.9,-302.2,-112.0,-4.13,8.3,-0.04,0.0,1.036822067666386,1.6226829634897877,0.1203875056104502,0.35,0,0,0.0
2.2462690899992594,19,148.05,99.6,3.3,-14.3,0.61,-1.09,0.93,0.11,0.99,-0.13,-16.0,-306.5,-43.0,-4.04,8.3,-0.1,0.0,1.0045396955820112,1.557273257973693,0.14961648014092854,0.35,0,0,0.0
2.2550998579990846,20,148.06,99.6,3.4,-14.2,0.55,-1.09,1.05,0.11,0.95,-0.13,-18.7,-303.2,14.0,-3.97,8.17,0.06,0.0,0.9651424765287248,1.6103105290595352,0.1852334252103306,0.35,0,0,0.0
2.2663899839990336,21,148.07,99.7,3.5,-14.0,0.71,-1.11,1.1,0.11,0.93,-0.13,-21.7,-300.0,15.0,-3.89,8.14,-0.21,0.0,0.9454628496138809,1.7164498244924027,0.20081479108267086,0.35,0,0,0.0
2.2747075309998763,22,148.08,99.7,3.6,-13.9,0.86,-1.14,1.16,0.1,0.94,-0.12,-25.0,-297.4,41.0,-3.8,7.98,-0.14,0.0,0.9528903399657276,1.8397825958520206,0.18951955471620763,0.35,0,0,0.0
2.28635126899826,23,148.09,99.8,3.7,-13.8,0.93,-1.2,1.23,0.1,0.95,-0.14,-27.9,-286.1,105.0,-3.72,7.59,-0.23,0.0,0.9654532614269838,1.9539191385520538,0.17341750058985228,0.35,0,0,0.0
2.294941057998585,24,148.1,99.9,3.9,-13.6,0.86,-1.25,1.27,0.09,0.96,-0.14,-30.7,-273.0,112.0,-3.65,7.28,0.0,0.0,0.9743202758846805,1.9786358937409378,0.16125947640951255,0.35,0,0,0.0
2.306265915998665,25,148.11,100.0,4.0,-13.5,0.64,-1.34,1.35,0.09,0.96,-0.15,-33.4,-261.1,128.0,-3.58,6.91,-0.14,0.0,0.9758073580374356,2.0069130524265373,0.15657694637162245,0.35,0,0,0.0
2.3147682859998895,26,148.12,100.0,4.1,-13.3,0.37,-1.36,1.38,0.1,0.94,-0.18,-35.9,-243.8,172.0,-3.51,6.37,-0.26,0.0,0.9622889378975527,1.9725364381932213,0.16669345918127532,0.35,0,0,0.0
2.3265395459984575,27,148.13,100.1,4.2,-13.2,0.2,-1.37,1.38,0.11,0.93,-0.18,-38.1,-222.4,202.0,-3.45,5.78,-0.01,0.0,0.9536246641105713,1.9548145692111054,0.1718505783088914,0.35,0,0,0.0
2.335020975999214,28,148.14,100.1,4.4,-13.0,0.07,-1.35,1.35,0.12,0.91,-0.19,-40.2,-200.8,213.0,-3.4,5.18,-0.16,0.0,0.9373366524360391,1.9104711460788935,0.18437581818375515,0.35,0,0,0.0
2.3463225989999046,29,148.15,100.2,4.5,-12.8,-0.03,-1.34,1.29,0.12,0.9,-0.19,-42.1,-178.5,220.0,-3.35,4.57,-0.09,0.0,0.9276313923105449,1.860268797781654,0.19019945674306438,0.35,0,0,0.0
2.3549990789997537,30,148.16,100.2,4.7,-12.7,-0.12,-1.32,1.22,0.13,0.88,-0.19,-43.7,-155.5,230.0,-3.31,3.93,-0.1,0.0,0.9096153033013462,1.8014438653480158,0.20405123483721777,0.35,0,0,0.0
2.382335915999647,32,148.18,100.2,4.9,-12.4,-0.24,-1.21,0.96,0.13,0.86,-0.2,-46.3,-110.7,227.0,-3.25,2.73,-0.02,0.0,0.892468486838611,1.563105882530035,0.2167740902739539,0.35,0,0,0.0
2.3908851829983178,33,148.19,100.2,5.0,-12.2,-0.39,-1.12,0.82,0.12,0.86,-0.21,-47.2,-88.7,215.0,-3.22,2.16,-0.32,0.0,0.8933644273195569,1.4418391033676399,0.21156058679714795,0.35,0,0,0.0
2.403006643999106,34,148.2,100.2,5.1,-12.1,-0.58,-1.04,0.65,0.12,0.86,-0.21,-48.0,-69.4,200.0,-3.2,1.64,-0.03,0.0,0.8933644273195569,1.3566502865514016,0.20732937506120508,0.35,0,0,0.0
2.415069668999422,36,148.22,100.1,5.2,-11.9,-0.79,-0.83,0.27,0.15,0.86,-0.24,-48.9,-32.7,181.0,-3.18,0.67,0.08,0.0,0.9053728513711905,1.1772425408555367,0.19141453198938008,0.35,0,0,0.0
2.4264887489989633,37,148.23,100.1,5.2,-11.8,-0.78,-0.64,0.04,0.16,0.88,-0.25,-49.1,-17.2,170.0,-3.18,0.21,-0.22,0.0,0.9287087810503355,1.009752444909147,0.16471703026403028,0.35,0,0,0.0
2.434983947998262,38,148.24,100.0,5.2,-11.8,-0.87,-0.44,-0.13,0.17,0.92,-0.25,-49.1,-1.2,135.0,-3.18,-0.09,0.0,0.0,0.9684007434941384,0.9835649444749441,0.12252456646382281,0.35,0,0,0.0
2.4463213379985973,39,148.25,99.9,5.1,-11.8,-1.05,-0.28,-0.3,0.16,0.94,-0.24,-49.1,5.2,61.0,-3.18,-0.13,-0.15,0.0,0.9832598842625483,1.1273420066687838,0.10551211718150466,0.35,0,0,0.0
2.454950319999625,40,148.26,99.8,5.1,-11.7,-1.28,-0.19,-0.47,0.15,0.93,-0.23,-49.1,0.1,-25.0,-3.18,0.07,0.0,0.0,0.9696906723280369,1.3767352686700518,0.11669970253369588,0.35,0,0,0.0
2.4662785439995787,41,148.27,99.7,5.0,-11.7,-1.49,-0.12,-0.69,0.14,0.91,-0.24,-49.1,-1.5,6.0,-3.18,-0.01,-0.15,0.0,0.9514725429564429,1.6463899902513985,0.13221947526718403,0.35,0,0,0.0
2.474949146999279,42,148.28,99.5,5.0,-11.7,-1.62,0.0,-0.9,0.13,0.89,-0.25,-49.1,0.8,4.0,-3.18,0.0,-0.16,0.0,0.9335416434203672,1.8532134253776602,0.14714736730719458,0.35,0,0,0.0
2.486767583999608,43,148.29,99.3,4.9,-11.8,-1.48,0.18,-1.07,0.12,0.87,-0.26,-49.1,-0.7,-9.0,-3.18,0.03,-0.01,0.0,0.9159148432032314,1.8351294232287814,0.1614786841738438,0.35,0,0,0.0
2.4947561149983812,44,148.3,99.2,4.8,-11.8,-1.19,0.37,-1.11,0.12,0.88,-0.25,-49.1,-1.1,-4.0,-3.18,0.03,-0.01,0.0,0.9226592003551474,1.6688618876348036,0.15163964048148915,0.35,0,0,0.0
2.5065421799990872,45,148.31,99.1,4.7,-11.9,-0.78,0.48,-1.04,0.11,0.88,-0.21,-49.1,-2.3,-13.0,-3.18,0.09,-0.07,0.0,0.9113725912051558,1.3857849761056007,0.15966772463885115,0.35,0,0,0.0
2.5148959459984326,46,148.32,99.1,4.6,-11.9,-0.34,0.47,-0.91,0.09,0.89,-0.19,-49.2,-5.4,-35.0,-3.18,0.22,-0.12,0.0,0.9144943958275523,1.079166344916297,0.15341500161612542,0.35,0,0,0.0
2.5262935039991135,47,148.33,99.1,4.5,-12.0,0.02,0.42,-0.77,0.08,0.91,-0.19,-49.3,-13.8,-71.0,-3.18,0.47,0.12,0.0,0.9330594836343501,0.8773254812211941,0.132152915533141,0.35,0,0,0.0
2.5348947609982133,48,148.34,99.2,4.5,-12.0,0.3,0.32,-0.61,0.08,0.93,-0.19,-49.5,-23.1,-83.0,-3.17,0.71,0.0,0.0,0.9525754563287887,0.7513321502504734,0.11038420398192827,0.35,0,0,0.0
2.546416100998613,49,148.35,99.2,4.4,-12.1,0.38,0.22,-0.41,0.07,0.95,-0.2,-49.8,-31.1,-86.0,-3.16,0.96,0.01,0.0,0.973344748791506,0.6007495318350236,0.08782261328882679,0.35,0,0,0.0
2.5549800369990407,50,148.36,99.3,4.4,-12.1,0.37,0.11,-0.22,0.06,0.96,-0.21,-50.1,-40.4,-93.0,-3.15,1.23,0.09,0.0,0.9845303448853164,0.44429719783046123,0.07510427685111609,0.35,0,0,0.0
2.5663797139986855,51,148.37,99.4,4.4,-12.1,0.42,0.01,-0.07,0.04,0.94,-0.23,-50.6,-51.9,-112.0,-3.13,1.55,0.03,0.0,0.9685556256612213,0.425910788780937,0.08925741615370697,0.35,0,0,0.0
2.574900859999616,52,148.38,99.5,4.4,-12.1,0.48,-0.08,-0.05,0.05,0.92,-0.26,-51.2,-61.2,-85.0,-3.12,1.73,0.07,0.0,0.9573400649716902,0.4891829923454003,0.09846351730637337,0.35,0,0,0.0
2.586244263999106,53,148.39,99.5,4.4,-12.1,0.47,-0.09,-0.08,0.06,0.9,-0.31,-51.9,-66.6,-69.0,-3.1,1.9,0.0,0.0,0.9537819457297355,0.4851803788283281,0.09998120381736142,0.35,0,0,0.0
2.594794387998263,54,148.4,99.6,4.3,-12.1,0.49,0.05,-0.14,0.08,0.87,-0.35,-52.6,-74.2,-78.0,-3.08,2.12,0.09,0.0,0.9411694852681954,0.5120546845796843,0.11034179099332342,0.35,0,0,0.0
2.6067413989985653,55,148.41,99.7,4.3,-12.1,0.76,0.23,-0.2,0.1,0.86,-0.38,-53.4,-82.7,-76.0,-3.06,2.32,0.11,0.0,0.945515732285825,0.8188406438373709,0.10387563309618009,0.35,0,0,0.0
2.6189209439999104,56,148.42,99.7,4.3,-12.1,1.11,0.34,-0.21,0.13,0.85,-0.41,-54.3,-88.6,-65.0,-3.03,2.48,0.07,0.0,0.9526279441628825,1.1797457353175727,0.09482815279474,0.35,0,0,0.0
2.6267948879994947,57,148.43,99.9,4.3,-12.2,1.39,0.54,-0.21,0.17,0.87,-0.44,-55.2,-94.6,-63.0,-3.0,2.65,-0.15,0.0,0.9896464014990405,1.505921644707984,0.05665350154941051,0.35,0,0,0.0
2.6349146949996793,58,148.44,100.0,4.3,-12.2,1.8,0.83,-0.16,0.21,0.94,-0.45,-56.2,-100.4,-51.0,-2.98,2.76,-0.22,0.0,1.0631086491981898,1.988592467047987,0.01647257122674395,0.35,0,0,0.0
2.6462520909990417,59,148.45,100.2,4.3,-12.3,2.1,1.19,0.04,0.21,1.02,-0.42,-57.2,-105.1,-53.0,-2.95,2.92,0.16,0.0,1.122898036332774,2.414062965210311,0.07473671919410174,0.35,0,0,0.0
2.6549224839982344,60,148.46,100.4,4.3,-12.5,2.35,1.39,0.33,0.2,1.09,-0.39,-58.3,-111.2,-59.0,-2.92,3.09,0.1,0.0,1.1748191350161097,2.7501818121716974,0.12412466151988855,0.35,0,0,0.0
2.666274123999756,61,148.47,100.7,4.4,-12.6,2.33,1.54,0.71,0.16,1.13,-0.35,-59.4,-115.5,-42.0,-2.89,3.18,-0.02,0.0,1.1937336386313322,2.8817702892493013,0.14017838183240894,0.35,0,0,0.0
2.6749549729993305,62,148.48,100.9,4.5,-12.7,2.06,1.59,0.93,0.12,1.09,-0.35,-60.6,-118.6,-29.0,-2.85,3.24,0.0,0.0,1.151086443322134,2.7634398853602735,0.0955805627927464,0.35,0,0,0.0
2.686233030999574,63,148.49,101.0,4.7,-12.9,1.7,1.64,0.91,0.1,1.03,-0.35,-61.8,-119.5,1.0,-2.82,3.18,0.2,0.0,1.0924284873619874,2.531343516791034,0.03618415469594782,0.35,0,0,0.0
2.6949977729982493,64,148.5,101.2,4.8,-13.0,1.44,1.73,0.73,0.1,1.02,-0.31,-63.0,-113.9,41.0,-2.79,3.02,0.1,0.0,1.0707474025184465,2.366305136705746,0.014213008455358667,0.35,0,0,0.0
2.7063866339995,65,148.51,101.4,4.9,-13.2,1.56,1.79,0.7,0.1,1.14,-0.22,-64.1,-106.9,75.0,-2.76,2.76,-0.01,0.0,1.1653325705565771,2.4754191564258368,0.10662221296361962,0.35,0,0,0.0
2.714894885999456,66,148.52,101.5,5.0,-13.4,1.75,1.67,1.11,0.05,1.35,-0.08,-65.1,-95.3,105.0,-2.74,2.44,-0.12,0.0,1.3532922818075923,2.661484548142258,0.28869028573034217,0.35,0,0,0.0
2.726346511999509,67,148.53,101.7,5.2,-13.5,1.71,1.17,1.77,-0.01,1.5,-0.05,-65.9,-80.5,141.0,-2.72,1.98,0.14,0.0,1.5008664164408505,2.725050458248434,0.4275391319563284,0.35,1,1,1.5
2.734985298999163,68,148.54,101.8,5.4,-13.5,1.16,0.67,2.44,-0.07,1.56,-0.06,-66.6,-61.7,189.0,-2.7,1.38,-0.1,0.0,1.5627219842313604,2.7835409104232687,0.4796068057519016,0.35,0,1,1.5
2.7462489639983687,69,148.55,101.9,5.7,-13.5,-0.31,0.09,2.69,-0.09,1.41,-0.07,-67.0,-30.7,390.0,-2.69,-0.06,1.46,1.77,1.4146024176424978,2.709298802273385,0.3248574943797782,0.35,0,1,1.5
2.7549699469982443,70,148.56,101.8,5.9,-13.4,-1.62,-0.09,2.22,0.01,1.14,-0.15,-66.7,61.3,816.0,-2.71,-2.94,1.41,1.77,1.1498695578194944,2.7497090755205362,0.058922141865639155,0.35,0,1,1.5
2.766314936998242,71,148.57,101.5,6.1,-13.4,-1.71,0.25,1.47,0.13,1.01,-0.14,-65.4,160.3,905.0,-2.76,-5.5,1.12,1.77,1.0279105019407089,2.2688102609076854,0.06177617573288341,0.35,0,1,1.5
2.7749489469988475,72,148.58,101.4,6.2,-13.4,-1.07,0.57,0.72,0.25,0.92,-0.11,-63.4,244.2,921.0,-2.83,-8.04,1.25,1.77,0.9596874491208063,1.4100354605470033,0.1273992439817302,0.35,0,1,1.5
2.7863569959990855,73,148.59,101.3,6.2,-13.5,-0.29,1.09,0.06,0.39,0.88,-0.14,-60.0,343.4,880.0,-2.93,-10.33,1.52,1.77,0.9726767191621274,1.129513169467271,0.11212177446160088,0.35,0,1,1.5
2.7948764429984294,74,148.6,101.3,6.3,-13.7,0.17,1.86,-0.49,0.48,0.86,-0.15,-56.0,420.6,802.0,-3.05,-12.4,1.17,1.77,0.9962429422585637,1.930958311305555,0.08678444033786126,0.35,0,1,1.5
2.8062471989996993,75,148.61,101.3,6.2,-13.9,0.45,2.89,-0.95,0.49,0.84,-0.15,-51.3,503.2,797.0,-3.19,-14.56,1.62,1.77,0.9839715443040006,3.0752398280459365,0.09707472152657581,0.35,0,1,1.5
2.8148863069982326,76,148.62,101.3,6.2,-14.3,0.46,3.92,-1.34,0.44,0.81,-0.14,-45.8,565.8,638.0,-3.34,-16.02,1.16,1.77,0.9323625904121208,4.168165063910018,0.14571000191008643,0.35,0,1,1.5
2.8263617059983517,77,148.63,101.3,6.1,-14.7,0.49,4.98,-1.66,0.37,0.82,-0.1,-39.7,619.8,564.0,-3.51,-17.47,1.59,1.77,0.90515192095029,5.272200679033377,0.169462257944479,0.35,0,1,1.5
2.8349396219982737,78,148.64,101.3,6.1,-15.3,0.27,5.83,-1.55,0.32,0.89,-0.05,-33.1,677.4,552.0,-3.7,-18.95,1.31,1.77,0.9471008394041259,6.038567710972528,0.12496307270083007,0.35,0,1,1.5
2.84625725099977,79,148.65,101.2,6.1,-16.0,0.0,6.6,-1.12,0.24,0.92,-0.04,-26.1,721.0,513.0,-3.9,-20.3,1.68,1.77,0.9516301802696255,6.694355831594254,0.11802505719862377,0.35,0,1,1.5
2.854898207999213,80,148.66,101.1,6.1,-16.7,-0.25,7.18,-0.64,0.15,0.9,-0.01,-18.5,764.7,466.0,-4.11,-21.46,2.13,1.77,0.9124691775616314,7.212801120230614,0.1540423387084855,0.35,0,1,1.5
2.866455216999384,81,148.67,101.0,6.2,-17.4,-0.07,7.43,-0.25,0.1,0.91,0.01,-10.5,816.9,435.0,-4.33,-22.59,1.65,1.77,0.9155326318597279,7.434534282656849,0.14795930672218116,0.35,0,1,1.5
2.874903017998804,82,148.68,101.0,6.3,-18.1,0.2,7.45,0.02,0.03,0.95,0.01,-2.1,848.4,361.0,-4.56,-23.48,1.66,1.77,0.9505261700763424,7.452710916170035,0.11070645313545524,0.35,0,1,1.5
2.8862446029997955,83,148.69,100.9,6.5,-18.9,0.41,7.34,0.11,-0.02,1.0,0.0,6.3,829.0,-522.0,-4.79,-20.51,0.25,0.0,1.000199980003999,7.352264957140759,0.05981199034364271,0.35,0,1,1.5
2.8950470319996384,84,148.7,100.9,6.6,-19.6,0.28,7.14,0.05,-0.08,1.04,0.0,13.6,690.0,-1022.0,-4.97,-17.15,0.3,0.0,1.043072384832424,7.1456630203221865,0.016600793804913305,0.35,0,1,1.5
2.906399020999743,85,148.71,100.8,6.8,-20.3,-0.07,6.54,-0.17,-0.13,1.05,0.04,19.5,540.3,-1558.0,-5.11,-11.91,1.54,0.0,1.058772874605314,6.542583587543991,0.0008822979513827267,0.35,0,1,0.0
2.914930868999363,86,148.72,100.7,6.8,-20.9,-0.35,5.6,-0.41,-0.12,1.02,0.05,22.9,224.4,-2912.0,-5.15,-1.8,0.84,0.0,1.0282509421342632,5.62588659679521,0.0307761458139848,0.35,0,1,0.0
2.9264248599993152,87,148.73,100.6,6.9,-21.4,0.08,4.73,-0.77,-0.08,0.94,0.02,23.1,-33.0,-2039.0,-5.14,2.02,-0.08,0.0,0.9436100889668358,4.792932296621767,0.1131086590017839,0.35,0,1,0.0
2.934838155999387,88,148.74,100.6,6.9,-21.8,0.36,4.05,-0.92,-0.06,0.97,-0.02,22.4,-68.1,-622.0,-5.12,1.45,-0.25,0.0,0.97205966895042,4.168752811093505,0.08296589743783578,0.35,0,1,0.0
2.9466019789997517,89,148.75,100.6,6.9,-22.2,0.67,3.72,-0.95,-0.04,0.92,-0.05,22.0,-28.1,79.0,-5.12,0.18,-0.29,0.0,0.9222255689363639,3.897409395996269,0.130143997502854,0.35,0,1,0.0
2.955056227998284,90,148.76,100.7,6.8,-22.6,1.33,3.27,-1.11,-0.03,0.9,-0.03,22.0,10.9,198.0,-5.12,-0.47,0.11,0.0,0.9009994450608725,3.700526989497577,0.14834271895077844,0.35,0,1,0.0
2.966363592999187,91,148.77,100.8,6.8,-22.9,1.69,2.76,-1.26,-0.01,0.94,-0.06,22.2,16.1,33.0,-5.12,-0.28,-0.15,0.0,0.9419660291114537,3.4729382372855406,0.10522861220219337,0.35,0,1,0.0
2.9749515049988986,92,148.78,100.9,6.7,-23.2,1.35,2.35,-1.31,0.0,1.0,-0.09,22.2,-1.4,-94.0,-5.12,0.16,-0.15,0.0,1.004041831797859,3.0101661083734235,0.042289753325472246,0.35,0,1,0.0
2.9864469569984067,93,148.79,101.0,6.6,-23.4,0.64,2.05,-1.27,0.0,1.01,-0.11,22.2,-2.6,2.0,-5.12,-0.01,0.0,0.0,1.0159724405711013,2.4949949899749297,0.029751961661185433,0.35,0,1,0.0
2.9949320259984233,94,148.8,101.0,6.5,-23.6,0.26,1.82,-1.2,0.0,0.99,-0.13,22.2,2.5,15.0,-5.12,-0.06,-0.24,0.0,0.9984988733093293,2.195449840010015,0.04628101834449827,0.35,0,1,0.0
3.0064673209999455,95,148.81,101.0,6.4,-23.8,0.3,1.62,-1.15,-0.01,0.96,-0.14,22.2,0.1,-15.0,-5.12,0.03,0.16,0.0,0.9702061636580134,2.0092038224132462,0.0730822534358978,0.35,0,1,0.0
3.0149460549982905,96,148.82,101.0,6.3,-24.0,0.46,1.36,-1.13,-0.01,0.95,-0.15,22.2,-0.7,-1.0,-5.12,0.0,0.0,0.0,0.9618211892030659,1.8270467974302136,0.07983788333302844,0.35,0,1,0.0
3.026355155998317,97,148.83,101.1,6.2,-24.1,0.57,1.13,-1.05,0.0,0.95,-0.17,22.2,0.5,2.0,-5.12,0.0,0.0,0.0,0.965090669315583,1.644475600305459,0.07503703515610116,0.35,0,1,0.0
3.0349246629994013,98,148.84,101.1,6.1,-24.3,0.61,0.93,-0.99,0.0,0.96,-0.18,22.2,0.4,-1.0,-5.12,0.0,-0.08,0.0,0.9767292357659824,1.4889929482707434,0.06213049933158776,0.35,0,1,0.0
3.0463075379993825,99,148.85,101.2,6.0,-24.4,0.58,0.69,-0.9,0.01,0.97,-0.19,22.2,-0.4,-3.0,-5.12,0.0,0.07,0.0,0.9884836872705588,1.2737739202856997,0.049368526870471,0.35,0,1,0.0
3.054922710998653,100,148.86,101.2,5.8,-24.4,0.57,0.51,-0.8,0.01,0.97,-0.2,22.2,0.2,5.0,-5.12,-0.01,0.0,0.0,0.9904544411531506,1.1067971810589328,0.046449817528121606,0.35,0,1,0.0
3.066355635999571,101,148.87,101.3,5.7,-24.5,0.43,0.31,-0.68,0.0,0.98,-0.19,22.2,-0.1,-8.0,-5.12,0.03,-0.16,0.0,0.9982484660644363,0.8622064717919948,0.03788267676449919,0.35,0,1,0.0
3.074950309999622,102,148.88,101.3,5.6,-24.5,0.21,0.11,-0.57,-0.01,0.98,-0.2,22.2,-0.5,4.0,-5.12,0.0,0.15,0.0,1.0002499687578101,0.6173329733620261,0.035163550589702774,0.35,0,1,0.0
3.086221496998405,103,148.89,101.3,5.5,-24.5,-0.05,-0.09,-0.47,-0.02,0.97,-0.2,22.2,0.6,3.0,-5.12,-0.01,-0.16,0.0,0.9906058752097122,0.4811444689487763,0.04391149125504468,0.35,0,1,0.0
3.094928943999548,104,148.9,101.3,5.5,-24.5,-0.26,-0.27,-0.36,-0.04,0.95,-0.2,22.2,-0.1,-7.0,-5.12,0.03,-0.08,0.0,0.9716480844420988,0.5197114584074514,0.06161189638220488,0.35,0,1,0.0
3.1062973759999295,105,148.91,101.2,5.4,-24.5,-0.52,-0.5,-0.21,-0.05,0.94,-0.2,22.2,-0.2,4.0,-5.12,-0.01,0.07,0.0,0.9623408959407264,0.7513321502504734,0.06950070318590573,0.35,0,1,0.0
3.1149485149999236,106,148.92,101.2,5.4,-24.4,-0.79,-0.76,-0.03,-0.07,0.91,-0.2,22.2,0.7,5.0,-5.12,-0.02,0.15,0.0,0.9343446901438462,1.0966312051004203,0.09554697080313013,0.35,0,1,0.0
3.126317079999353,107,148.93,101.1,5.4,-24.3,-1.02,-0.98,0.13,-0.08,0.89,-0.21,22.2,-0.3,-9.0,-5.12,0.03,0.0,0.0,0.9179324593890337,1.4204576727238303,0.10972001752678384,0.35,0,1,0.0
3.134937364999132,108,148.94,101.0,5.4,-24.2,-1.08,-1.16,0.25,-0.08,0.87,-0.21,22.2,-0.3,4.0,-5.12,0.0,0.07,0.0,0.8985543945694106,1.6045248517863473,0.12651612069947893,0.35,0,1,0.0
3.1463459379992855,109,148.95,100.9,5.4,-24.1,-1.01,-1.4,0.38,-0.06,0.85,-0.2,22.2,0.4,3.0,-5.12,-0.02,-0.08,0.0,0.8752713864853575,1.7676255259528246,0.14680314620786128,0.35,0,1,0.0
3.15481587999966,110,148.96,100.8,5.4,-23.9,-0.87,-1.61,0.51,-0.03,0.84,-0.22,22.2,-0.1,0.0,-5.12,0.0,0.07,0.0,0.8688498144098322,1.8997631431312694,0.15016022391771888,0.35,0,1,0.0
3.1663611919993855,111,148.97,100.8,5.4,-23.8,-0.72,-1.78,0.64,0.0,0.82,-0.24,22.2,0.0,2.0,-5.12,0.0,0.07,0.0,0.854400374531753,2.0239565212721344,0.1613174705198821,0.35,0,1,0.0
3.1749342999992223,112,148.98,100.7,5.5,-23.6,-0.62,-1.87,0.76,-0.01,0.82,-0.26,22.2,-0.2,-5.0,-5.12,0.01,0.0,0.0,0.8602906485601246,2.1116107595861506,0.1523186525616803,0.35,0,1,0.0
3.1863734169983218,113,148.99,100.7,5.5,-23.4,-0.39,-1.97,0.84,-0.01,0.83,-0.27,22.2,-0.7,-1.0,-5.12,0.01,0.0,0.0,0.8728688332160794,2.176832561314719,0.13694565854761098,0.35,0,1,0.0
3.195019469998442,114,149.0,100.7,5.6,-23.1,-0.27,-1.99,0.95,0.0,0.87,-0.27,22.2,-0.6,-1.0,-5.12,0.03,0.0,0.0,0.9109335870413385,2.2215985235861138,0.09690328662790482,0.35,0,1,0.0
3.207033236998541,115,149.01,100.7,5.6,-22.9,-0.26,-2.06,1.15,0.0,0.93,-0.24,22.2,-1.6,-6.0,-5.12,0.04,0.16,0.0,0.9604686356149273,2.3735416575236252,0.04642087329322975,0.35,0,1,0.0
3.2148220769995532,116,149.02,100.7,5.7,-22.7,-0.41,-2.16,1.25,0.02,0.91,-0.25,22.2,-1.8,-1.0,-5.12,0.05,0.06,0.0,0.9439279633531364,2.5290709756746645,0.061702314643920286,0.35,0,1,0.0
3.226807656999881,117,149.03,100.6,5.8,-22.5,-0.33,-2.13,1.1,0.04,0.91,-0.26,22.1,-2.3,-8.0,-5.12,0.08,0.17,0.0,0.9472592042308167,2.4198760298825226,0.057203652290915286,0.35,0,1,0.0
3.234900862998984,118,149.04,100.7,5.8,-22.2,-0.55,-1.92,1.1,0.07,0.97,-0.28,22.1,-4.3,-12.0,-5.12,0.12,-0.24,0.0,1.01202766760598,2.280109646486326,0.007413514862563142,0.35,0,1,0.0
3.2467666969987476,119,149.05,100.7,5.9,-22.0,-0.95,-1.61,1.13,0.11,0.97,-0.29,22.1,-3.9,-1.0,-5.12,0.1,-0.28,0.0,1.0183810681665286,2.184376341201305,0.013491577114649544,0.35,0,1,0.0
3.25493745499989,120,149.06,100.6,6.0,-21.9,-1.17,-1.32,1.08,0.14,0.96,-0.29,22.0,-3.0,10.0,-5.12,0.06,0.08,0.0,1.0125709851659783,2.068260138377182,0.007527864231817283,0.35,0,1,0.0
3.267007228998409,121,149.07,100.5,6.1,-21.7,-1.36,-1.02,1.02,0.17,0.94,-0.3,22.0,-0.6,17.0,-5.12,0.0,-0.16,0.0,1.0012492197250393,1.9825236442474024,0.00371802318493919,0.35,0,1,0.0
3.2748495399991953,122,149.08,100.4,6.2,-21.6,-1.34,-0.68,1.02,0.17,0.89,-0.32,22.0,0.0,2.0,-5.12,0.0,-0.28,0.0,0.9609370426828181,1.8161497735594387,0.04314959622261716,0.35,0,1,0.0
3.286711625998578,123,149.09,100.3,6.3,-21.6,-0.86,-0.36,1.08,0.14,0.83,-0.34,22.0,0.0,3.0,-5.12,0.0,0.08,0.0,0.9077995373429092,1.4267445461609447,0.09436135953127545,0.35,0,1,0.0
3.2949857219991827,124,149.1,100.2,6.4,-21.5,-0.01,-0.18,1.16,0.09,0.81,-0.37,22.0,0.0,0.0,-5.12,0.0,0.08,0.0,0.8950418984606252,1.173925040196349,0.10497661844528827,0.35,0,1,0.0
3.3068328089993884,125,149.11,100.3,6.5,-21.5,0.95,-0.17,1.21,0.04,0.82,-0.37,22.0,0.0,0.0,-5.12,0.0,0.08,0.0,0.900499861188218,1.5477402882912883,0.09752828260334157,0.35,0,1,0.0
3.3148818089994165,126,149.12,100.5,6.6,-21.4,1.88,-0.35,1.05,0.0,0.87,-0.37,22.0,0.0,2.0,-5.12,-0.01,0.04,0.0,0.9454099639838793,2.1816049138191818,0.05156581621152667,0.35,0,1,0.0
3.327202838998346,127,149.13,100.7,6.7,-21.4,2.35,-0.52,0.71,0.01,0.97,-0.37,22.0,-0.3,0.0,-5.12,0.0,-0.04,0.0,1.0382196299434912,2.5093823941360553,0.04041897275312345,0.35,0,1,0.0
3.334926938998251,128,149.14,100.9,6.7,-21.3,2.18,-0.63,0.2,0.02,1.05,-0.36,22.0,-0.2,0.0,-5.12,0.0,0.0,0.0,1.1101801655587258,2.2780035118497954,0.110131918200991,0.35,0,1,0.0
3.346760757998709,129,149.15,101.1,6.7,-21.2,1.64,-0.87,-0.47,0.02,1.08,-0.37,22.0,-0.4,-8.0,-5.12,0.04,-1.0,0.0,1.1417968295629481,1.9150456913609135,0.13891361056110907,0.35,0,1,0.0
3.3548497469982976,130,149.16,101.3,6.6,-21.2,1.04,-1.04,-1.05,0.04,1.09,-0.37,22.0,-0.4,5.0,-5.12,0.0,0.18,0.0,1.151781229227148,1.8071247881648904,0.14592005002080288,0.35,0,1,0.0
3.3667862129987043,131,149.17,101.3,6.4,-21.1,0.58,-1.21,-1.48,0.07,1.08,-0.33,22.0,-0.5,-3.0,-5.12,0.03,-0.04,0.0,1.1314592347937242,1.9977237046198355,0.12308609447563135,0.35,0,1,0.0
3.374876862999372,132,149.18,101.4,6.2,-21.0,0.33,-1.35,-1.83,0.11,1.07,-0.29,22.0,-0.5,6.0,-5.12,0.0,0.04,0.0,1.1140466776576285,2.297890336808961,0.10356006659274497,0.35,0,1,0.0
3.3868436489992746,133,149.19,101.5,6.0,-20.9,0.34,-1.41,-2.17,0.18,1.08,-0.27,22.0,0.0,-3.0,-5.12,0.01,0.0,0.0,1.12769676775275,2.610095783683043,0.11486595355410922,0.35,0,1,0.0
3.3948739299994486,134,149.2,101.6,5.8,-20.8,0.64,-1.23,-2.71,0.21,1.09,-0.24,22.0,0.3,-2.0,-5.12,0.01,-0.14,0.0,1.1356936206565573,3.0441090650632083,0.12040555032875822,0.35,0,1,0.0
3.4069727969999803,135,149.21,101.7,5.5,-20.7,1.22,-0.98,-3.62,0.21,1.12,-0.25,22.0,-0.1,4.0,-5.12,-0.01,-0.04,0.0,1.1666190466471908,3.943754556257273,0.1483043567930038,0.35,0,1,0.0
3.414884901998448,136,149.22,101.9,5.1,-20.8,2.02,-0.55,-4.57,0.27,1.25,-0.26,22.0,0.0,0.0,-5.12,0.0,-0.09,0.0,1.3049904214207857,5.0267086647228725,0.28094221693526666,0.35,0,1,0.0
3.426763192999715,137,149.23,102.1,4.7,-20.8,1.7,-0.01,-4.69,0.27,1.38,-0.25,22.0,0.1,0.0,-5.12,0.0,0.18,0.0,1.4282156699882549,4.988607020000674,0.39608411619268113,0.35,0,2,0.0
3.4348784949997935,138,149.24,102.1,4.3,-20.9,0.74,0.34,-3.99,0.12,1.32,-0.18,22.0,-0.3,0.0,-5.12,0.0,0.04,0.0,1.3376098085764772,4.072259814893937,0.2993686896852854,0.35,0,2,0.0
3.4469808479989297,139,149.25,102.2,3.9,-21.0,0.46,0.21,-2.79,-0.1,1.27,-0.06,22.0,0.0,0.0,-5.12,0.0,-0.14,0.0,1.27534309109353,2.8354541082514455,0.23235993275829148,0.35,0,2,0.0
3.454872466998495,140,149.26,102.2,3.7,-21.1,0.97,-0.65,-1.36,-0.32,1.24,0.08,22.0,-0.5,-7.0,-5.12,0.03,0.08,0.0,1.2831211945876353,1.7924843095547587,0.2353352755273488,0.35,0,2,0.0
3.467176592999749,141,149.27,102.4,3.6,-20.9,1.86,-2.2,-0.33,-0.45,1.2,0.14,22.0,-1.9,-8.0,-5.12,0.06,0.08,0.0,1.2892245731446481,2.8997413677774784,0.23660988100267444,0.35,0,2,0.0
3.4749860579995584,142,149.28,102.6,3.6,-20.6,1.75,-3.58,0.17,-0.45,1.25,0.14,21.9,-4.0,-22.0,-5.12,0.14,0.0,0.0,1.3358892169637422,3.9884583487859064,0.27760903432533324,0.35,0,2,0.0
3.486910743999033,143,149.29,102.7,3.5,-20.2,0.01,-4.88,0.41,-0.31,1.29,0.17,21.9,-6.5,-21.0,-5.11,0.2,0.0,0.0,1.3375724279454926,4.897203283507843,0.27370640040094196,0.35,0,2,0.0
3.494939901998805,144,149.3,102.6,3.4,-19.7,-2.04,-5.86,0.41,-0.1,1.23,0.14,21.8,-9.6,-21.0,-5.11,0.26,0.0,0.0,1.241974234837422,6.2184644406798695,0.17454604314701405,0.35,0,2,0.0
3.5068207919994165,145,149.31,102.4,3.3,-19.1,-3.53,-6.58,0.13,0.1,1.12,0.14,21.7,-8.8,1.0,-5.11,0.22,-0.02,0.0,1.1331372379372238,7.468212637572661,0.06439486532187932,0.35,0,2,0.0
3.514917623999281,146,149.32,102.0,3.2,-18.4,-4.29,-6.77,-0.22,0.24,1.01,0.05,21.6,-10.0,-21.0,-5.11,0.32,0.04,0.0,1.0393267051317405,8.017817658191037,0.028827354133931893,0.35,0,2,0.0
3.5267333819992928,147,149.33,101.6,3.0,-17.8,-4.75,-6.25,-0.48,0.28,0.93,0.01,21.5,-13.2,-11.0,-5.1,0.33,-0.04,0.0,0.9712878049270464,7.864820404815357,0.09492892925185359,0.35,0,2,0.0
3.5348961539984884,148,149.34,101.2,2.8,-17.2,-4.57,-5.6,-0.62,0.25,0.86,0.03,21.4,-11.4,3.0,-5.1,0.31,-0.06,0.0,0.8961026726887941,7.254605433791696,0.16671178026030387,0.35,0,2,0.0
3.546689250999407,149,149.35,100.8,2.7,-16.7,-3.85,-5.16,-0.66,0.19,0.77,0.0,21.3,-9.7,16.0,-5.1,0.24,0.04,0.0,0.7930952023559341,6.471761738506757,0.26432486558130064,0.35,0,2,0.0
3.5549364109992894,150,149.36,100.4,2.5,-16.2,-3.16,-4.76,-0.52,0.15,0.79,-0.03,21.1,-12.6,-42.0,-5.09,0.46,0.1,0.0,0.8046738469715541,5.737037563063362,0.247691296546367,0.35,0,2,0.0
3.5667712669983302,151,149.37,100.2,2.4,-15.8,-2.5,-4.37,-0.27,0.14,0.81,-0.06,20.9,-25.9,-123.0,-5.08,0.93,0.28,0.0,0.8241965784932622,5.041805232255606,0.22360519372416576,0.35,0,2,0.0
3.5749344139985624,152,149.38,100.0,2.3,-15.4,-1.68,-4.11,-0.02,0.16,0.86,-0.07,20.6,-41.5,-130.0,-5.07,1.27,0.23,0.0,0.8775534171775528,4.440146393982973,0.16684338793907783,0.35,0,2,0.0
3.5867505359983625,153,149.39,99.9,2.2,-15.0,-1.16,-3.7,0.08,0.15,0.92,-0.12,20.1,-51.2,-91.0,-5.06,1.45,0.07,0.0,0.9398404119849284,3.8784017326728804,0.10246526526906807,0.35,0,2,0.0
3.5949292159984907,154,149.4,99.8,2.2,-14.6,-1.3,-3.23,0.18,0.14,0.95,-0.16,19.5,-51.6,-6.0,-5.05,1.33,-0.29,0.0,0.973498844375277,3.48644518098306,0.06743069622114506,0.35,0,2,0.0
3.6066889599987917,155,149.41,99.6,2.2,-14.3,-1.41,-2.73,0.31,0.13,1.0,-0.16,19.1,-42.4,79.0,-5.03,0.97,-0.23,0.0,1.0210288928331068,3.088219551780605,0.019502634808048924,0.35,0,2,0.0
3.6149894909995055,156,149.42,99.5,2.3,-14.1,-1.2,-2.29,0.46,0.13,1.03,-0.16,18.8,-27.5,126.0,-5.03,0.55,-0.08,0.0,1.0504284840006957,2.625966488742764,0.009699017232349005,0.35,0,2,0.0
3.6266258739997284,157,149.43,99.4,2.4,-13.9,-1.03,-2.06,0.73,0.15,1.05,-0.15,18.6,-12.7,125.0,-5.02,0.22,0.04,0.0,1.0712142642814275,2.416071191004106,0.02987510156281914,0.35,0,2,0.0
3.635043592999864,158,149.44,99.3,2.5,-13.7,-1.15,-1.85,0.96,0.16,1.05,-0.16,18.5,-9.3,29.0,-5.02,0.31,0.11,0.0,1.074104277991667,2.380462140005591,0.032109812967597406,0.35,0,2,0.0
3.646571405999566,159,149.45,99.2,2.6,-13.5,-1.56,-1.74,1.12,0.15,1.02,-0.15,18.4,-13.0,-6.0,-5.02,0.37,-0.05,0.0,1.0418253212511202,2.591447471973916,0.00016576089749031908,0.35,0,2,0.0
3.6549207189982553,160,149.46,99.0,2.8,-13.3,-1.96,-1.67,1.19,0.13,0.98,-0.16,18.2,-15.0,-8.0,-5.01,0.39,0.21,0.0,1.0014489502715553,2.836652957272003,0.03973128923951408,0.35,0,2,0.0
3.667274086999896,161,149.47,98.8,2.9,-13.1,-2.16,-1.54,1.22,0.11,0.93,-0.2,18.1,-15.2,-23.0,-5.01,0.49,0.02,0.0,0.9576011695899291,2.9198630104852525,0.08190748852271756,0.35,0,2,0.0
3.6749324039992644,162,149.48,98.6,3.0,-12.9,-2.09,-1.36,1.25,0.1,0.91,-0.2,17.9,-21.9,-51.0,-5.0,0.66,0.01,0.0,0.9370699013414101,2.789300987702833,0.10038998163581181,0.35,0,2,0.0
3.686849246998463,163,149.49,98.5,3.2,-12.8,-1.94,-1.17,1.38,0.09,0.91,-0.21,17.7,-24.5,-22.0,-5.0,0.66,-0.02,0.0,0.9382430388763884,2.652715589730644,0.09723250721881682,0.35,0,2,0.0
3.6948726389982767,164,149.5,98.3,3.3,-12.6,-1.79,-1.02,1.51,0.12,0.92,-0.22,17.4,-22.5,18.0,-4.99,0.54,0.0,0.0,0.9535197952848173,2.5543296576597156,0.08031663579418002,0.35,0,2,0.0
3.7068615189982665,165,149.51,98.2,3.5,-12.5,-1.88,-0.8,1.65,0.14,0.93,-0.23,17.3,-14.7,49.0,-4.99,0.35,0.03,0.0,0.9681941953967707,2.626194966105906,0.06432939096858215,0.35,0,2,0.0
3.7149240949984232,166,149.52,98.0,3.6,-12.4,-1.95,-0.55,1.73,0.17,0.91,-0.24,17.1,-12.9,26.0,-4.98,0.32,0.07,0.0,0.9563472172804185,2.664188431774299,0.0746528417032356,0.35,0,2,0.0
3.726731907998328,167,149.53,97.8,3.8,-12.4,-1.96,-0.33,1.75,0.18,0.9,-0.26,17.0,-12.6,6.0,-4.98,0.35,-0.02,0.0,0.9539392014169457,2.6482069405543065,0.07551964041537418,0.35,0,2,0.0
3.734945637999772,168,149.54,97.6,4.0,-12.3,-1.89,-0.07,1.69,0.18,0.88,-0.27,16.9,-11.4,15.0,-4.98,0.28,-0.07,0.0,0.937923237797209,2.536355653294703,0.08970489195440867,0.35,0,2,0.0
3.746671109998715,169,149.55,97.4,4.1,-12.3,-1.87,0.17,1.56,0.18,0.87,-0.26,16.8,-12.9,-12.0,-4.97,0.37,-0.26,0.0,0.9256889326334198,2.441188235265769,0.09990041317583398,0.35,0,2,0.0
3.7550035179992847,170,149.56,97.2,4.3,-12.3,-3.13,0.0,1.42,0.16,0.9,0.01,16.6,-12.9,0.0,-4.97,0.35,0.06,0.0,0.914166286842826,3.4370481521212355,0.10919459778709917,0.35,0,2,0.0
3.7667998619999707,171,149.57,96.9,4.4,-12.3,-2.78,0.25,1.24,0.21,0.8,-0.41,16.5,-15.4,-21.0,-4.97,0.45,-0.01,0.0,0.9231467922275417,3.0542593210138524,0.09820981055433575,0.35,0,2,0.0
3.7749517139982345,172,149.58,96.6,4.5,-12.3,-2.78,0.72,1.01,0.17,0.8,-0.25,16.3,-18.6,-28.0,-4.96,0.53,-0.1,0.0,0.8552192701290121,3.0441583401656356,0.16281458599980814,0.35,0,2,0.0
3.786967398998968,173,149.59,96.3,4.6,-12.4,-2.68,0.65,0.64,0.17,0.77,-0.23,16.1,-18.6,-4.0,-4.96,0.5,0.0,0.0,0.8214012417813843,2.8309892264012597,0.19269996206048723,0.35,0,2,0.0
3.794892804999108,174,149.6,96.1,4.7,-12.5,-2.92,0.88,0.2,0.19,0.73,-0.26,15.9,-19.1,-12.0,-4.95,0.54,0.16,0.0,0.7978721702127478,3.0562722391828903,0.21190445295654126,0.35,0,2,0.0
3.8067556449987023,175,149.61,95.7,4.7,-12.6,-3.11,1.32,-0.3,0.23,0.7,-0.3,15.7,-19.5,-1.0,-4.94,0.54,-0.05,0.0,0.795550124127952,3.3918284154715135,0.20994196906051033,0.35,0,2,0.0
3.814867796998442,176,149.62,95.4,4.6,-12.7,-2.94,1.88,-0.75,0.27,0.7,-0.28,15.5,-21.2,-32.0,-4.94,0.67,0.02,0.0,0.800812087820857,3.5693837003045776,0.20058640526025318,0.35,0,2,0.0
3.8268850519998523,177,149.63,95.1,4.6,-13.0,-2.33,2.36,-1.0,0.27,0.74,-0.25,15.2,-34.6,-132.0,-4.93,1.21,0.11,0.0,0.8264381404557753,3.463885102020562,0.1714611455728281,0.35,0,2,0.0
3.8349350769985904,178,149.64,94.9,4.5,-13.2,-1.53,2.74,-1.03,0.24,0.78,-0.24,14.7,-71.1,-370.0,-4.91,2.63,0.14,0.0,0.8506468127254695,3.3029380860076687,0.1443074238370713,0.35,0,2,0.0
3.846679412999947,179,149.65,94.8,4.4,-13.5,-0.57,3.05,-1.02,0.18,0.81,-0.24,13.5,-138.3,-595.0,-4.87,4.62,0.26,0.0,0.8637708029332782,3.266159824625855,0.1285597649566773,0.35,0,2,0.0
3.8549670679985866,180,149.66,94.8,4.3,-13.9,-0.03,3.15,-0.95,0.13,0.85,-0.23,11.6,-207.7,-649.0,-4.81,6.46,0.24,0.0,0.8901123524589466,3.2902735448591502,0.10017385112238875,0.35,0,2,0.0
3.866834429998562,181,149.67,94.7,4.3,-14.2,0.1,3.31,-0.77,0.08,0.86,-0.24,9.1,-266.4,-539.0,-4.73,7.72,0.27,0.0,0.8964373932405988,3.399852937995995,0.09197183413392185,0.35,0,2,0.0
3.8789175559995783,182,149.68,94.7,4.2,-14.5,0.07,3.42,-0.58,0.05,0.84,-0.21,6.2,-300.5,-389.0,-4.65,8.54,-0.06,0.0,0.867294644281861,3.4695388742598054,0.1186922914308065,0.35,0,2,0.0
3.8869078799998533,183,149.69,94.7,4.2,-14.9,0.46,3.42,-0.38,0.01,0.84,-0.18,3.0,-331.1,-327.0,-4.56,9.35,0.04,0.0,0.8591274643497319,3.4716566650520035,0.12432228193567696,0.35,0,2,0.0
3.8948411159999523,184,149.7,94.8,4.2,-15.2,1.42,3.14,-0.24,-0.03,0.85,-0.11,-0.5,-364.2,-351.0,-4.46,10.37,0.1,0.0,0.8576129663198895,3.4545043059750267,0.12332004436620891,0.35,0,2,0.0
3.9067750869999145,185,149.71,95.0,4.2,-15.5,2.23,2.52,-0.17,-0.04,0.89,-0.07,-4.4,-402.6,-350.0,-4.35,11.31,0.01,0.0,0.8936442245099557,3.3693025984615868,0.0855430104526198,0.35,0,2,0.0
3.9148525509990577,186,149.72,95.2,4.1,-15.7,2.32,1.97,-0.12,-0.02,0.94,-0.1,-8.6,-424.7,-217.0,-4.23,11.68,0.1,0.0,0.945515732285825,3.0459317129574655,0.032998072623215524,0.35,0,2,0.0
3.926841708998836,187,149.73,95.4,4.1,-15.9,1.61,1.52,-0.01,0.01,0.97,-0.17,-12.8,-433.1,-112.0,-4.11,11.81,0.11,0.0,0.9848350115628506,2.2141815643709077,0.00619478252073391,0.35,0,2,0.0
3.9346963629996026,188,149.74,95.5,4.1,-16.0,1.22,1.32,0.08,0.05,1.01,-0.23,-17.2,-428.5,56.0,-4.0,11.38,-0.17,0.0,1.0370631610466163,1.7992220541111652,0.0572544733644097,0.35,0,2,0.0
3.9469860219996917,189,149.75,95.6,4.1,-16.2,0.98,1.23,0.25,0.04,1.04,-0.28,-21.3,-408.2,134.0,-3.89,10.91,-0.2,0.0,1.0777754868245986,1.5924195427085162,0.09600746315954412,0.35,0,2,0.0
3.9548680229981983,190,149.76,95.7,4.2,-16.3,1.22,1.24,0.43,0.09,1.14,-0.34,-25.3,-388.9,213.0,-3.78,10.2,-0.17,0.0,1.1930213744941873,1.7918984346217839,0.20702828381255023,0.35,0,2,0.0
3.966969405999407,191,149.77,95.9,4.3,-16.4,1.6,1.57,0.88,0.12,1.3,-0.28,-28.9,-356.1,296.0,-3.69,9.28,-0.02,0.0,1.3352153384379615,2.408173581783506,0.34223780280119787,0.35,0,2,0.0
3.9747515639992343,192,149.78,96.0,4.4,-16.5,1.69,1.44,1.44,0.07,1.37,-0.19,-32.3,-324.5,307.0,-3.6,8.43,-0.23,0.0,1.3848826665100549,2.6463748789617845,0.3840670282558254,0.35,0,3,0.0
3.986966468999526,193,149.79,96.2,4.6,-16.6,1.52,0.98,1.88,0.01,1.41,-0.12,-35.0,-294.8,344.0,-3.52,7.4,-0.13,0.0,1.415132502630054,2.6086778260260504,0.406030527088308,0.35,0,3,0.0
3.9947531829984655,194,149.8,96.3,4.7,-16.7,1.32,0.35,2.1,0.0,1.42,-0.11,-37.9,-248.6,398.0,-3.46,6.26,-0.24,0.0,1.4242541907960111,2.5049750497759455,0.4068491709491797,0.35,0,3,0.0
4.006936018999113,195,149.81,96.5,4.9,-16.7,1.51,0.25,2.15,-0.02,1.48,-0.08,-40.1,-208.1,406.0,-3.4,5.14,-0.16,0.0,1.4822955170950225,2.6391475896584486,0.4555926873032272,0.35,0,3,0.0
4.0149198999988585,196,149.82,96.6,5.1,-16.7,1.6,0.01,2.2,-0.02,1.51,0.07,-41.9,-165.2,426.0,-3.36,3.96,-0.2,0.0,1.5117539482336404,2.720312482050546,0.47535009607300815,0.35,0,3,0.0
4.026742167998236,197,149.83,96.8,5.3,-16.6,1.16,-0.52,2.17,0.04,1.43,0.02,-43.2,-120.8,448.0,-3.33,2.7,-0.09,0.0,1.4306991297963383,2.5149353868439643,0.386409372082992,0.35,0,3,0.0
4.034823289999622,198,149.84,96.8,5.5,-16.6,1.05,-0.31,1.86,0.15,1.32,-0.12,-44.1,-74.5,467.0,-3.31,1.35,-0.12,0.0,1.3339040445249426,2.158286357275142,0.28382200107536426,0.35,0,3,0.0
4.047004173999085,199,149.85,96.9,5.7,-16.5,0.89,0.29,1.39,0.24,1.24,-0.12,-44.6,-28.8,466.0,-3.3,0.16,-0.21,0.0,1.2687001221722964,1.6757983172207804,0.21424571714826368,0.35,0,3,0.0
4.054847311999765,200,149.86,97.0,5.9,-16.6,0.72,0.97,1.13,0.34,1.23,-0.07,-44.5,14.8,410.0,-3.31,-0.8,-0.08,0.0,1.2780453826057976,1.6541463055002117,0.2191191580301295,0.35,0,3,0.0
4.067023062998487,201,149.87,97.1,6.0,-16.7,0.51,1.68,1.13,0.34,1.17,-0.05,-44.2,43.4,308.0,-3.32,-1.48,-0.19,0.0,1.219426094521517,2.0879176228960756,0.15728987254693183,0.35,0,3,0.0
4.074919665999914,202,149.88,97.1,6.1,-16.9,0.52,2.33,1.16,0.29,1.12,0.01,-43.6,68.4,272.0,-3.34,-2.2,-0.01,0.0,1.15697882435246,2.654223050159877,0.09294575033031727,0.35,0,3,0.0
4.087144751998494,203,149.89,97.1,6.3,-17.1,0.47,2.8,1.3,0.22,1.09,0.05,-42.7,94.0,258.0,-3.37,-2.86,-0.3,0.0,1.1131037687475505,3.1226431112120383,0.048089280830899694,0.35,0,3,0.0
4.094769597999402,204,149.9,97.1,6.5,-17.4,0.36,3.37,1.5,0.12,1.01,0.03,-41.6,119.0,246.0,-3.4,-3.52,-0.35,0.0,1.0175460677532,3.7062784568890668,0.04651905176018167,0.35,0,3,0.0
4.1066697079986625,205,149.91,97.1,6.7,-17.8,0.01,3.71,1.65,0.09,0.94,0.09,-40.2,143.7,248.0,-3.44,-4.19,-0.24,0.0,0.9485778829384544,4.060381755451081,0.11317749184342873,0.35,0,3,0.0
4.114959856999121,206,149.92,97.1,6.9,-18.1,-0.11,3.58,1.75,0.11,0.88,0.17,-38.6,166.6,227.0,-3.49,-4.78,-0.1,0.0,0.9029950165975447,3.986351715541417,0.15558515102065162,0.35,0,3,0.0
4.1267193329986185,207,149.93,97.0,7.1,-18.4,-0.19,3.07,1.81,0.14,0.86,0.2,-36.8,188.7,230.0,-3.54,-5.42,0.06,0.0,0.8939798655450804,3.5689073958285884,0.16130829603165364,0.35,0,3,0.0
4.13503075799963,208,149.94,97.0,7.3,-18.7,-0.09,2.42,1.59,0.15,0.82,0.15,-34.7,212.5,232.0,-3.6,-6.05,0.0,0.0,0.8469946871143879,2.8969984466685514,0.20412760497309912,0.35,0,3,0.0
4.146957937999105,209,149.95,96.9,7.5,-18.9,0.57,2.2,1.04,0.13,0.79,0.07,-32.5,234.5,217.0,-3.66,-6.62,0.03,0.0,0.8036790404135223,2.4992999019725506,0.2424943866404854,0.35,0,3,0.0
4.154864762998841,210,149.96,97.0,7.5,-19.1,1.04,2.0,0.21,0.07,0.81,0.07,-30.0,253.8,204.0,-3.73,-7.16,-0.13,0.0,0.816026960338934,2.264000883392054,0.22554353738077226,0.35,0,3,0.0
4.167096292998394,211,149.97,97.1,7.6,-19.3,0.85,1.63,-0.45,0.02,0.85,0.07,-27.3,276.3,229.0,-3.81,-7.82,-0.23,0.0,0.8531119504496464,1.8925908168434082,0.18468937632465854,0.35,0,3,0.0
4.174842802998683,212,149.98,97.1,7.5,-19.4,0.16,1.28,-0.78,-0.01,0.89,0.06,-24.4,301.5,242.0,-3.89,-8.49,0.07,0.0,0.8920762299265685,1.5074481748969017,0.14281059491078163,0.35,0,3,0.0
4.1869806649992825,213,149.99,97.1,7.4,-19.6,-0.51,0.94,-0.87,-0.06,0.87,0.05,-21.2,321.9,199.0,-3.98,-8.95,-0.02,0.0,0.8734987120768982,1.3786225009044353,0.1581603505052429,0.35,0,3,0.0
4.197534460998213,214,150.0,97.0,7.4,-19.6,-0.79,0.7,-0.82,-0.08,0.84,0.04,-18.7,337.8,291.0,-4.1,-9.9,-0.08,0.0,0.844748483277715,1.3366001645967278,0.18317236771833767,0.35,0,3,0.0
4.206965596998998,215,150.01,96.9,7.3,-19.7,-0.69,0.52,-0.73,-0.08,0.81,0.04,-13.4,380.9,319.0,-4.2,-10.64,-0.25,0.0,0.8149233092751735,1.1311056537742175,0.2087375908864615,0.35,0,3,0.0
4.217445001999295,216,150.02,96.9,7.2,-19.8,-0.43,0.35,-0.56,-0.07,0.81,0.03,-9.4,402.3,248.0,-4.31,-11.2,-0.11,0.0,0.8135723692456622,0.7880355321938218,0.2058867602976533,0.35,0,3,0.0
4.226805967999098,217,150.03,96.8,7.2,-19.8,-0.15,0.15,-0.32,-0.05,0.82,0.01,-5.3,425.5,236.0,-4.43,-11.83,-0.07,0.0,0.8215838362577491,0.38392707640904933,0.1939177874198551,0.35,0,3,0.0
4.237373667998327,218,150.04,96.8,7.2,-19.8,0.02,-0.09,-0.08,-0.02,0.82,0.0,-0.9,442.8,178.0,-4.55,-12.18,-0.15,0.0,0.820243866176395,0.12206555615733702,0.191352602351185,0.35,0,3,0.0
4.246978877999936,219,150.05,96.8,7.2,-19.8,0.2,-0.17,0.08,-0.01,0.85,-0.02,3.4,423.6,-314.0,-4.66,-10.47,0.43,0.0,0.8502940667792525,0.2744084546802449,0.15807635371336093,0.35,0,3,0.0
4.257431338999595,220,150.06,96.9,7.2,-19.8,0.42,-0.26,0.13,0.0,0.89,-0.04,7.0,323.2,-849.0,-4.74,-7.33,0.46,0.0,0.8908984229416954,0.5107837115648853,0.11512255759989953,0.35,0,3,0.0
4.2670049049993395,221,150.07,96.9,7.2,-19.7,0.52,-0.32,0.1,0.0,0.91,-0.07,9.5,237.1,-623.0,-4.81,-6.11,0.01,0.0,0.9126883367283709,0.6187083319303208,0.09146599093695951,0.35,0,3,0.0
4.277452513999378,222,150.08,97.0,7.2,-19.7,0.01,-0.4,0.16,0.0,0.95,-0.08,11.7,212.7,-381.0,-4.86,-5.43,0.35,0.0,0.953362470417207,0.4309292285283049,0.049776020103160956,0.35,0,3,0.0
4.287011518999861,223,150.09,96.9,7.2,-19.6,-0.64,-0.44,0.24,-0.01,0.92,-0.11,13.6,174.0,-436.0,-4.91,-4.11,0.14,0.0,0.92660671268883,0.812896057316063,0.07500114227490728,0.35,0,3,0.0
4.295036003999485,224,150.1,96.9,7.2,-19.6,-0.65,-0.55,0.2,-0.01,0.89,-0.11,15.0,123.1,-488.0,-4.94,-2.71,0.11,0.0,0.896827742657418,0.8746427842267951,0.10268451006019286,0.35,0,3,0.0
4.307595948999733,225,150.11,96.8,7.2,-19.5,-0.23,-0.73,0.05,0.0,0.85,-0.14,15.9,72.0,-488.0,-4.96,-1.39,0.07,0.0,0.8614522621712708,0.7670071707617862,0.1352987907354133,0.35,0,3,0.0
4.317420298999423,226,150.12,96.8,7.2,-19.5,0.17,-0.78,-0.05,0.03,0.86,-0.17,16.3,29.3,-430.0,-4.96,-0.32,0.16,0.0,0.8771544903835355,0.7998749902328488,0.11720463127268554,0.35,0,3,0.0
4.327040964999469,227,150.13,96.9,7.2,-19.4,0.44,-0.73,-0.06,0.05,0.87,-0.18,16.3,-3.9,-297.0,-4.96,0.25,-0.2,0.0,0.889831444712986,0.8544588931013591,0.10243712340437039,0.35,0,3,0.0
4.337256681999861,228,150.14,96.9,7.2,-19.3,0.56,-0.66,-0.06,0.06,0.87,-0.21,16.3,-2.8,-33.0,-4.96,-0.08,0.12,0.0,0.8969949832635632,0.8676404785393546,0.09336811315671734,0.35,0,3,0.0
4.347521344998313,229,150.15,97.0,7.2,-19.2,0.52,-0.54,-0.04,0.08,0.87,-0.23,16.3,2.5,-19.0,-4.96,0.0,-0.11,0.0,0.9034378783292186,0.7507329751649384,0.08518671372924069,0.35,0,3,0.0
4.357557228999212,230,150.16,97.1,7.2,-19.2,0.47,-0.41,0.01,0.07,0.86,-0.25,16.3,-1.4,-24.0,-4.96,0.04,0.07,0.0,0.8983317872590282,0.6237788069500277,0.08848694870344254,0.35,0,3,0.0
4.367027013999177,231,150.17,97.1,7.2,-19.2,0.71,-0.26,0.0,0.04,0.87,-0.26,16.3,0.0,9.0,-4.96,-0.03,0.07,0.0,0.9089004345911603,0.7561084578286371,0.07635993534388419,0.35,0,3,0.0
4.377255942999909,232,150.18,97.2,7.2,-19.1,0.84,-0.1,0.03,0.03,0.91,-0.26,16.3,0.2,-8.0,-4.96,0.03,0.21,0.0,0.9468896451012653,0.8464632301523793,0.037603310337103624,0.35,0,3,0.0
4.386929170999792,233,150.19,97.3,7.2,-19.1,0.66,-0.06,0.18,0.01,0.93,-0.26,16.3,-0.2,0.0,-4.96,0.0,-0.19,0.0,0.9657121724406295,0.6867313885355758,0.018405167337784634,0.35,0,3,0.0
4.398584986998685,234,150.2,97.3,7.2,-19.1,0.38,-0.05,0.36,0.0,0.93,-0.27,16.3,0.4,1.0,-4.96,0.0,0.07,0.0,0.9684007434941384,0.5258326730053963,0.015402264358590156,0.35,0,3,0.0
4.4066744899992045,235,150.21,97.4,7.3,-19.1,0.17,-0.05,0.52,-0.02,0.91,-0.26,16.3,-0.2,-9.0,-4.96,0.03,0.03,0.0,0.9466255859631093,0.5493632677928149,0.036433873451826915,0.35,0,3,0.0
4.417137133999859,236,150.22,97.4,7.3,-19.1,0.04,-0.09,0.65,-0.04,0.91,-0.26,16.3,0.2,9.0,-4.96,-0.03,-0.1,0.0,0.9472592042308167,0.6574191965557441,0.03508425008043714,0.35,0,3,0.0
4.427114245998382,237,150.23,97.4,7.4,-19.1,-0.03,-0.25,0.81,-0.04,0.9,-0.23,16.3,0.1,-4.0,-4.96,0.01,0.07,0.0,0.9297849213662265,0.8482334584299303,0.051507362286126734,0.35,0,3,0.0
4.437336698998479,238,150.24,97.4,7.5,-19.0,-0.01,-0.52,0.93,-0.03,0.86,-0.23,16.3,-0.4,-3.0,-4.96,0.02,0.17,0.0,0.890730037665734,1.065551500397799,0.08875100106688683,0.35,0,3,0.0
4.4470072289987,239,150.25,97.4,7.5,-19.0,0.07,-0.62,0.96,-0.07,0.83,-0.25,16.3,-0.3,8.0,-4.96,-0.02,0.03,0.0,0.8696551040498756,1.1449454135459909,0.10762941598909037,0.35,0,3,0.0
4.457380973999534,240,150.26,97.4,7.6,-18.9,-0.27,-0.76,1.04,-0.1,0.81,-0.21,16.3,0.6,0.0,-4.96,0.0,0.03,0.0,0.8427336471270149,1.3160927019021114,0.13185985545371193,0.35,0,3,0.0
4.46696592599983,241,150.27,97.4,7.7,-18.8,0.12,-0.89,0.96,-0.09,0.78,-0.22,16.3,-0.9,-7.0,-4.96,0.03,0.08,0.0,0.8154140052758476,1.3145721737508367,0.15599590735878166,0.35,0,3,0.0
4.477495099999942,242,150.28,97.5,7.8,-18.7,1.11,-1.03,0.67,-0.08,0.8,-0.24,16.3,-3.6,-26.0,-4.96,0.15,0.15,0.0,0.8390470785361213,1.655868352255094,0.12971557741653783,0.35,0,3,0.0
4.486989340999571,243,150.29,97.7,7.8,-18.6,2.0,-1.11,0.27,0.0,0.88,-0.26,16.2,-7.1,-30.0,-4.96,0.23,-0.03,0.0,0.9176055797563569,2.303258561256204,0.050133934672376146,0.35,0,3,0.0
4.497325940999872,244,150.3,97.9,7.8,-18.5,2.42,-0.86,-0.16,0.14,0.98,-0.31,16.1,-6.9,14.0,-4.96,0.1,0.0,0.0,1.0373523991392701,2.5732469760984857,0.06822062701632636,0.35,0,3,0.0
4.507200379999631,245,150.31,98.1,7.8,-18.4,1.65,-0.16,-0.46,0.29,1.08,-0.37,16.1,-0.3,41.0,-4.96,-0.03,-0.07,0.0,1.1778794505381271,1.7203778654702575,0.20457272484687972,0.35,0,3,0.0
4.517428068998925,246,150.32,98.2,7.7,-18.4,0.19,0.8,-0.52,0.35,1.12,-0.43,16.1,0.0,5.0,-4.96,0.01,-0.07,0.0,1.2497199686329734,0.9728823155962905,0.27088497808289147,0.35,0,3,0.0
4.526964179998686,247,150.33,98.1,7.7,-18.6,-0.89,1.69,-0.21,0.3,1.03,-0.42,16.1,0.0,2.0,-4.96,0.0,0.0,0.0,1.1520850663036997,1.9215358440580803,0.16978507423854539,0.35,0,3,0.0
4.537466050998773,248,150.34,98.0,7.7,-18.8,-0.81,2.11,0.22,0.18,0.95,-0.36,16.1,0.0,0.0,-4.96,0.0,0.0,0.0,1.031746092796091,2.2708148317289103,0.04845717871631805,0.35,0,3,0.0
4.547021018999658,249,150.35,98.0,7.8,-19.0,0.38,1.83,0.62,0.07,0.88,-0.31,16.1,-0.1,2.0,-4.96,0.0,-0.07,0.0,0.9356281312572854,1.9691876497682999,0.046707567166037856,0.35,0,3,0.0
4.557293737998407,250,150.36,98.1,7.9,-19.1,2.26,1.37,0.74,0.01,0.9,-0.35,16.1,0.1,-2.0,-4.96,0.0,0.01,0.0,0.9657121724406295,2.744467161399458,0.016291055463039883,0.35,0,3,0.0
4.567314561998501,251,150.37,98.4,8.0,-19.2,3.74,1.2,0.48,-0.03,0.97,-0.32,16.1,0.0,0.0,-4.96,0.0,0.01,0.0,1.0218610473053564,3.9570190800651948,0.039060663013653296,0.35,0,3,0.0
4.577399071999025,252,150.38,98.8,8.0,-19.4,4.48,0.99,-0.37,-0.08,1.08,-0.28,16.1,-0.3,0.0,-4.96,0.0,0.0,0.0,1.1185705163287651,4.602977297358744,0.1330547293963208,0.35,0,3,0.0
4.586978751998686,253,150.39,99.2,7.9,-19.4,4.17,0.48,-1.62,-0.07,1.2,-0.26,16.1,0.0,-1.0,-4.96,0.01,-0.08,0.0,1.2298373876248843,4.499299945547085,0.23943516867859116,0.35,0,3,0.0
4.597479994999958,254,150.4,99.5,7.7,-19.5,2.59,-0.22,-3.01,0.0,1.31,-0.25,16.1,0.0,1.0,-4.96,0.0,0.01,0.0,1.333641631023867,3.977008926316359,0.33637462383602246,0.35,0,3,0.0
4.607033907999721,255,150.41,99.7,7.3,-19.5,1.27,-0.91,-4.21,0.13,1.3,-0.22,16.1,0.1,3.0,-4.96,-0.01,-0.07,0.0,1.3248773528142144,4.490556758354135,0.3210581387138425,0.35,0,3,0.0
4.6173679279982025,256,150.42,99.8,6.8,-19.5,0.8,-1.25,-5.38,0.26,1.29,-0.24,16.1,0.0,0.0,-4.96,0.0,0.08,0.0,1.337647188162858,5.580940780907821,0.3271514145812364,0.35,0,3,0.0
4.626799482999559,257,150.43,99.9,6.2,-19.5,1.07,-0.62,-6.58,0.39,1.42,-0.31,16.1,0.1,0.0,-4.96,0.0,0.01,0.0,1.5048587973627292,6.6951997729716775,0.4844757633054855,0.35,0,4,0.0
4.637518247998742,258,150.44,100.0,5.5,-19.6,0.58,0.84,-6.94,0.41,1.59,-0.28,16.1,0.0,1.0,-4.96,0.0,0.01,0.0,1.6657130605239308,7.014670341505722,0.6324234259373533,0.35,0,4,0.0
4.647020655998858,259,150.45,100.0,4.9,-19.9,-0.56,2.15,-6.19,0.27,1.6,-0.16,16.1,-0.1,0.0,-4.96,0.0,-0.07,0.0,1.6304907236779977,6.576640479758644,0.5852570673095918,0.35,0,4,0.0
4.657133837999936,260,150.46,99.9,4.4,-20.2,-0.8,2.74,-4.62,0.0,1.46,0.01,16.1,0.2,-1.0,-4.96,0.0,0.02,0.0,1.4600342461736984,5.430653735969547,0.4065045780091865,0.35,0,4,0.0
4.667548970999633,261,150.47,99.8,4.1,-20.5,-0.05,2.42,-2.67,-0.26,1.35,0.19,16.1,-0.3,-1.0,-4.96,0.0,-0.05,0.0,1.3878760751594503,3.603859042748481,0.32765947885503977,0.35,0,4,0.0
4.677582219999749,262,150.48,99.8,4.0,-20.8,1.17,1.13,-0.93,-0.49,1.22,0.26,16.1,-0.7,-11.0,-4.96,0.05,0.01,0.0,1.340186554178186,1.8736862063856903,0.2743705587163001,0.35,0,4,0.0
4.687006546999328,263,150.49,100.0,4.0,-20.8,2.35,-0.72,0.19,-0.55,1.1,0.28,16.0,-8.4,-87.0,-4.95,0.43,0.0,0.0,1.2613088440187836,2.4651571957990837,0.19158299158575964,0.35,0,4,0.0
4.695069166999019,264,150.5,100.3,4.0,-20.6,2.8,-2.66,0.44,-0.46,1.13,0.34,15.8,-27.6,-163.0,-4.95,0.99,0.08,0.0,1.2665306944563166,3.887055440818924,0.19286874518282682,0.35,0,4,0.0
4.70773050599928,265,150.51,100.5,3.9,-20.2,0.88,-4.52,0.6,-0.23,1.26,0.32,15.4,-49.8,-221.0,-4.93,1.69,0.0,0.0,1.3201893803541975,4.643791554322824,0.2415968824590935,0.35,0,4,0.0
4.717217200999585,266,150.52,100.5,3.9,-19.7,-2.22,-5.64,0.62,-0.04,1.21,0.19,14.7,-80.9,-298.0,-4.91,2.63,-0.01,0.0,1.2254794979925205,6.092815441156904,0.14394926009546816,0.35,0,4,0.0
4.727295791999495,267,150.53,100.2,3.9,-19.1,-4.34,-5.91,0.19,0.1,1.04,0.13,13.6,-116.5,-343.0,-4.88,3.63,0.31,0.0,1.052853266129711,7.3348346947971494,0.028103432331994638,0.35,0,4,0.0
4.737419557999601,268,150.54,99.7,3.7,-18.5,-4.9,-5.98,-0.35,0.22,0.89,0.08,12.2,-151.6,-337.0,-4.83,4.51,0.36,0.0,0.9202716990106781,7.739050329336282,0.1574712994620069,0.35,0,4,0.0
4.746930193998196,269,150.55,99.3,3.6,-18.0,-4.88,-5.41,-0.69,0.27,0.83,0.0,10.5,-178.5,-261.0,-4.78,5.09,0.02,0.0,0.8728115489611717,7.31837413637756,0.20083282052128293,0.35,0,4,0.0
4.757521615998485,270,150.56,98.8,3.4,-17.5,-5.19,-4.44,-0.6,0.27,0.76,-0.07,8.6,-191.0,-117.0,-4.73,5.16,0.08,0.0,0.8095677859203638,6.856362009112414,0.25879505189084906,0.35,0,4,0.0
4.767061239999748,271,150.57,98.3,3.3,-17.1,-4.3,-3.44,-0.3,0.25,0.71,-0.05,6.7,-187.3,-28.0,-4.68,5.11,0.07,0.0,0.7543871685016919,5.514852672556176,0.30769615592333066,0.35,0,4,0.0
4.777316635998432,272,150.58,98.0,3.3,-16.8,-2.2,-2.75,-0.01,0.24,0.65,-0.05,4.8,-196.4,-116.0,-4.63,5.58,0.05,0.0,0.6946941773183363,3.5217325281741654,0.36004136416455246,0.35,0,4,0.0
4.787406970999655,273,150.59,98.0,3.3,-16.6,0.07,-2.25,0.17,0.23,0.74,-0.07,2.7,-222.1,-226.0,-4.56,6.39,-0.1,0.0,0.7780745465570764,2.2574986157249355,0.271127775027296,0.35,0,4,0.0
4.797475985998972,274,150.6,98.0,3.3,-16.4,1.08,-1.73,0.39,0.22,0.83,-0.13,0.3,-252.3,-287.0,-4.49,7.27,0.01,0.0,0.8684468895678077,2.0763910999616617,0.17714032337623342,0.35,0,4,0.0
4.807151881999744,275,150.61,98.2,3.3,-16.2,1.27,-1.24,0.61,0.2,0.91,-0.11,-2.4,-288.9,-357.0,-4.41,8.36,0.26,0.0,0.9381897462667134,1.8768590783540464,0.10524951734378118,0.35,0,4,0.0
4.817312208999283,276,150.62,98.3,3.3,-16.1,1.07,-1.04,0.73,0.2,0.95,-0.12,-5.5,-323.2,-307.0,-4.33,9.07,0.16,0.0,0.9782126558167197,1.6611441839888554,0.06392207563789931,0.35,0,4,0.0
4.827514178999991,277,150.63,98.4,3.4,-16.0,0.55,-0.89,0.85,0.14,0.95,-0.13,-8.9,-343.9,-223.0,-4.23,9.55,0.08,0.0,0.9690201236300513,1.3479985163196582,0.0716523156680764,0.35,0,4,0.0
4.835072681999009,278,150.64,98.4,3.6,-15.9,0.21,-0.93,0.87,0.1,0.92,-0.1,-12.5,-361.4,-188.0,-4.13,10.03,0.0,0.0,0.9308061022576077,1.2906974858579372,0.10766901029970954,0.35,0,4,0.0
4.847376532999988,279,150.65,98.4,3.6,-15.8,0.13,-1.07,0.91,0.07,0.9,-0.09,-16.2,-372.0,-96.0,-4.03,10.11,0.01,0.0,0.9071934744033381,1.4106381534610497,0.1286560053908996,0.35,0,4,0.0
4.857529834998786,280,150.66,98.4,3.7,-15.6,0.31,-1.24,0.91,0.04,0.89,-0.09,-19.9,-369.6,-17.0,-3.93,10.05,-0.06,0.0,0.8954328562209453,1.5690124282490563,0.1376082911018266,0.35,0,4,0.0
4.867025352999917,281,150.67,98.5,3.8,-15.5,0.58,-1.41,0.86,0.03,0.9,-0.11,-23.6,-372.6,-23.0,-3.83,10.12,-0.03,0.0,0.9071934744033381,1.75045708316428,0.12333071946104512,0.35,0,4,0.0
4.877379856998232,282,150.68,98.5,3.8,-15.3,0.52,-1.58,0.88,0.02,0.93,-0.1,-27.3,-367.0,60.0,-3.73,9.82,-0.14,0.0,0.9355746896961248,1.8818076416042104,0.09305051408489318,0.35,0,4,0.0
4.887085478998415,283,150.69,98.5,3.9,-15.2,0.26,-1.86,0.88,0.03,0.93,-0.11,-30.9,-355.9,84.0,-3.63,9.56,0.06,0.0,0.9369631796394137,2.074029893709346,0.08982878365877223,0.35,0,4,0.0
4.89744547799819,284,150.7,98.6,3.9,-15.0,-0.11,-2.04,0.89,0.05,0.93,-0.15,-34.4,-344.4,123.0,-3.54,9.15,0.0,0.0,0.9433451118228153,2.2284075031286354,0.08177791444586324,0.35,0,4,0.0
4.907021515999077,285,150.71,98.6,4.0,-14.7,-0.39,-2.1,0.93,0.08,0.92,-0.19,-37.7,-322.9,205.0,-3.45,8.46,-0.13,0.0,0.9428149341201592,2.3295922389980612,0.08066193030554902,0.35,0,4,0.0
4.91508086399881,286,150.72,98.6,4.0,-14.5,-0.47,-2.05,0.97,0.11,0.91,-0.21,-40.7,-297.5,232.0,-3.37,7.8,-0.22,0.0,0.9403722667114338,2.3160958529387337,0.08144250575998879,0.35,0,4,0.0
4.927656339999885,287,150.73,98.6,4.1,-14.3,-0.32,-1.96,1.0,0.14,0.88,-0.23,-43.5,-271.0,268.0,-3.3,6.99,-0.15,0.0,0.9202716990106781,2.223510737549967,0.09951221199152971,0.35,0,4,0.0
4.937393024998528,288,150.74,98.6,4.2,-14.1,-0.06,-1.81,0.99,0.15,0.88,-0.25,-46.0,-240.4,297.0,-3.24,6.15,-0.06,0.0,0.9270382947861431,2.063928293328041,0.09089070389174347,0.35,0,4,0.0
4.946988693998719,289,150.75,98.6,4.3,-13.9,0.1,-1.73,0.9,0.15,0.87,-0.25,-48.2,-209.5,300.0,-3.18,5.33,-0.22,0.0,0.9175510884958941,1.9526648457940754,0.09837035197835264,0.35,0,4,0.0
4.957393986998795,290,150.76,98.6,4.3,-13.7,0.24,-1.67,0.75,0.14,0.87,-0.26,-50.1,-178.8,305.0,-3.13,4.5,-0.16,0.0,0.9187491496594704,1.846347746227671,0.09522884499848083,0.35,0,4,0.0
4.966945983998812,291,150.77,98.7,4.4,-13.5,0.2,-1.67,0.55,0.13,0.88,-0.26,-51.7,-148.2,307.0,-3.09,3.65,0.0,0.0,0.9267685795278129,1.7695762204550558,0.08546522682753555,0.35,0,4,0.0
4.977587526998832,292,150.78,98.7,4.4,-13.4,-0.07,-1.62,0.36,0.11,0.86,-0.28,-52.9,-117.5,300.0,-3.06,2.85,-0.09,0.0,0.9110982383914481,1.6609936784948944,0.09911285660462243,0.35,0,4,0.0
4.987073172998862,293,150.79,98.7,4.4,-13.2,-0.56,-1.58,0.14,0.11,0.82,-0.29,-53.9,-88.9,287.0,-3.04,2.08,-0.07,0.0,0.8766983517721474,1.6821414922651425,0.1308424883594448,0.35,0,4,0.0
4.997287785998196,294,150.8,98.6,4.4,-13.1,-1.02,-1.48,-0.16,0.11,0.75,-0.31,-54.6,-64.6,247.0,-3.02,1.48,-0.07,0.0,0.8189627586160435,1.8045498053531246,0.18480651988523777,0.35,0,4,0.0
5.0070391969984485,295,150.81,98.5,4.3,-12.9,-1.4,-1.25,-0.52,0.15,0.69,-0.32,-55.1,-43.7,212.0,-3.01,0.96,-0.24,0.0,0.7752418977325722,1.947536905940424,0.2239568331533348,0.35,0,4,0.0
5.017349281999486,296,150.82,98.3,4.2,-12.8,-1.41,-0.82,-0.84,0.2,0.68,-0.32,-55.5,-27.6,156.0,-3.01,0.64,-0.08,0.0,0.7776888838089433,1.8346934348822421,0.21707965013542452,0.35,0,4,0.0
5.027100951998364,297,150.83,98.2,4.1,-12.8,-1.02,-0.32,-0.94,0.24,0.69,-0.29,-55.7,-20.6,92.0,-3.0,0.48,-0.13,0.0,0.7860025445251433,1.4235167719419395,0.20459066963084005,0.35,0,4,0.0
5.037520269999732,298,150.84,98.2,4.0,-12.8,-0.11,0.08,-0.84,0.26,0.72,-0.26,-55.9,-16.5,38.0,-3.0,0.46,-0.04,0.0,0.8084553172563095,0.8509406559801922,0.17849513896168034,0.35,0,4,0.0
5.047079372998269,299,150.85,98.2,3.9,-12.8,0.88,0.3,-0.7,0.23,0.74,-0.23,-56.0,-17.9,2.0,-2.99,0.5,0.05,0.0,0.8083316151184488,1.1637869220780923,0.17504646427755022,0.35,0,4,0.0
5.05745097199906,300,150.86,98.3,3.9,-12.9,1.48,0.54,-0.74,0.19,0.74,-0.24,-56.2,-18.6,-6.0,-2.99,0.53,0.07,0.0,0.800812087820857,1.7405746177627663,0.17891467174363918,0.35,0,4,0.0
5.066966459999094,301,150.87,98.5,3.8,-13.0,1.64,0.92,-0.89,0.15,0.75,-0.26,-56.4,-23.0,-41.0,-2.98,0.72,-0.18,0.0,0.8078366171448284,2.080408613710297,0.16845233957127448,0.35,0,4,0.0
5.077526597999167,302,150.88,98.6,3.7,-13.1,1.71,1.32,-1.02,0.12,0.78,-0.24,-56.7,-30.8,-76.0,-2.97,0.96,0.07,0.0,0.8248636250920512,2.3889118861942147,0.1483968249915706,0.35,0,4,0.0
5.0870123079985206,303,150.89,98.8,3.7,-13.2,1.95,1.39,-0.89,0.1,0.86,-0.17,-57.1,-42.1,-109.0,-2.96,1.31,-0.07,0.0,0.8823264701911645,2.554740691342274,0.08911530029460824,0.35,0,4,0.0
5.097228387998257,304,150.9,99.0,3.6,-13.4,2.54,0.92,-0.52,0.06,0.95,-0.07,-57.6,-54.6,-110.0,-2.94,1.6,0.09,0.0,0.9544631999192007,2.7510725181281575,0.016638999155240586,0.35,0,4,0.0
5.107329183998445,305,150.91,99.2,3.6,-13.4,2.95,0.0,-0.2,0.01,1.01,-0.08,-58.2,-65.9,-115.0,-2.93,1.94,0.01,0.0,1.0132127121192271,2.9567718883945036,0.041268302783890154,0.35,0,4,0.0
5.117316844998641,306,150.92,99.5,3.5,-13.4,2.57,-0.8,-0.07,-0.02,1.07,-0.18,-59.0,-76.4,-95.0,-2.9,2.15,0.0,0.0,1.0852188719332152,2.6925452642434813,0.11100897334592064,0.35,0,4,0.0
5.127355923999858,307,150.93,99.7,3.5,-13.3,1.47,-1.19,-0.19,-0.05,1.07,-0.35,-59.8,-80.8,-51.0,-2.88,2.22,-0.07,0.0,1.1268983982595768,1.900815614413981,0.14963472967883662,0.35,0,4,0.0
5.137523338999017,308,150.94,99.8,3.4,-13.2,0.27,-0.96,-0.46,-0.01,1.06,-0.49,-60.6,-83.0,-21.0,-2.86,2.25,0.08,0.0,1.167818479045438,1.0982258419833326,0.18674371425540381,0.35,0,4,0.0
5.147046520998629,309,150.95,99.8,3.4,-13.1,0.06,-0.42,-0.5,0.03,1.09,-0.52,-61.4,-81.4,10.0,-2.84,2.16,0.06,0.0,1.208056290079233,0.6557438524302001,0.22244189478341492,0.35,0,4,0.0
5.155149234999044,310,150.96,99.9,3.3,-13.1,0.97,-0.17,-0.3,0.08,1.12,-0.47,-62.2,-77.8,18.0,-2.82,2.1,0.05,0.0,1.217251001231874,1.029465880930495,0.22700387381733478,0.35,0,4,0.0
5.167438602999027,311,150.97,100.0,3.3,-13.1,2.06,-0.07,0.17,0.13,1.2,-0.45,-63.0,-77.1,4.0,-2.8,2.11,0.1,0.0,1.288177006470772,2.068187612379496,0.2919712814751082,0.35,0,4,0.0
5.177491285998258,312,150.98,100.3,3.4,-13.1,2.31,0.0,0.72,0.14,1.19,-0.46,-63.8,-79.2,-12.0,-2.77,2.17,-0.02,0.0,1.2834718539960275,2.4196074061715054,0.28152080642035626,0.35,0,4,0.0
5.187148584998795,313,150.99,100.5,3.5,-13.1,2.17,0.35,0.92,0.17,1.12,-0.52,-64.5,-79.3,-4.0,-2.75,2.16,0.0,0.0,1.2464750298341318,2.382813463114559,0.23963350261329142,0.35,0,4,0.0
5.197345743999904,314,151.0,100.7,3.6,-13.1,2.57,1.07,0.81,0.21,1.16,-0.51,-65.1,-79.0,9.0,-2.73,2.09,0.01,0.0,1.284445405612866,2.8992930172716243,0.272051800824185,0.35,0,4,0.0
5.207051473998945,315,151.01,101.0,3.7,-13.3,3.21,1.67,0.97,0.22,1.34,-0.35,-66.1,-74.9,35.0,-2.71,1.98,-0.13,0.0,1.4023195071024293,3.746184725824395,0.3821273842674733,0.35,1,5,1.5
5.217488111999046,316,151.02,101.3,3.9,-13.4,3.21,1.91,1.48,0.16,1.57,-0.24,-66.8,-67.6,86.0,-2.69,1.64,-0.01,0.0,1.5962769183321546,4.017785459678005,0.5645630995872546,0.35,0,5,1.5
5.226896219999617,317,151.03,101.6,4.1,-13.6,2.65,2.08,2.39,0.09,1.84,-0.08,-67.3,-43.7,322.0,-2.68,0.34,1.36,1.77,1.8439360075664233,4.13049633821409,0.7959777450450929,0.35,0,5,1.5
5.237562661999618,318,151.04,101.7,4.4,-13.7,1.36,1.86,3.62,0.0,1.94,0.0,-67.2,41.6,723.0,-2.7,-2.25,1.38,1.77,1.94,4.291107083259518,0.8742009027290962,0.35,0,5,1.5
5.247063935999904,319,151.05,101.8,4.9,-13.8,-0.83,1.74,4.42,-0.06,1.7,0.0,-66.2,136.7,884.0,-2.74,-4.89,1.32,1.77,1.7010584939971933,4.822126087111369,0.6225542087917639,0.35,0,5,1.5
5.2570664699997,320,151.06,101.6,5.3,-13.9,-2.25,1.62,4.34,0.0,1.32,0.03,-64.1,232.0,936.0,-2.81,-7.52,1.47,1.77,1.3203408650799233,5.15,0.23699984827700393,0.35,0,5,1.5
5.267274208999879,321,151.07,101.3,5.8,-14.0,-2.62,1.72,3.68,0.14,0.98,-0.03,-61.1,331.6,978.0,-2.9,-10.24,1.2,1.77,0.9904039579888602,4.83375630333181,0.09107831763777807,0.35,0,5,1.5
5.277369309998903,322,151.08,101.1,6.1,-14.1,-2.05,2.49,2.91,0.3,0.84,-0.08,-57.1,425.6,933.0,-3.02,-12.69,1.61,1.77,0.8955445270895244,4.344041896667204,0.1822189935663716,0.35,0,5,1.5
5.286975365999751,323,151.09,100.9,6.4,-14.4,-1.04,3.67,2.19,0.39,0.75,-0.07,-52.2,524.2,992.0,-3.17,-15.46,1.31,1.77,0.8482334584299301,4.398477009147598,0.22493946098144646,0.35,0,5,1.5
5.2974512619985035,324,151.1,100.8,6.7,-14.8,0.15,4.78,1.51,0.49,0.8,0.01,-46.3,613.7,875.0,-3.34,-17.66,1.53,1.77,0.9381897462667134,5.015077267600172,0.13228350968176994,0.35,0,5,1.5
5.307015422999029,325,151.11,100.8,6.9,-15.3,0.5,5.74,1.19,0.5,0.89,0.04,-39.6,695.0,844.0,-3.53,-19.94,1.52,1.77,1.0216163663528497,5.88334088762499,0.04787975180372084,0.35,0,5,1.5
5.317270330999236,326,151.12,100.7,7.2,-15.8,0.1,6.51,1.16,0.42,0.88,0.01,-32.1,783.2,818.0,-3.74,-22.12,1.5,1.77,0.9751410154434075,6.613297210922854,0.09246800065889982,0.35,0,5,1.5
5.327287210999202,327,151.13,100.6,7.4,-16.5,-0.58,7.05,1.21,0.32,0.86,0.03,-23.7,857.0,772.0,-3.98,-24.13,1.68,1.77,0.9180958555619342,7.176559064064059,0.1465228973295657,0.35,0,5,1.5
5.337374019998606,328,151.14,100.5,7.7,-17.2,-0.62,7.19,1.2,0.22,0.84,0.07,-14.6,935.5,846.0,-4.24,-26.54,1.2,1.77,0.8711486669908873,7.315770636098429,0.18960068418260023,0.35,0,5,1.5
5.346900509999614,329,151.15,100.3,7.9,-17.9,-0.17,7.07,1.19,0.12,0.89,0.07,-4.8,1002.1,597.0,-4.51,-27.7,0.64,1.77,0.9007774419910837,7.1714642856253565,0.1567724709987559,0.35,0,5,1.5
5.357554900998366,330,151.16,100.2,8.1,-18.5,0.1,6.83,1.15,0.02,0.93,0.07,5.3,1011.8,-133.0,-4.78,-26.1,0.2,0.0,0.9328451104015072,6.926860760835314,0.12221070653656585,0.35,0,5,1.5
5.367060344999118,331,151.17,100.2,8.4,-19.2,-0.08,6.21,0.95,-0.05,0.93,0.08,14.7,900.8,-840.0,-5.03,-22.91,0.49,0.0,0.9347726996441434,6.282754173131398,0.11787745494805102,0.35,0,5,1.5
5.377382446999036,332,151.18,100.1,8.5,-19.7,-0.2,5.22,0.45,-0.07,0.9,0.08,22.6,723.7,-1967.0,-5.21,-15.61,1.68,0.0,0.9062560344626678,5.243176518104268,0.14346623772693623,0.35,0,5,1.5
5.387415520999639,333,151.19,100.0,8.6,-20.2,-0.12,4.34,-0.24,-0.1,0.89,0.0,27.0,280.0,-4074.0,-5.27,-1.1,1.47,0.0,0.8956003573022959,4.348287019045546,0.15103947658956196,0.35,0,5,0.0
5.397411634998207,334,151.2,99.9,8.6,-20.6,0.56,3.46,-1.04,-0.08,0.84,0.0,26.9,-96.5,-2736.0,-5.23,3.63,0.01,0.0,0.8438009243891593,3.6560634567797097,0.19878213131264455,0.35,0,5,0.0
5.407061956999314,335,151.21,99.9,8.6,-20.9,0.25,2.98,-1.23,-0.07,0.96,-0.04,25.7,-114.7,-843.0,-5.21,2.38,-0.22,0.0,0.9633794683301072,3.2335429485318423,0.07761951562426261,0.35,0,5,0.0
5.417348057999334,336,151.22,99.9,8.5,-21.2,-0.6,2.75,-0.86,-0.1,0.88,-0.04,24.9,-58.0,104.0,-5.19,0.9,-0.14,0.0,0.8865664103720601,2.9431445768089612,0.1513439221106636,0.35,0,5,0.0
5.426976712999021,337,151.23,99.8,8.5,-21.5,0.04,2.35,-0.88,-0.09,0.76,-0.03,24.7,-5.0,342.0,-5.19,-0.34,0.01,0.0,0.7658981655546643,2.5096812546616354,0.2665719235894982,0.35,0,5,0.0
5.435020952998457,338,151.24,99.8,8.4,-21.7,1.2,1.8,-1.11,-0.05,0.78,-0.06,24.9,26.4,274.0,-5.2,-0.97,-0.16,0.0,0.7839005038906405,2.4314810301542553,0.24359819354845158,0.35,0,5,0.0
5.447371380998447,339,151.25,99.9,8.3,-21.9,1.66,1.52,-1.09,-0.01,0.89,-0.09,25.3,40.1,130.0,-5.21,-1.06,0.16,0.0,0.8945948803788226,2.5008198655640914,0.13024574071906403,0.35,0,5,0.0
5.457301908998488,340,151.26,100.1,8.2,-22.1,1.35,1.29,-0.91,0.0,0.94,-0.09,25.5,22.5,-188.0,-5.21,0.1,0.19,0.0,0.9442986815621421,2.0771855959446666,0.07893110074502951,0.35,0,5,0.0
5.467034230998252,341,151.27,100.2,8.2,-22.2,0.76,1.09,-0.75,0.01,0.95,-0.11,25.5,-12.2,-177.0,-5.21,0.32,-0.07,0.0,0.9563994981178106,1.5258440287263966,0.06549367850557397,0.35,0,5,0.0
5.4774031809993176,342,151.28,100.2,8.1,-22.3,0.17,0.95,-0.72,0.01,0.94,-0.13,25.4,0.5,63.0,-5.21,-0.19,0.1,0.0,0.9489994731294639,1.204076409535541,0.07143582942404214,0.35,0,5,0.0
5.48702129099911,343,151.29,100.2,8.1,-22.4,-0.27,0.79,-0.65,0.01,0.95,-0.14,25.5,3.9,-7.0,-5.21,-0.02,0.1,0.0,0.9603124491539199,1.0580642702596097,0.058920396331594294,0.35,0,5,0.0
5.497448128999167,344,151.3,100.1,8.0,-22.5,-0.55,0.58,-0.57,0.0,0.92,-0.13,25.5,-2.5,-33.0,-5.21,0.09,0.01,0.0,0.9291393867445293,0.9817331613019904,0.08829158956616523,0.35,0,5,0.0
5.506985816999077,345,151.31,100.0,8.0,-22.5,-0.56,0.27,-0.52,-0.02,0.91,-0.13,25.4,-0.8,18.0,-5.21,-0.03,-0.16,0.0,0.9194563611178075,0.8104936767180853,0.09601512288902936,0.35,0,5,0.0
5.515137801998208,346,151.32,100.0,7.9,-22.6,-0.44,0.04,-0.47,-0.03,0.92,-0.15,25.5,0.8,0.0,-5.21,0.0,-0.12,0.0,0.9326306878931231,0.6450581369148055,0.08118398019143946,0.35,0,5,0.0
5.527464834998682,347,151.33,99.9,7.9,-22.6,-0.47,-0.22,-0.39,-0.05,0.92,-0.15,25.5,-0.5,-3.0,-5.21,0.01,0.0,0.0,0.9334880824091971,0.6491532946846993,0.07872005396185822,0.35,0,5,0.0
5.5374866829988605,348,151.34,99.9,7.9,-22.5,-0.5,-0.51,-0.33,-0.04,0.91,-0.16,25.5,0.3,2.0,-5.21,0.0,-0.12,0.0,0.924824307639024,0.7867655305108378,0.08563615215739062,0.35,0,5,0.0
5.547016486998473,349,151.35,99.9,7.8,-22.5,-0.6,-0.79,-0.25,-0.03,0.9,-0.18,25.5,0.0,-2.0,-5.21,0.0,0.01,0.0,0.918313671900838,1.0230347012687302,0.09030385213766512,0.35,0,5,0.0
5.557405629999266,350,151.36,99.8,7.8,-22.4,-0.75,-1.0,-0.15,-0.01,0.88,-0.21,25.5,0.1,3.0,-5.21,-0.01,0.08,0.0,0.9047651629014017,1.2589678312014172,0.10177531391435934,0.35,0,5,0.0
5.567023777999566,351,151.37,99.7,7.7,-22.3,-0.81,-1.11,-0.08,0.0,0.85,-0.24,25.5,-0.3,-3.0,-5.21,0.0,-0.04,0.0,0.8832326986700616,1.3764446955835168,0.12084162258278552,0.35,0,5,0.0
5.577282042999286,352,151.38,99.7,7.7,-22.2,-0.77,-1.12,-0.01,0.01,0.82,-0.26,25.5,-0.1,5.0,-5.21,-0.02,0.06,0.0,0.8602906485601246,1.359190935814391,0.1409079992388681,0.35,0,5,0.0
5.587621559998297,353,151.39,99.6,7.7,-22.1,-0.67,-1.13,0.04,0.02,0.81,-0.27,25.5,0.5,2.0,-5.21,-0.01,0.09,0.0,0.854049178911847,1.3143059004660977,0.1442064795094028,0.35,0,5,0.0
5.597439334998853,354,151.4,99.6,7.7,-21.9,-0.57,-1.16,0.17,0.02,0.8,-0.28,25.5,-0.1,-2.0,-5.21,0.0,-0.21,0.0,0.8478207357690658,1.3036103712382776,0.1474262241991403,0.35,0,5,0.0
5.607012535998365,355,151.41,99.5,7.7,-21.8,-0.49,-1.17,0.36,0.01,0.8,-0.29,25.5,0.2,-1.0,-5.21,0.0,0.06,0.0,0.8509994124557314,1.318559820410132,0.14136259656222516,0.35,0,5,0.0
5.617331307999848,356,151.42,99.5,7.7,-21.7,-0.4,-1.2,0.61,-0.01,0.79,-0.29,25.5,-0.1,-1.0,-5.21,0.0,-0.15,0.0,0.8416056083463322,1.404314779527724,0.1477412726581918,0.35,0,5,0.0
5.627394726998318,357,151.43,99.5,7.8,-21.5,-0.37,-1.26,0.89,-0.09,0.79,-0.3,25.5,-0.2,1.0,-5.21,0.0,0.01,0.0,0.8498235110892144,1.5863795258386313,0.13673290251700343,0.35,0,5,0.0
5.637503091998951,358,151.44,99.5,7.9,-21.4,-0.18,-1.41,1.19,-0.14,0.79,-0.29,25.4,-0.4,0.0,-5.21,0.0,-0.03,0.0,0.8531119504496465,1.8538068939347483,0.13077557389343986,0.35,0,5,0.0
5.647083262998422,359,151.45,99.5,8.0,-21.2,0.66,-1.65,1.23,-0.14,0.8,-0.29,25.4,-1.8,-17.0,-5.21,0.08,0.09,0.0,0.8623804264940155,2.161249638519345,0.11907695589208944,0.35,0,5,0.0
5.657244273999822,360,151.46,99.7,8.1,-21.0,1.45,-1.9,1.14,-0.1,0.86,-0.29,25.4,-3.9,-14.0,-5.21,0.12,0.06,0.0,0.9130717386930777,2.648037008804824,0.06701793081916674,0.35,0,5,0.0
5.667494405999605,361,151.47,99.9,8.1,-20.8,1.94,-2.05,0.89,-0.01,0.96,-0.31,25.4,-5.7,-23.0,-5.21,0.2,0.0,0.0,1.0088607436113273,2.959425619947222,0.02819565261710122,0.35,0,5,0.0
5.677498779999951,362,151.48,100.1,8.2,-20.6,1.72,-1.85,0.55,0.09,1.07,-0.34,25.3,-9.7,-32.0,-5.21,0.29,0.09,0.0,1.1263214461245066,2.5852272627372628,0.14274322802767492,0.35,0,5,0.0
5.687138878998667,363,151.49,100.2,8.2,-20.4,0.21,-1.41,0.25,0.2,1.17,-0.36,25.2,-10.5,-5.0,-5.2,0.26,0.02,0.0,1.2403628501370072,1.4473078456223472,0.25164893939937205,0.35,0,5,0.0
5.697328131998802,364,151.5,100.2,8.2,-20.3,-1.58,-0.66,0.02,0.28,1.16,-0.39,25.1,-8.8,20.0,-5.2,0.17,-0.16,0.0,1.2554282137979853,1.712425180847327,0.26138001699914315,0.35,0,5,0.0
5.707299418998446,365,151.51,99.9,8.2,-20.3,-2.67,0.2,-0.19,0.33,1.07,-0.4,25.0,-1.6,60.0,-5.2,-0.06,-0.11,0.0,1.1890332207301864,2.68421310629391,0.19108532345271734,0.35,0,5,0.0
5.717380051999498,366,151.52,99.6,8.1,-20.4,-2.94,1.09,-0.23,0.31,0.94,-0.42,25.1,3.7,30.0,-5.2,-0.07,0.07,0.0,1.0752209075348191,3.143978371426877,0.07572755005220311,0.35,0,5,0.0
5.726871265998852,367,151.53,99.3,8.2,-20.5,-2.5,1.77,0.0,0.23,0.85,-0.42,25.1,-0.8,-16.0,-5.2,0.04,-0.01,0.0,0.975602378020882,3.063151971417677,0.023413159872499367,0.35,0,5,0.0
5.73741523499848,368,151.54,99.1,8.2,-20.7,-1.34,2.23,0.39,0.13,0.78,-0.42,25.1,0.0,8.0,-5.2,-0.02,0.03,0.0,0.895377015563835,2.6307033280094507,0.10156575188295547,0.35,0,5,0.0
5.747051368998655,369,151.55,99.0,8.3,-21.0,0.45,2.33,0.82,0.02,0.78,-0.38,25.1,0.7,0.0,-5.2,0.0,0.12,0.0,0.8678709581498854,2.51073694360839,0.126490373110967,0.35,0,5,0.0
5.757300298999326,370,151.56,99.2,8.4,-21.2,2.55,1.81,1.09,-0.09,0.82,-0.34,25.1,-0.8,-5.0,-5.2,0.02,0.02,0.0,0.8922443611477743,3.311600821355134,0.10007463071081657,0.35,0,5,0.0
5.767362975999276,371,151.57,99.5,8.6,-21.3,4.58,0.95,1.1,-0.13,0.92,-0.34,25.1,0.1,2.0,-5.2,0.0,0.07,0.0,0.9893937537704592,4.805091050125898,0.0028667333263689976,0.35,0,5,0.0
5.777553834999708,372,151.58,100.0,8.7,-21.3,5.29,0.31,0.69,-0.11,1.07,-0.32,25.1,-0.4,-5.0,-5.2,0.03,-0.01,0.0,1.1222299229658779,5.343809502592697,0.12737004715166866,0.35,0,5,0.0
5.787058667998281,373,151.59,100.5,8.7,-21.3,4.29,-0.52,-0.12,-0.09,1.19,-0.31,25.0,-0.1,2.0,-5.2,0.0,0.02,0.0,1.2330044606569759,4.323066041595941,0.2333816931459114,0.35,0,5,0.0
5.797427928999241,374,151.6,100.8,8.6,-21.2,2.09,-1.08,-1.2,-0.05,1.25,-0.33,25.0,-0.3,-2.0,-5.2,0.01,-0.01,0.0,1.293792873685738,2.640927867246661,0.28828670405118006,0.35,0,5,0.0
5.806942639999761,375,151.61,101.0,8.4,-21.1,0.4,-1.95,-2.17,0.02,1.24,-0.24,25.0,-0.5,0.0,-5.2,0.02,0.02,0.0,1.2631706139710503,2.9447240957346072,0.25251115544976255,0.35,0,5,0.0
5.81734047199825,376,151.62,101.0,8.1,-20.9,-0.37,-2.63,-2.87,0.13,1.21,-0.21,25.0,0.0,3.0,-5.2,0.0,0.02,0.0,1.2349493916756265,3.9103324666836192,0.2198041344912518,0.35,0,5,0.0
5.827260365998882,377,151.63,101.0,7.7,-20.7,-0.29,-3.0,-3.34,0.23,1.18,-0.21,25.0,0.0,0.0,-5.2,0.0,-0.06,0.0,1.220409767250328,4.498855409990412,0.20115921986463436,0.35,0,5,0.0
5.837319265998303,378,151.64,101.0,7.3,-20.5,0.31,-2.73,-3.99,0.22,1.19,-0.2,25.0,0.1,0.0,-5.2,0.0,-0.11,0.0,1.2265806129235861,4.844491717404417,0.20318346422713462,0.35,0,5,0.0
5.847302084999683,379,151.65,101.1,6.9,-20.3,1.04,-2.33,-4.9,0.24,1.28,-0.22,25.0,0.1,1.0,-5.2,0.0,0.07,0.0,1.3207573584879246,5.524536179626304,0.29141300559564365,0.35,0,5,0.0
5.857418263,380,151.66,101.2,6.4,-20.2,1.37,-1.42,-5.48,0.3,1.44,-0.2,25.0,-0.1,-3.0,-5.2,0.01,-0.06,0.0,1.4844527611210805,5.824405549066789,0.4460062400642235,0.35,0,6,0.0
5.867068560999542,381,151.67,101.3,5.8,-20.2,0.26,-0.65,-4.94,0.23,1.52,-0.09,25.0,0.0,1.0,-5.2,0.0,-0.02,0.0,1.5399350635659934,4.989358676222827,0.4914587716589538,0.35,0,6,0.0
5.877236672999061,382,151.68,101.3,5.4,-20.3,-0.61,-0.52,-3.67,0.03,1.4,0.03,25.0,-0.3,-2.0,-5.2,0.01,0.02,0.0,1.400642709615839,3.7565143417801563,0.3451230893546233,0.35,0,6,0.0
5.887485266999647,383,151.69,101.2,5.1,-20.3,-0.72,-0.92,-2.23,-0.19,1.26,0.1,25.0,-0.9,-5.0,-5.2,0.03,0.02,0.0,1.2781627439414749,2.5174788976275453,0.2181902612066542,0.35,0,6,0.0
5.897426080999139,384,151.7,101.1,4.9,-20.2,-0.11,-1.76,-1.07,-0.36,1.1,0.15,25.0,-3.7,-25.0,-5.2,0.14,0.07,0.0,1.1670903992407786,2.062668174961741,0.1049755581758387,0.35,0,6,0.0
5.90701738199823,385,151.71,101.2,4.8,-19.9,0.56,-3.18,-0.37,-0.36,1.08,0.24,24.9,-9.0,-52.0,-5.2,0.33,0.05,0.0,1.1634431657799191,3.250061537878937,0.09930175822067966,0.35,0,6,0.0
5.917306571998779,386,151.72,101.3,4.7,-19.5,0.06,-4.59,0.21,-0.22,1.15,0.27,24.8,-17.3,-72.0,-5.19,0.57,0.09,0.0,1.2015822901491182,4.595193140663404,0.13469206493808117,0.35,0,6,0.0
5.927385889999641,387,151.73,101.2,4.7,-19.0,-1.43,-5.61,0.47,-0.08,1.16,0.2,24.5,-30.5,-140.0,-5.18,1.07,-0.24,0.0,1.17983049630021,5.808433523765251,0.11068146566738957,0.35,0,6,0.0
5.937403165999058,388,151.74,101.1,4.6,-18.4,-2.96,-6.01,0.25,0.06,1.08,0.14,24.0,-59.0,-314.0,-5.16,2.23,0.2,0.0,1.0906878563548785,6.704043555944427,0.021108049207616997,0.35,0,6,0.0
5.94700211899908,389,151.75,100.8,4.5,-17.8,-3.88,-6.23,-0.18,0.19,0.97,0.11,23.0,-122.5,-540.0,-5.13,4.03,0.12,0.0,0.9945350672550466,7.341641505821434,0.07354384509437062,0.35,0,6,0.0
5.957517013999677,390,151.76,100.4,4.3,-17.2,-4.35,-6.04,-0.7,0.25,0.87,0.01,21.6,-139.6,-52.0,-5.09,3.3,-0.03,0.0,0.9052623929005336,7.4762356838184285,0.159560189059906,0.35,0,6,0.0
5.967047323998486,391,151.77,100.0,4.1,-16.7,-4.71,-5.15,-0.93,0.2,0.85,-0.08,20.5,-93.2,309.0,-5.07,1.91,-0.22,0.0,0.8768694315575153,7.040703089890952,0.18419408739486587,0.35,0,6,0.0
5.977318824998292,392,151.78,99.5,4.0,-16.3,-4.84,-4.17,-0.7,0.14,0.81,-0.06,19.9,-42.4,448.0,-5.06,0.49,-0.15,0.0,0.8241965784932622,6.426857708087211,0.23212960164993646,0.35,0,6,0.0
5.9872858579983586,393,151.79,99.1,3.8,-15.9,-3.37,-3.79,-0.54,0.14,0.75,0.01,19.9,5.1,421.0,-5.06,-0.57,-0.17,0.0,0.7630203142774116,5.100254895591004,0.2874397485484713,0.35,0,6,0.0
5.9974840999984735,394,151.8,98.9,3.7,-15.5,-1.57,-3.77,-0.39,0.18,0.78,-0.03,20.1,35.8,303.0,-5.07,-1.2,-0.12,0.0,0.8010617953691214,4.102426111461363,0.24441030210762638,0.35,0,6,0.0
6.0068363239988685,395,151.81,98.8,3.6,-15.2,-0.61,-3.35,-0.36,0.21,0.89,-0.13,20.5,29.8,-140.0,-5.08,-0.05,0.5,0.0,0.9236341266973628,3.4240619153280507,0.11940121136379733,0.35,0,6,0.0
6.0170973719996255,396,151.82,98.8,3.6,-14.9,-0.73,-2.5,-0.25,0.2,0.97,-0.15,20.4,-32.2,-409.0,-5.07,1.42,0.08,0.0,1.0016985574512924,2.616371533249817,0.0405100449976703,0.35,0,6,0.0
6.027436633999969,397,151.83,98.7,3.5,-14.7,-1.42,-1.92,0.03,0.17,1.0,-0.1,19.8,-68.8,-331.0,-5.05,2.18,0.0,0.0,1.0192644406629714,2.388242031285774,0.022485278550271603,0.35,0,6,0.0
6.037516984999456,398,151.84,98.6,3.5,-14.5,-1.47,-1.69,0.32,0.18,0.99,-0.09,19.0,-86.9,-173.0,-5.02,2.38,-0.01,0.0,1.010247494428964,2.2626091133909982,0.030872180288593398,0.35,0,6,0.0
6.046921795999879,399,151.85,98.4,3.6,-14.3,-1.39,-1.39,0.52,0.16,0.94,-0.13,18.1,-76.2,85.0,-5.0,1.72,-0.23,0.0,0.9623408959407264,2.033371584339665,0.07720320320129448,0.35,0,6,0.0
6.057502282999849,400,151.86,98.3,3.7,-14.2,-1.3,-1.02,0.75,0.13,0.95,-0.12,17.6,-43.6,257.0,-4.99,0.75,-0.09,0.0,0.9663332758422427,1.81463494951464,0.07174660683378264,0.35,0,6,0.0
6.066897394999614,401,151.87,98.2,3.8,-14.1,-1.24,-0.85,0.88,0.1,0.93,-0.09,17.4,-14.3,247.0,-4.99,0.13,0.21,0.0,0.9396807968666807,1.7419816302131317,0.0964311040931578,0.35,0,6,0.0
6.077449540998714,402,151.88,98.0,3.9,-14.0,-1.16,-0.94,0.94,0.1,0.92,-0.09,17.3,-1.2,116.0,-4.99,0.04,-0.1,0.0,0.9297849213662265,1.7643128974192757,0.10420044000173989,0.35,0,6,0.0
6.087009114999091,403,151.89,97.9,4.0,-13.9,-1.39,-0.91,0.92,0.12,0.92,-0.14,17.3,-5.7,-3.0,-4.99,0.23,0.01,0.0,0.938296328459192,1.899105052386518,0.0937752522505989,0.35,0,6,0.0
6.095088373998806,404,151.9,97.8,4.1,-13.8,-1.64,-0.84,0.87,0.12,0.91,-0.14,17.2,-12.2,-30.0,-4.99,0.35,-0.02,0.0,0.9284934033152847,2.037670238286853,0.10150661384661608,0.35,0,6,0.0
6.107501714999671,405,151.91,97.6,4.2,-13.7,-1.68,-0.82,0.84,0.13,0.91,-0.16,17.1,-12.0,-2.0,-4.98,0.32,-0.17,0.0,0.9330594836343501,2.0494877408757532,0.09500172285699982,0.35,0,6,0.0
6.1175791429996025,406,151.92,97.5,4.3,-13.6,-1.58,-0.75,0.93,0.12,0.91,-0.17,16.9,-13.6,-14.0,-4.98,0.38,-0.04,0.0,0.9334880824091971,1.9808583997853053,0.09268166160050972,0.35,0,6,0.0
6.12690332299826,407,151.93,97.4,4.4,-13.5,-1.37,-0.65,1.02,0.11,0.9,-0.19,16.8,-15.4,-24.0,-4.97,0.46,0.07,0.0,0.926390846241477,1.8275119698650404,0.09778331981286514,0.35,0,6,0.0
6.13753527299923,408,151.94,97.3,4.6,-13.4,-1.12,-0.58,1.12,0.11,0.89,-0.19,16.6,-15.9,1.0,-4.97,0.41,0.0,0.0,0.9166787877986488,1.6867720652180602,0.10534547069057953,0.35,0,6,0.0
6.147044665998692,409,151.95,97.3,4.7,-13.4,-0.94,-0.48,1.19,0.11,0.9,-0.21,16.5,-16.6,-8.0,-4.97,0.45,-0.12,0.0,0.9306986622962343,1.590628806478746,0.08949908426913411,0.35,0,6,0.0
6.157382606999818,410,151.96,97.2,4.8,-13.3,-0.9,-0.33,1.24,0.12,0.89,-0.23,16.3,-19.1,-12.0,-4.96,0.5,0.0,0.0,0.9270382947861431,1.567322557739791,0.09129626274364089,0.35,0,6,0.0
6.166828461999103,411,151.97,97.1,4.9,-13.3,-1.02,-0.14,1.25,0.12,0.89,-0.24,16.1,-16.8,16.0,-4.96,0.41,0.01,0.0,0.929569792968769,1.6194134740701647,0.08698946926979478,0.35,0,6,0.0
6.177361917998496,412,151.98,97.0,5.0,-13.3,-1.22,0.04,1.2,0.12,0.87,-0.25,16.0,-13.4,16.0,-4.95,0.38,-0.01,0.0,0.9131264972609217,1.7117242768623688,0.10136410967808929,0.35,0,6,0.0
6.187034793998464,413,151.99,96.8,5.2,-13.3,-1.33,0.19,1.04,0.13,0.85,-0.25,15.8,-15.2,-3.0,-4.95,0.41,-0.1,0.0,0.8954886933959579,1.6989997057092154,0.11662187527219203,0.35,0,6,0.0
6.197303660999751,414,152.0,96.7,5.2,-13.3,-1.49,0.28,0.77,0.15,0.81,-0.26,15.7,-15.3,-3.0,-4.94,0.41,0.19,0.0,0.8638286867197685,1.7004117148502593,0.1453162443094137,0.35,0,6,0.0
6.2073832739988575,415,152.01,96.5,5.3,-13.3,-1.95,0.5,0.34,0.18,0.77,-0.31,15.5,-16.4,-21.0,-4.94,0.52,0.06,0.0,0.8493526947034429,2.0415925156602626,0.15659639159922456,0.35,0,6,0.0
6.217560255998251,416,152.02,96.3,5.3,-13.4,-2.52,0.97,-0.19,0.21,0.72,-0.35,15.3,-22.0,-49.0,-4.93,0.68,0.08,0.0,0.8276472678623424,2.7069170655932555,0.1747357820715184,0.35,0,6,0.0
6.2268084439983795,417,152.03,96.0,5.3,-13.5,-2.82,1.59,-0.68,0.24,0.69,-0.36,15.0,-32.6,-137.0,-4.92,1.21,0.1,0.0,0.8144323176298937,3.308005441349817,0.1841917176578879,0.35,0,6,0.0
6.237415667999812,418,152.04,95.7,5.2,-13.7,-2.5,2.14,-0.94,0.27,0.7,-0.32,14.5,-67.6,-356.0,-4.9,2.54,0.53,0.0,0.8156592425762121,3.4224552590209267,0.179305496857338,0.35,0,6,0.0
6.2469898569997895,419,152.05,95.5,5.2,-14.0,-1.61,2.54,-0.86,0.28,0.72,-0.26,13.3,-144.5,-714.0,-4.86,5.08,0.22,0.0,0.8151073548925932,3.1278267215432507,0.1762602368501378,0.35,0,6,0.0
6.257473536999896,420,152.06,95.4,5.1,-14.2,-0.24,2.77,-0.61,0.23,0.73,-0.23,11.2,-237.9,-844.0,-4.79,7.56,0.24,0.0,0.7991870869827664,2.8465066309425664,0.18833689466476533,0.35,0,6,0.0
6.267038573998434,421,152.07,95.4,5.1,-14.5,1.01,2.82,-0.4,0.14,0.74,-0.21,8.2,-321.5,-796.0,-4.7,9.64,0.3,0.0,0.7818567643756751,3.022002647252315,0.20155387292641957,0.35,0,6,0.0
6.277415834998465,422,152.08,95.5,5.1,-14.8,1.77,2.88,-0.24,0.07,0.74,-0.24,4.5,-393.4,-739.0,-4.59,11.55,0.23,0.0,0.7810889834071404,3.388937886713181,0.19827522081705518,0.35,0,6,0.0
6.286984036998547,423,152.09,95.7,5.1,-15.1,2.35,2.88,-0.15,0.01,0.75,-0.23,0.1,-457.2,-651.0,-4.46,13.18,0.47,0.0,0.7845380806563821,3.720134406174057,0.19092960109645718,0.35,0,6,0.0
6.29751280399978,424,152.1,96.0,5.1,-15.4,3.06,2.6,-0.15,-0.03,0.77,-0.23,-4.9,-524.6,-672.0,-4.32,15.0,0.09,0.0,0.8041765975207187,4.018220999397619,0.16786526254747813,0.35,0,6,0.0
6.306931904999146,425,152.11,96.3,5.1,-15.6,3.96,2.17,-0.17,-0.02,0.87,-0.21,-10.6,-581.5,-562.0,-4.16,16.38,0.11,0.0,0.8952094726934027,4.518783022009355,0.0752957396272983,0.35,0,6,0.0
6.3174529149982845,426,152.12,96.7,5.1,-15.8,4.44,1.77,0.07,-0.06,0.99,-0.16,-16.9,-619.9,-332.0,-3.97,16.92,0.0,0.0,1.0046392387319938,4.780313797231307,0.033451345883066974,0.35,0,6,0.0
6.326907502998438,427,152.13,97.1,5.2,-15.9,4.23,0.88,0.33,-0.04,1.08,-0.08,-23.1,-629.4,-205.0,-3.82,17.31,-0.09,0.0,1.0836973747315253,4.333151278226968,0.11025929224494646,0.35,0,6,0.0
6.337412199998653,428,152.14,97.5,5.2,-16.0,3.22,-0.06,0.49,-0.01,1.14,-0.18,-29.4,-632.8,-55.0,-3.65,17.2,-0.06,0.0,1.1541663658242687,3.2576218319504187,0.1771137176709361,0.35,0,6,0.0
6.34694909099926,429,152.15,97.7,5.2,-15.9,1.62,-0.25,0.35,-0.04,1.06,-0.39,-35.7,-629.3,67.0,-3.48,16.84,0.01,0.0,1.13017697729161,1.676126486873828,0.1500618425555118,0.35,0,6,0.0
6.357490305999818,430,152.16,97.8,5.2,-15.9,0.58,0.02,-0.22,0.0,0.96,-0.48,-41.9,-603.3,208.0,-3.3,16.02,-0.14,0.0,1.0733126291998991,0.6206448259673161,0.09133354457452492,0.35,0,6,0.0
6.3668669819999195,431,152.17,97.9,5.2,-16.0,0.89,0.78,-0.73,0.08,1.04,-0.47,-47.8,-575.6,233.0,-3.16,15.39,0.09,0.0,1.144071676076285,1.3904675472660266,0.15885073962189256,0.35,0,6,0.0
6.377307845999894,432,152.18,98.0,5.1,-16.1,1.12,1.17,-0.77,0.12,1.11,-0.35,-53.4,-544.7,348.0,-3.01,14.27,0.01,0.0,1.1700427342623005,1.7933767033169579,0.18112536185174988,0.35,0,6,0.0
6.386965172998316,433,152.19,98.1,5.1,-16.2,1.41,1.31,-0.41,0.16,1.21,-0.31,-58.5,-494.5,407.0,-2.86,12.96,-0.07,0.0,1.2592855117089214,1.9678160483134597,0.26496077651240335,0.35,0,6,0.0
6.39749142599976,434,152.2,98.3,5.1,-16.3,1.47,1.13,0.22,0.12,1.19,-0.28,-63.1,-453.9,423.0,-2.75,11.81,-0.25,0.0,1.2283729075488437,1.8671368455472135,0.22936720890527906,0.35,0,6,0.0
6.407107456998347,435,152.21,98.5,5.2,-16.4,1.64,0.91,0.57,0.1,1.06,-0.35,-67.3,-405.6,442.0,-2.64,10.57,-0.23,0.0,1.1207586716149023,1.960255085441688,0.1193179135119109,0.35,0,6,0.0
6.417292834999898,436,152.22,98.7,5.2,-16.5,2.27,1.17,0.54,0.15,1.04,-0.38,-71.1,-363.2,455.0,-2.54,9.24,0.02,0.0,1.1173629669896887,2.6102490302651202,0.11360376470896338,0.35,0,6,0.0
6.426423314998829,437,152.23,98.9,5.3,-16.7,2.93,1.67,0.85,0.17,1.22,-0.25,-74.4,-314.1,462.0,-2.46,8.01,-0.09,0.0,1.25690095075149,3.4779735479155103,0.24807891350134947,0.35,0,6,0.0
6.437401442999544,438,152.24,99.2,5.5,-16.8,3.77,1.87,1.61,0.11,1.47,-0.09,-77.3,-265.5,483.0,-2.38,6.61,-0.19,0.0,1.4768547660484426,4.505762976455819,0.4586720742223358,0.35,1,7,1.5
6.446835309998278,439,152.25,99.6,5.7,-17.0,4.35,1.8,2.71,0.04,1.74,-0.01,-79.6,-219.3,468.0,-2.33,5.37,-0.11,0.0,1.7404884371922729,5.431997790868476,0.7078596304588427,0.35,0,7,1.5
6.455104819999178,440,152.26,100.0,6.1,-17.1,3.71,1.52,3.88,0.0,1.86,0.0,-81.5,-162.8,669.0,-2.29,3.19,1.06,1.77,1.86,5.579327916514677,0.8108237694012386,0.35,0,7,1.5
6.4673218819989415,441,152.27,100.3,6.6,-17.1,1.83,1.16,4.46,-0.06,1.73,-0.01,-82.3,-39.7,1153.0,-2.28,-0.7,1.2,1.77,1.7310690338631791,4.9584372538129395,0.6682549471991293,0.35,0,7,1.5
6.477218249998259,442,152.28,100.3,7.0,-17.1,-0.54,0.86,4.34,0.0,1.44,0.0,-81.7,96.9,1230.0,-2.31,-4.11,1.12,1.77,1.44,4.457218863820802,0.369642195069231,0.35,0,7,1.5
6.487487606998911,443,152.29,100.2,7.4,-17.2,-1.85,0.92,3.56,0.24,1.1,-0.02,-79.9,218.5,1220.0,-2.38,-7.43,1.26,1.77,1.1260550608207398,4.116126820203673,0.05458331077217138,0.35,0,7,1.5
6.497307074998389,444,152.3,100.0,7.7,-17.2,-1.44,1.59,2.73,0.44,0.88,-0.07,-76.9,341.1,1221.0,-2.47,-10.74,1.39,1.77,0.9863569333664158,3.471973502203034,0.08341252034850954,0.35,0,7,1.5
6.507211751999421,445,152.31,99.9,8.0,-17.4,-0.48,2.58,1.93,0.49,0.77,-0.05,-72.6,465.2,1265.0,-2.6,-14.28,1.46,1.77,0.9140568910084317,3.2575604368913864,0.1525983114523639,0.35,0,7,1.5
6.515143786999033,446,152.32,99.9,8.2,-17.7,0.8,3.65,1.04,0.51,0.75,0.0,-67.1,587.5,1189.0,-2.77,-17.35,1.46,1.77,0.9069729874698584,3.8786724533015158,0.15648857069111832,0.35,0,7,1.5
6.527381638999941,447,152.33,100.0,8.3,-18.1,1.89,4.58,0.37,0.47,0.8,0.03,-60.4,708.7,1201.0,-2.97,-20.62,1.37,1.77,0.9283318372220141,4.968440399159479,0.1324271265201834,0.35,0,7,1.5
6.537413266998556,448,152.34,100.1,8.4,-18.6,1.9,5.26,0.07,0.36,0.87,0.0,-52.5,825.0,1245.0,-3.2,-24.07,1.31,1.77,0.941541289588513,5.593076076722003,0.11683332067061081,0.35,0,7,1.5
6.547265316999983,449,152.35,100.2,8.5,-19.1,1.29,5.79,0.06,0.26,0.9,0.01,-43.5,934.2,1042.0,-3.45,-26.5,1.56,1.77,0.9368564457802486,5.932267694566724,0.11908780118929774,0.35,0,7,1.5
6.55748298799881,450,152.36,100.2,8.7,-19.7,0.69,5.86,0.16,0.16,0.91,0.08,-33.5,1022.4,844.0,-3.73,-28.42,0.43,1.77,0.9274157643689264,5.902651946371225,0.1259579129486076,0.35,0,7,1.5
6.566969633999179,451,152.37,100.1,8.8,-20.3,0.52,5.53,0.28,0.07,0.94,0.09,-23.0,1048.8,281.0,-4.02,-28.28,0.06,1.77,0.9468896451012652,5.561447653264391,0.1043543515719434,0.35,0,7,1.5
6.57748913299838,452,152.38,100.1,8.9,-20.8,0.37,5.05,0.33,0.0,0.95,0.1,-12.6,1044.6,128.0,-4.3,-28.5,0.44,1.77,0.95524865872714,5.074278273804069,0.09407543118714723,0.35,0,7,1.5
6.586923757999102,453,152.39,100.1,9.0,-21.3,0.0,4.37,0.16,-0.04,0.93,0.1,-2.1,1050.8,51.0,-4.59,-28.53,0.4,1.77,0.9362157870918436,4.372928080817246,0.11084613676599486,0.35,0,7,1.5
6.59727877199839,454,152.4,100.0,9.1,-21.7,-0.42,3.79,-0.12,-0.06,0.92,0.06,7.8,993.7,-644.0,-4.83,-25.61,0.2,0.0,0.9239047569960879,3.815088465553584,0.12069402352451553,0.35,0,7,1.5
6.607599275999746,455,152.41,99.9,9.1,-22.0,-0.58,3.32,-0.39,-0.1,0.91,0.06,16.6,878.6,-1033.0,-5.09,-22.06,0.91,0.0,0.917442096265481,3.392771728248159,0.12461355057001988,0.35,0,7,1.5
6.6151295809995645,456,152.42,99.8,9.1,-22.3,-0.47,2.63,-0.68,-0.09,0.89,0.04,24.3,687.6,-2036.0,-5.26,-14.74,1.52,0.0,0.8954328562209453,2.7568460239919093,0.14369033480226445,0.35,0,7,1.5
6.62735795899971,457,152.43,99.7,9.1,-22.6,-0.02,2.07,-0.89,-0.02,0.84,0.03,28.9,350.7,-2659.0,-5.33,-6.84,0.11,0.0,0.8407734534343957,2.2533086783661043,0.19438274283703783,0.35,0,7,0.0
6.6373471209990385,458,152.44,99.7,9.0,-22.8,0.72,1.61,-1.2,0.0,0.83,0.01,31.0,174.2,-1866.0,-5.38,-2.82,0.61,0.0,0.8300602387778853,2.133190099358236,0.20099403834367724,0.35,0,7,0.0
6.647417679998398,459,152.45,99.7,8.9,-22.9,0.01,1.28,-1.0,0.01,0.91,-0.04,31.8,34.7,-1490.0,-5.38,0.41,0.29,0.0,0.9109335870413386,1.6243460222501855,0.1177182762786193,0.35,0,7,0.0
6.657382338999014,460,152.46,99.7,8.8,-23.1,0.12,1.32,-0.88,0.0,0.85,-0.05,31.5,-42.4,-760.0,-5.37,1.31,-0.18,0.0,0.85146931829632,1.5909745441081073,0.17363889412316524,0.35,0,7,0.0
6.66732235299969,461,152.47,99.7,8.8,-23.2,0.21,1.16,-0.67,-0.04,0.88,-0.05,31.1,-40.9,-186.0,-5.36,0.93,0.01,0.0,0.8823264701911645,1.355949851580065,0.13992610738375422,0.35,0,7,0.0
6.675086082999769,462,152.48,99.7,8.7,-23.3,0.29,0.9,-0.5,-0.05,0.87,-0.08,30.8,-20.6,67.0,-5.36,0.35,-0.07,0.0,0.8750999942863672,1.0696261028976433,0.14420953162278038,0.35,0,7,0.0
6.687376094998399,463,152.49,99.7,8.7,-23.4,0.58,0.67,-0.42,-0.06,0.9,-0.08,30.7,-1.2,138.0,-5.36,-0.12,-0.11,0.0,0.9055385138137417,0.9806630410084802,0.11149559185349767,0.35,0,7,0.0
6.697345802998825,464,152.5,99.8,8.7,-23.5,0.55,0.33,-0.41,-0.06,0.93,-0.11,30.8,2.6,22.0,-5.36,0.01,0.11,0.0,0.9384028985462481,0.7612489737267303,0.07705858297857138,0.35,0,7,0.0
6.707179784998516,465,152.51,99.8,8.6,-23.5,0.19,0.06,-0.38,-0.05,0.95,-0.13,30.7,-2.0,6.0,-5.36,0.01,0.06,0.0,0.9601562372864116,0.42906875905849867,0.054199139353639625,0.35,0,7,0.0
6.717425885999546,466,152.52,99.8,8.6,-23.5,-0.22,-0.17,-0.45,-0.03,0.92,-0.16,30.7,1.0,6.0,-5.36,0.0,-0.07,0.0,0.9342911751697112,0.5289612462175278,0.07846291744093326,0.35,0,7,0.0
6.727411272999234,467,152.53,99.8,8.6,-23.5,-0.3,-0.36,-0.57,0.0,0.89,-0.19,30.7,-0.8,0.0,-5.36,0.0,0.24,0.0,0.9100549433962765,0.7379024325749306,0.10064516623008057,0.35,0,7,0.0
6.737339482999232,468,152.54,99.7,8.5,-23.4,-0.13,-0.48,-0.67,0.02,0.87,-0.22,30.7,0.4,0.0,-5.36,0.0,-0.12,0.0,0.8976079322287654,0.8343860018001261,0.1108303338496398,0.35,0,7,0.0
6.7474461999991036,469,152.55,99.8,8.4,-23.4,0.09,-0.52,-0.7,0.05,0.86,-0.25,30.7,-0.2,0.0,-5.36,0.0,-0.03,0.0,0.8969949832635631,0.8766413177577247,0.10921441715854541,0.35,0,7,0.0
6.757418382998367,470,152.56,99.8,8.3,-23.4,0.28,-0.5,-0.71,0.07,0.85,-0.27,30.7,0.1,4.0,-5.36,-0.01,-0.17,0.0,0.8945948803788226,0.9124143795447329,0.10938222964242006,0.35,0,7,0.0
6.767441616999349,471,152.57,99.8,8.2,-23.3,0.5,-0.44,-0.68,0.09,0.86,-0.3,30.7,0.0,-7.0,-5.36,0.02,0.1,0.0,0.9152595260361948,0.9518403227432636,0.08694323230534706,0.35,0,7,0.0
6.777482826999403,472,152.58,99.9,8.2,-23.3,0.68,-0.29,-0.63,0.09,0.87,-0.33,30.7,-0.1,4.0,-5.36,-0.01,0.19,0.0,0.9348261870529729,0.9712878049270464,0.06602903986279751,0.35,0,7,0.0
6.787080187999891,473,152.59,100.0,8.1,-23.3,0.87,-0.14,-0.58,0.06,0.9,-0.35,30.7,0.1,-5.0,-5.36,0.01,0.1,0.0,0.9675226095549395,1.0549407566304376,0.032665965013614406,0.35,0,7,0.0
6.7950723669982835,474,152.6,100.1,8.1,-23.3,0.75,0.01,-0.43,0.06,0.94,-0.34,30.7,0.1,4.0,-5.36,-0.01,0.05,0.0,1.0013990213696036,0.8645808232895291,0.0011862378650286942,0.35,0,7,0.0
6.807305088999783,475,152.61,100.1,8.0,-23.3,-0.05,0.09,-0.11,0.04,0.96,-0.32,30.7,0.1,2.0,-5.36,0.0,-0.08,0.0,1.012719112093773,0.15066519173319362,0.012256202017414175,0.35,0,7,0.0
6.815072570998382,476,152.62,100.0,8.0,-23.3,-0.96,0.11,0.33,0.0,0.94,-0.31,30.7,-0.4,0.0,-5.36,0.0,0.05,0.0,0.9897979591815695,1.021077861869505,0.010451651876893564,0.35,0,7,0.0
6.827399254998454,477,152.63,99.9,8.1,-23.3,-1.47,0.03,0.79,-0.05,0.88,-0.29,30.7,0.0,0.0,-5.36,0.0,0.0,0.0,0.9279008567729636,1.66910155472937,0.07090177919978946,0.35,0,7,0.0
6.835120696998274,478,152.64,99.8,8.2,-23.3,-1.58,-0.12,1.19,-0.13,0.84,-0.26,30.7,-3.0,-42.0,-5.35,0.19,0.09,0.0,0.8888756943465155,1.9816407343411169,0.10772840279371287,0.35,0,7,0.0
6.8473110549984995,479,152.65,99.6,8.3,-23.2,-1.66,-0.47,1.64,-0.21,0.81,-0.23,30.6,-15.5,-121.0,-5.35,0.66,0.09,0.0,0.8678133439859058,2.3803571160647303,0.12621493809123607,0.35,0,7,0.0
6.85514141099884,480,152.66,99.5,8.5,-23.1,-1.01,-0.97,1.81,-0.22,0.75,-0.21,30.3,-34.7,-181.0,-5.34,1.23,-0.11,0.0,0.8093207028119322,2.288471105345226,0.18101342767990547,0.35,0,7,0.0
6.867291947999547,481,152.67,99.5,8.7,-23.0,0.32,-1.58,1.64,-0.21,0.79,-0.18,29.8,-57.1,-188.0,-5.32,1.73,0.06,0.0,0.8370185183136631,2.2996521476084157,0.1502492999346111,0.35,0,7,0.0
6.875102002999483,482,152.68,99.6,8.8,-22.8,1.23,-2.22,1.3,-0.14,0.85,-0.19,29.2,-61.2,-22.0,-5.31,1.5,0.0,0.0,0.8821564487096378,2.8515434417171344,0.10300914214786372,0.35,0,7,0.0
6.887267336998775,483,152.69,99.8,8.8,-22.5,1.21,-2.48,0.91,-0.07,0.95,-0.24,28.7,-38.5,182.0,-5.3,0.67,-0.14,0.0,0.982344135219425,2.905615253263928,0.002765026525315073,0.35,0,7,0.0
6.8951422039990575,484,152.7,99.9,8.9,-22.2,0.1,-2.54,0.57,0.03,1.03,-0.25,28.5,-11.9,210.0,-5.29,0.08,-0.23,0.0,1.0603301372685772,2.605091169229975,0.07371655601336036,0.35,0,7,0.0
6.9075892489981925,485,152.71,99.9,8.9,-22.0,-1.27,-2.33,0.35,0.17,1.04,-0.29,28.5,2.3,121.0,-5.3,-0.09,0.33,0.0,1.092977584399607,2.676621004176721,0.10423672308150245,0.35,0,7,0.0
6.915137518999472,486,152.72,99.7,8.8,-21.8,-2.16,-1.67,0.12,0.31,0.99,-0.33,28.5,0.3,7.0,-5.3,0.06,-0.08,0.0,1.088622983406101,2.732928831857866,0.09788447964623648,0.35,0,7,0.0
6.927344692998304,487,152.73,99.5,8.8,-21.6,-2.36,-0.85,-0.02,0.37,0.92,-0.36,28.5,-2.2,13.0,-5.3,0.0,-0.03,0.0,1.0549407566304376,2.5084855989221864,0.06291820781316171,0.35,0,7,0.0
6.935013052998329,488,152.74,99.3,8.8,-21.6,-2.19,0.04,0.08,0.35,0.84,-0.4,28.5,2.7,19.0,-5.3,-0.06,0.05,0.0,0.9940321926376429,2.1918257229989795,0.0019694509439596164,0.35,0,7,0.0
6.947278307998204,489,152.75,99.1,8.9,-21.7,-1.36,0.71,0.3,0.23,0.76,-0.37,28.5,-0.6,-19.0,-5.3,0.04,-0.08,0.0,0.8760136985230311,1.56323382767902,0.11372806230723909,0.35,0,7,0.0
6.957190703999004,490,152.76,99.1,8.9,-21.7,0.61,0.81,0.46,0.1,0.75,-0.35,28.5,-1.0,8.0,-5.3,-0.01,0.04,0.0,0.8336666000266533,1.1134630662936242,0.15295365758754464,0.35,0,7,0.0
6.967479435999849,491,152.77,99.2,9.0,-21.8,2.63,0.61,0.47,0.03,0.84,-0.37,28.5,1.0,3.0,-5.3,0.0,-0.04,0.0,0.9183681179135086,2.7404196758890778,0.06688709690667549,0.35,0,7,0.0
6.977283616999557,492,152.78,99.6,9.0,-21.8,4.21,0.33,0.2,-0.02,0.96,-0.35,28.5,-1.0,-8.0,-5.3,0.03,0.13,0.0,1.0220078277586724,4.227647099747092,0.03601756067971851,0.35,0,7,0.0
6.987236180999389,493,152.79,100.0,9.0,-21.8,5.03,-0.13,-0.49,-0.01,1.11,-0.32,28.5,0.8,11.0,-5.3,-0.03,0.0,0.0,1.1552488909321663,5.055482172849589,0.16587345137614817,0.35,0,7,0.0
6.9951108649984235,494,152.8,100.5,8.9,-21.8,4.19,-0.63,-1.53,0.03,1.28,-0.3,28.5,0.0,-8.0,-5.3,0.02,0.0,0.0,1.3150285168010616,4.504875137004355,0.3191400157001426,0.35,0,7,0.0
7.007304907998332,495,152.81,100.8,8.7,-21.8,2.35,-1.24,-2.66,0.07,1.34,-0.29,28.5,-0.7,2.0,-5.3,0.0,0.15,0.0,1.372807342637706,3.7597473319360173,0.36938046470605146,0.35,0,8,0.0
7.015115681999305,496,152.82,101.0,8.3,-21.7,0.74,-1.7,-3.61,0.12,1.35,-0.28,28.5,0.7,7.0,-5.3,-0.03,0.0,0.0,1.383943640470955,4.058287816308745,0.37290642728851453,0.35,0,8,0.0
7.027452540998638,497,152.83,101.0,7.8,-21.6,-0.21,-1.87,-4.02,0.17,1.35,-0.26,28.5,-0.6,-9.0,-5.3,0.03,0.0,0.0,1.3852797551397336,4.438625913500708,0.36675769111814716,0.35,0,8,0.0
7.037414003998492,498,152.84,101.0,7.4,-21.5,-0.24,-1.64,-4.16,0.16,1.31,-0.21,28.5,-0.1,7.0,-5.3,-0.02,0.24,0.0,1.3363382805263047,4.47803528346975,0.3114598921746239,0.35,0,8,0.0
7.0474386629994115,499,152.85,101.0,6.9,-21.4,0.72,-1.25,-4.46,0.14,1.33,-0.21,28.5,0.7,0.0,-5.3,0.0,0.0,0.0,1.3537355724069602,4.687483333303704,0.3222800403741739,0.35,0,8,0.0
7.0551064779992885,500,152.86,101.1,6.5,-21.4,1.78,-0.49,-4.48,0.14,1.45,-0.15,28.5,-0.5,1.0,-5.3,-0.01,0.0,0.0,1.464445287472359,4.84550306985766,0.4243299603307813,0.35,0,8,0.0
7.067307468998479,501,152.87,101.3,6.0,-21.5,1.3,-0.05,-3.84,0.06,1.55,-0.01,28.5,0.1,4.0,-5.3,-0.01,0.04,0.0,1.551193089205854,4.054392679551402,0.5008562068229909,0.35,0,8,0.0
7.075062632999106,502,152.88,101.3,5.7,-21.5,0.23,-0.39,-2.8,-0.09,1.44,0.06,28.5,0.0,-7.0,-5.3,0.02,0.24,0.0,1.444056785587049,2.8363709207365666,0.3858455051401022,0.35,0,8,0.0
7.08738891899884,503,152.89,101.3,5.5,-21.5,-0.16,-1.17,-1.9,-0.21,1.28,0.05,28.5,-0.2,5.0,-5.3,-0.02,-0.01,0.0,1.298075498574717,2.2370739817896057,0.2350669337652147,0.35,0,8,0.0
7.097313759999452,504,152.9,101.3,5.3,-21.4,-0.24,-2.17,-1.27,-0.23,1.17,0.13,28.5,-1.7,-26.0,-5.29,0.1,0.06,0.0,1.1994582110269618,2.525747414133092,0.13372065329311034,0.35,0,8,0.0
7.1071643229988695,505,152.91,101.3,5.1,-21.1,-0.46,-3.43,-0.81,-0.18,1.17,0.23,28.5,-5.8,-32.0,-5.29,0.2,0.0,0.0,1.205902151917808,3.5542369082547105,0.13736130230027732,0.35,0,8,0.0
7.11518236199845,506,152.92,101.2,5.0,-20.7,-1.75,-4.79,-0.54,-0.07,1.19,0.24,28.4,-8.5,-28.0,-5.29,0.27,0.0,0.0,1.2159769734661918,5.128177064025773,0.14448740137168792,0.35,0,8,0.0
7.127419567999823,507,152.93,101.0,4.8,-20.2,-3.42,-5.35,-0.51,0.01,1.12,0.16,28.3,-10.0,-14.0,-5.29,0.28,0.0,0.0,1.1314150432091665,6.370164833032187,0.05872696169236935,0.35,0,8,0.0
7.137428820999048,508,152.94,100.7,4.7,-19.7,-4.44,-5.43,-0.7,0.07,1.02,0.14,28.2,-11.5,-28.0,-5.28,0.38,0.05,0.0,1.0319399207318225,7.049007022269165,0.03993319756927516,0.35,0,8,0.0
7.147444773998359,509,152.95,100.2,4.5,-19.2,-4.76,-5.54,-0.8,0.11,0.91,0.1,28.1,-14.0,-1.0,-5.28,0.32,0.06,0.0,0.922062904578641,7.347734344680679,0.1468140094480075,0.35,0,8,0.0
7.157292695999786,510,152.96,99.8,4.3,-18.6,-4.5,-5.19,-0.79,0.13,0.83,0.0,27.9,-11.0,12.0,-5.28,0.28,0.0,0.0,0.840119039184329,6.914492027618515,0.22418271734547313,0.35,0,8,0.0
7.167129298999498,511,152.97,99.4,4.2,-18.2,-4.19,-4.38,-0.66,0.14,0.83,-0.04,27.8,-9.7,8.0,-5.28,0.27,-0.07,0.0,0.8426743143112884,6.097220678309093,0.21719489337414355,0.35,0,8,0.0
7.177407090999623,512,152.98,99.1,4.1,-17.8,-3.17,-3.77,-0.39,0.15,0.82,-0.03,27.7,-13.9,-42.0,-5.27,0.47,0.03,0.0,0.8341462701469089,4.941042400141898,0.22120847878775263,0.35,0,8,0.0
7.187489573998391,513,152.99,98.8,4.0,-17.4,-2.05,-3.37,-0.01,0.16,0.85,-0.05,27.5,-20.0,-48.0,-5.27,0.6,-0.17,0.0,0.8663717446916189,3.944553206638237,0.18520334415818185,0.35,0,8,0.0
7.197351625998635,514,153.0,98.7,4.0,-17.1,-1.62,-3.0,0.31,0.17,0.89,-0.08,27.4,-23.2,-66.0,-5.26,0.82,0.05,0.0,0.9096153033013462,3.4235215787256257,0.13912058983748554,0.35,0,8,0.0
7.207289000998571,515,153.01,98.5,4.0,-16.8,-1.58,-2.62,0.61,0.17,0.93,-0.07,26.9,-42.7,-190.0,-5.25,1.48,0.22,0.0,0.9479978902930112,3.119759606123523,0.0987232427889041,0.35,0,8,0.0
7.2174792289988545,516,153.02,98.4,4.0,-16.6,-1.53,-2.23,0.84,0.18,0.91,-0.09,26.1,-108.4,-676.0,-5.21,4.32,0.2,0.0,0.9319871243745806,2.8318545160371498,0.11243932853318783,0.35,0,8,0.0
7.22689993899985,517,153.03,98.3,4.1,-16.4,-1.08,-2.04,0.94,0.21,0.86,-0.08,24.4,-188.3,-528.0,-5.16,5.34,-0.15,0.0,0.8888756943465155,2.4923081671414553,0.15243974339002797,0.35,0,8,0.0
7.237532089999149,518,153.04,98.2,4.1,-16.2,-0.52,-1.78,1.07,0.16,0.87,-0.12,22.3,-222.7,-525.0,-5.1,6.75,-0.01,0.0,0.8926925562588723,2.1409577296154167,0.14565042384811777,0.35,0,8,0.0
7.247071051999228,519,153.05,98.2,4.3,-16.0,-0.22,-1.62,1.07,0.19,0.83,-0.1,19.9,-238.7,-126.0,-5.04,6.38,0.08,0.0,0.8573214099741123,1.9538935487891862,0.17740113873022023,0.35,0,8,0.0
7.257246068998938,520,153.06,98.2,4.4,-15.8,0.24,-1.34,1.27,0.13,0.83,-0.12,17.6,-225.3,137.0,-4.97,5.59,-0.16,0.0,0.848645980371085,1.861746491872618,0.18235503696658262,0.35,0,8,0.0
7.267017575999489,521,153.07,98.3,4.5,-15.7,0.66,-1.1,1.34,0.04,0.87,-0.17,15.7,-179.0,381.0,-4.93,4.2,-0.22,0.0,0.8873556220591607,1.855047169211608,0.1407724873729368,0.35,0,8,0.0
7.2776099589991645,522,153.08,98.4,4.6,-15.5,0.82,-1.32,1.33,0.03,0.89,-0.08,14.2,-125.7,481.0,-4.89,2.75,-0.12,0.0,0.8940917178902844,2.0454094944533723,0.13135566371097684,0.35,0,8,0.0
7.286912114999723,523,153.09,98.5,4.7,-15.4,1.01,-1.73,1.21,0.1,0.98,-0.12,13.3,-92.1,119.0,-4.87,3.07,0.24,0.0,0.9923708984044222,2.3403204908729913,0.03241495353290236,0.35,0,8,0.0
7.297608781998861,524,153.1,98.5,4.8,-15.2,0.15,-1.98,1.08,0.19,0.97,-0.2,11.9,-161.9,-506.0,-4.82,5.43,0.46,0.0,1.0084641788382966,2.260376074904351,0.015995239637047298,0.35,0,8,0.0
7.306921960998807,525,153.11,98.5,4.9,-15.0,-0.94,-1.34,1.23,0.13,0.94,-0.28,9.7,-240.7,-652.0,-4.75,7.39,0.19,0.0,0.9893937537704591,2.0474618433563054,0.0343643514107872,0.35,0,8,0.0
7.3175280219984415,526,153.12,98.4,5.0,-14.8,-1.14,-1.27,1.25,0.11,0.85,-0.18,6.9,-304.2,-594.0,-4.67,8.9,0.12,0.0,0.8757853618324526,2.115419580130618,0.14501328848181794,0.35,0,8,0.0
7.32686350899894,527,153.13,98.4,5.1,-14.7,-0.34,-1.42,1.29,0.1,0.79,-0.2,3.5,-355.8,-525.0,-4.57,10.23,-0.4,0.0,0.8210359310042407,1.948358283273382,0.19576746492382935,0.35,0,8,0.0
7.337360441999408,528,153.14,98.5,5.3,-14.5,0.48,-1.34,1.31,0.14,0.79,-0.28,-0.3,-395.2,-426.0,-4.46,11.23,0.21,0.0,0.849764673306675,1.9344508264621256,0.1636979481689671,0.35,0,8,0.0
7.346943315998942,529,153.15,98.6,5.4,-14.4,1.14,-1.01,1.3,0.15,0.8,-0.27,-4.1,-433.5,-429.0,-4.35,12.28,0.05,0.0,0.8575546629807339,2.0024235316236174,0.15278979932501013,0.35,0,8,0.0
7.3575837949993,530,153.16,98.7,5.5,-14.3,1.52,-0.88,1.16,0.16,0.82,-0.24,-8.7,-466.0,-324.0,-4.22,12.97,0.14,0.0,0.8692525524840291,2.104851538707659,0.1382700716252807,0.35,0,8,0.0
7.366988077999849,531,153.17,98.9,5.6,-14.2,1.64,-0.7,1.01,0.13,0.85,-0.27,-13.5,-489.8,-255.0,-4.09,13.56,0.21,0.0,0.9012768719988326,2.0493169593793925,0.10412083706826769,0.35,0,8,0.0
7.394762774998526,533,153.19,99.2,5.7,-14.0,1.0,-0.66,0.61,0.14,0.85,-0.29,-23.4,-494.7,-40.0,-3.82,13.47,-0.09,0.0,0.9089554444525869,1.3445073447177596,0.09451341932222301,0.35,0,8,0.0
7.403028608998284,534,153.2,99.2,5.7,-14.0,0.48,-0.66,0.31,0.15,0.81,-0.31,-28.3,-488.3,70.0,-3.69,13.1,0.0,0.0,0.8801704380402696,0.8729833904490967,0.12083245721984948,0.35,0,8,0.0
7.410973489999378,535,153.21,99.3,5.7,-13.9,-0.19,-0.47,-0.08,0.17,0.75,-0.35,-33.1,-479.1,73.0,-3.56,12.91,0.0,0.0,0.8449260322655469,0.5132250968142537,0.15295532573468085,0.35,0,8,0.0
7.41901112099913,536,153.22,99.2,5.7,-13.9,-0.72,-0.14,-0.52,0.19,0.69,-0.34,-37.8,-460.2,194.0,-3.43,12.16,0.01,0.0,0.7923383115816122,0.8991106717195609,0.20143218549024322,0.35,0,8,0.0
7.426925743999163,537,153.23,99.1,5.6,-13.9,-0.72,0.27,-1.0,0.23,0.67,-0.33,-42.2,-435.5,224.0,-3.32,11.52,-0.18,0.0,0.7814729681825213,1.2614673994994876,0.2080515783115474,0.35,0,8,0.0
7.437253055999463,538,153.24,99.1,5.5,-14.0,-0.2,0.58,-1.14,0.25,0.72,-0.28,-46.4,-408.4,256.0,-3.21,10.78,-0.16,0.0,0.8119729059519166,1.2946041866145805,0.1740006077313091,0.35,0,8,0.0
7.447541009998531,539,153.25,99.1,5.4,-14.0,0.57,0.77,-1.02,0.22,0.76,-0.23,-50.3,-382.7,259.0,-3.1,10.07,-0.03,0.0,0.8239538822045807,1.3993569951945786,0.1587792388490722,0.35,0,8,0.0
7.457331975998386,540,153.26,99.2,5.4,-14.1,1.33,0.77,-0.83,0.15,0.8,-0.19,-53.9,-350.0,333.0,-3.01,9.03,-0.17,0.0,0.8358229477586746,1.7466253175767263,0.14397196982907867,0.35,0,8,0.0
7.467267769998216,541,153.27,99.4,5.3,-14.2,1.79,0.75,-0.71,0.09,0.83,-0.19,-57.2,-311.9,349.0,-2.93,8.06,-0.08,0.0,0.8562125904236634,2.06656720190755,0.1211106806208081,0.35,0,8,0.0
7.4774662269992405,542,153.28,99.6,5.2,-14.3,1.91,0.71,-0.69,0.03,0.85,-0.19,-60.0,-279.4,334.0,-2.85,7.17,-0.17,0.0,0.8714929718592113,2.151348414367138,0.10371369320155499,0.35,0,8,0.0
7.487050659998204,543,153.29,99.8,5.2,-14.4,1.94,0.6,-0.77,0.0,0.87,-0.21,-62.6,-243.3,364.0,-2.79,6.14,-0.14,0.0,0.8949860334105779,2.171750446068793,0.07861621901718452,0.35,0,8,0.0
7.497375411998291,544,153.3,100.0,5.1,-14.4,2.0,0.41,-0.78,-0.02,0.93,-0.2,-64.8,-205.2,372.0,-2.73,5.11,-0.21,0.0,0.9514725429564429,2.185520532962342,0.021687115281893155,0.35,0,8,0.0
7.506821771999967,545,153.31,100.2,5.0,-14.5,2.1,0.0,-0.6,-0.02,1.02,-0.16,-66.6,-167.6,379.0,-2.69,4.07,-0.11,0.0,1.032666451474047,2.1840329667841556,0.05831665737099667,0.35,0,8,0.0
7.515100675998838,546,153.32,100.4,5.0,-14.4,1.98,-0.67,-0.24,-0.04,1.08,-0.14,-68.0,-128.9,383.0,-2.65,3.04,-0.16,0.0,1.0897706180660223,2.104019961882491,0.11311240748371265,0.35,0,8,0.0
7.52746667899919,547,153.33,100.6,4.9,-14.3,1.44,-1.36,0.06,-0.04,1.09,-0.18,-69.0,-90.8,386.0,-2.63,1.98,-0.06,0.0,1.105486318323298,1.981615502563502,0.12625154558616858,0.35,0,8,0.0
7.537492267998459,548,153.34,100.7,4.9,-14.2,0.58,-1.77,0.21,-0.04,1.04,-0.31,-69.6,-51.3,390.0,-2.62,0.91,-0.2,0.0,1.085955800205515,1.874406572758429,0.10458660691901789,0.35,0,8,0.0
7.546961319998445,549,153.35,100.7,4.9,-14.0,-0.05,-1.77,0.09,0.01,0.95,-0.43,-69.9,-13.1,373.0,-2.62,-0.06,-0.16,0.0,1.0428326807307104,1.7729918217521479,0.060234217695329106,0.35,0,8,0.0
7.557468120998237,550,153.36,100.7,4.9,-13.8,-0.27,-1.55,-0.21,0.08,0.87,-0.51,-69.8,13.5,252.0,-2.62,-0.54,-0.28,0.0,1.0116323442832382,1.5872932936291264,0.028453203622899714,0.35,0,8,0.0
7.567001089999394,551,153.37,100.7,4.8,-13.7,0.19,-1.17,-0.58,0.19,0.89,-0.58,-69.5,26.9,154.0,-2.63,-0.82,-0.06,0.0,1.079166344916297,1.3196211577570283,0.09406746017083922,0.35,0,8,0.0
7.577443891999792,552,153.38,100.8,4.7,-13.6,1.19,-0.45,-0.75,0.26,0.99,-0.56,-69.2,30.2,62.0,-2.64,-0.82,-0.03,0.0,1.166747616239262,1.4768547660484426,0.17801575686392823,0.35,0,8,0.0
7.586950709999655,553,153.39,100.9,4.6,-13.6,1.97,-0.03,-0.7,0.26,1.08,-0.5,-69.0,27.7,-19.0,-2.65,-0.63,-0.05,0.0,1.218195386627285,2.0908849800981404,0.2248742567069122,0.35,0,8,0.0
7.597464138998475,554,153.4,101.2,4.6,-13.7,2.34,0.35,-0.36,0.23,1.21,-0.45,-68.7,18.7,-77.0,-2.65,-0.34,0.08,0.0,1.3112970677920393,2.3932613731057457,0.3116164191142331,0.35,0,8,0.0
7.607014130999232,555,153.41,101.4,4.6,-13.7,2.52,0.7,0.12,0.18,1.23,-0.47,-68.6,5.0,-120.0,-2.65,0.03,0.14,0.0,1.3289845747788045,2.618167297939534,0.3227178475789785,0.35,0,8,0.0
7.617412217998208,556,153.42,101.7,4.6,-13.8,2.5,1.05,0.32,0.17,1.17,-0.46,-68.7,-4.0,-70.0,-2.65,0.13,-0.13,0.0,1.2686212988910441,2.730366275795246,0.25710748025739383,0.35,0,8,0.0
7.626868565999757,557,153.43,101.9,4.7,-13.9,2.7,1.53,0.36,0.16,1.2,-0.37,-68.7,-4.5,-8.0,-2.65,0.04,0.1,0.0,1.2658988901172163,3.124179892387761,0.24929737005389474,0.35,0,8,0.0
7.637321060999966,558,153.44,102.2,4.8,-14.1,2.93,1.78,0.56,0.11,1.34,-0.21,-68.7,1.7,30.0,-2.65,-0.07,0.02,0.0,1.3608085831592922,3.4737443774693615,0.3373229218340512,0.35,0,8,0.0
7.647395290998247,559,153.45,102.4,4.9,-14.2,2.89,1.69,1.13,0.09,1.57,-0.09,-68.7,3.1,21.0,-2.65,-0.12,0.2,0.0,1.575150786432842,3.533426099411165,0.540631822605449,0.35,1,9,1.5
7.657364721999329,560,153.46,102.7,5.1,-14.4,2.41,1.66,2.22,0.04,1.77,-0.09,-68.6,5.4,23.0,-2.65,-0.17,0.2,0.0,1.7727379953055669,3.673159403020784,0.7234546508486104,0.35,0,9,1.5
7.667040587999509,561,153.47,102.9,5.4,-14.5,1.48,1.89,3.33,-0.06,1.76,-0.07,-68.5,16.9,191.0,-2.66,-0.95,1.18,1.77,1.7624131184259837,4.105045675750758,0.6988671784896467,0.35,0,9,1.5
7.677366904999872,562,153.48,102.9,5.8,-14.6,0.02,1.62,3.89,-0.06,1.53,0.04,-67.9,98.4,750.0,-2.69,-3.89,1.37,1.77,1.531698403733581,4.213893686366565,0.4587894145212992,0.35,0,9,1.5
7.68690483699902,563,153.49,102.9,6.2,-14.6,-1.15,1.37,3.92,0.07,1.19,-0.02,-66.1,208.2,1030.0,-2.75,-7.2,1.45,1.77,1.1922248110151037,4.30880493872721,0.11692950536676538,0.35,0,9,1.5
7.697384630999295,564,153.5,102.7,6.6,-14.7,-1.38,1.76,3.4,0.21,0.93,-0.07,-63.2,323.8,1102.0,-2.85,-10.29,1.19,1.77,0.9559811713627001,4.069643719049617,0.11692785159992536,0.35,0,9,1.5
7.711025218999566,565,153.51,102.6,7.0,-14.8,-0.98,2.41,2.66,0.32,0.78,-0.1,-59.3,431.5,1048.0,-2.96,-12.83,2.0,1.77,0.848999411071645,3.7207660501568762,0.21943141965316082,0.35,0,9,1.5
7.718998009999268,566,153.52,102.5,7.3,-15.1,-0.14,3.38,1.8,0.44,0.75,-0.05,-54.3,531.5,1100.0,-3.12,-16.05,1.38,1.77,0.870976463516667,3.831970772331125,0.19350527986397603,0.35,0,9,1.5
7.726948625999285,567,153.53,102.5,7.5,-15.4,0.52,4.17,1.13,0.48,0.8,0.03,-48.1,637.1,992.0,-3.3,-18.43,1.45,1.77,0.9334345183246654,4.351574427721534,0.12842628055485805,0.35,0,9,1.5
7.737508825999612,568,153.54,102.5,7.7,-15.9,0.47,5.01,0.78,0.46,0.81,0.01,-41.2,718.2,849.0,-3.48,-20.37,1.68,1.77,0.9315578350268974,5.092091908047222,0.1276969045755736,0.35,0,9,1.5
7.7469781689997035,569,153.55,102.4,7.8,-16.4,0.23,5.69,0.65,0.36,0.83,0.0,-33.4,804.2,835.0,-3.7,-22.68,1.03,1.77,0.9047098982546836,5.731622806849732,0.1514539445208315,0.35,0,9,1.5
7.757445340999766,570,153.56,102.4,8.0,-16.9,0.02,5.98,0.81,0.26,0.86,0.06,-25.0,873.9,769.0,-3.96,-24.69,1.44,1.77,0.9004443347592342,6.03464166293244,0.1526051178559552,0.35,0,9,1.5
7.767070049998438,571,153.57,102.3,8.3,-17.5,0.15,5.87,0.98,0.15,0.9,0.07,-15.8,943.6,814.0,-4.22,-26.87,1.22,1.77,0.9150956234186677,5.9531336286026715,0.13519475261259128,0.35,0,9,1.5
7.779000255999563,572,153.58,102.2,8.5,-18.1,0.14,5.61,1.14,0.05,0.98,0.04,-5.5,1011.3,566.0,-4.47,-27.86,1.05,1.77,0.982089608946149,5.726368831991178,0.06683675174340764,0.35,0,9,1.5
7.786976979999963,573,153.59,102.1,8.7,-18.6,-0.52,5.23,1.14,0.0,1.01,0.04,4.5,1012.0,-154.0,-4.77,-26.21,0.07,0.0,1.0107917688624102,5.378001487541632,0.03737189999060364,0.35,0,9,1.5
7.797488540998529,574,153.6,102.0,8.9,-19.0,-1.09,4.59,0.79,-0.04,0.98,0.04,14.3,912.4,-735.0,-5.02,-23.47,-0.02,0.0,0.9816312953446421,4.783335656213141,0.06520172603820418,0.35,0,9,1.5
7.807040608999159,575,153.61,101.8,9.1,-19.4,-0.95,3.8,0.15,-0.04,0.94,0.0,22.6,769.9,-1473.0,-5.22,-18.25,0.55,0.0,0.940850678907126,3.919821424503928,0.10386269562620587,0.35,0,9,1.5
7.817531368998971,576,153.62,101.7,9.1,-19.8,-0.6,3.26,-0.5,-0.05,0.93,-0.05,28.6,529.9,-1989.0,-5.35,-12.16,0.21,0.0,0.9326842981416595,3.3522529737476554,0.1097884948638389,0.35,0,9,1.5
7.826961507998931,577,153.63,101.6,9.1,-20.1,-0.32,2.83,-0.94,-0.05,0.91,-0.06,32.8,388.7,-1445.0,-5.46,-9.15,0.26,0.0,0.9133454987024352,2.9991498795492033,0.12654474841700192,0.35,0,9,1.5
7.837523916999999,578,153.64,101.5,9.0,-20.4,-0.55,2.44,-1.07,-0.03,0.91,-0.08,36.0,289.9,-1069.0,-5.53,-6.84,0.26,0.0,0.9140021881811882,2.720477899193449,0.12337029775948394,0.35,0,9,0.0
7.846897080999042,579,153.65,101.4,9.0,-20.6,-0.26,2.14,-1.22,0.0,0.83,-0.1,38.2,178.2,-1326.0,-5.57,-2.71,0.82,0.0,0.8360023923410745,2.4770143318115863,0.19734269172760566,0.35,0,9,0.0
7.857399462998728,580,153.66,101.4,8.9,-20.8,0.2,1.82,-1.37,0.01,0.82,-0.12,38.7,-9.6,-1664.0,-5.56,2.25,0.45,0.0,0.8287943049997387,2.2867662757702196,0.20045976348756256,0.35,0,9,0.0
7.867001894999703,581,153.67,101.4,8.8,-21.0,0.49,1.57,-1.4,0.03,0.86,-0.13,37.7,-124.7,-1056.0,-5.53,4.05,0.16,0.0,0.8702873088813832,2.1598611066455176,0.15578742441379978,0.35,0,9,0.0
7.877385015999607,582,153.68,101.4,8.7,-21.2,0.09,1.6,-1.23,0.02,0.92,-0.17,36.2,-156.7,-448.0,-5.48,4.28,0.01,0.0,0.9357884376289334,2.020148509392317,0.08848056975292451,0.35,0,9,0.0
7.886951262998991,583,153.69,101.4,8.6,-21.4,-0.28,1.6,-0.96,0.0,0.95,-0.17,34.6,-155.2,-125.0,-5.44,4.14,-0.16,0.0,0.965090669315583,1.886796226411321,0.057994771304949344,0.35,0,9,0.0
7.897434774999056,584,153.7,101.3,8.6,-21.6,-0.22,1.41,-0.77,-0.01,0.96,-0.17,33.1,-144.9,47.0,-5.4,3.74,0.02,0.0,0.9749871794028884,1.6215424755460461,0.047136295993291055,0.35,0,9,0.0
7.906966429998647,585,153.71,101.3,8.5,-21.7,-0.11,1.07,-0.68,-0.02,0.97,-0.18,31.8,-124.8,170.0,-5.37,3.07,0.0,0.0,0.9867623827447011,1.2725564820470643,0.03465387079844884,0.35,0,9,0.0
7.917482998998821,586,153.72,101.2,8.5,-21.8,-0.41,0.78,-0.65,-0.01,0.97,-0.2,30.7,-96.2,252.0,-5.34,2.25,-0.1,0.0,0.9904544411531506,1.094988584415381,0.030342576142199373,0.35,0,9,0.0
7.926809592998325,587,153.73,101.1,8.4,-21.9,-0.97,0.47,-0.71,0.0,0.95,-0.21,30.0,-65.4,300.0,-5.33,1.35,-0.28,0.0,0.9729337079164233,1.2906974858579372,0.04690604319134817,0.35,0,9,0.0
7.935024744998373,588,153.74,101.0,8.3,-21.9,-1.25,0.21,-0.82,0.01,0.89,-0.22,29.6,-30.3,343.0,-5.32,0.36,0.03,0.0,0.9168424073961675,1.5096357176484663,0.1009373968373718,0.35,0,9,0.0
7.947323846998188,589,153.75,100.9,8.2,-22.0,-1.2,0.01,-0.91,0.02,0.87,-0.22,29.5,3.9,319.0,-5.32,-0.45,-0.22,0.0,0.8976079322287654,1.5060544478869282,0.11776843456467845,0.35,0,9,0.0
7.955027614998471,590,153.76,100.8,8.2,-22.0,-1.11,-0.13,-0.93,0.03,0.84,-0.23,29.7,29.9,258.0,-5.33,-1.06,-0.1,0.0,0.8714355971613736,1.453925720248459,0.1410619542394289,0.35,0,9,0.0
7.967328296999767,591,153.77,100.7,8.1,-22.0,-0.85,-0.25,-0.92,0.03,0.84,-0.23,30.2,48.9,201.0,-5.35,-1.51,-0.06,0.0,0.8714355971613736,1.277262698116562,0.13824071515464031,0.35,0,9,0.0
7.975016024998695,592,153.78,100.6,8.0,-22.0,-0.54,-0.34,-0.84,0.01,0.85,-0.25,30.8,62.2,134.0,-5.36,-1.78,0.18,0.0,0.8860586888011425,1.0548933595392476,0.12114527104457407,0.35,0,9,0.0
7.987316422999356,593,153.79,100.6,7.9,-21.9,-0.51,-0.47,-0.67,0.0,0.86,-0.25,31.4,69.5,92.0,-5.38,-1.96,0.05,0.0,0.8956003573022958,0.9643132271207318,0.10937153049255233,0.35,0,9,0.0
7.994999281998389,594,153.8,100.5,7.8,-21.9,-0.68,-0.6,-0.48,-0.02,0.86,-0.26,32.1,72.7,41.0,-5.4,-1.99,-0.01,0.0,0.8986656775464388,1.0260604270704528,0.1041800860434412,0.35,0,9,0.0
8.007262774999617,595,153.81,100.4,7.8,-21.8,-0.91,-0.69,-0.3,-0.05,0.85,-0.26,32.9,70.9,-7.0,-5.42,-1.88,0.07,0.0,0.8902808545621993,1.180762465528101,0.1103136108471271,0.35,0,9,0.0
8.01747967799929,596,153.82,100.3,7.7,-21.8,-1.23,-0.78,-0.06,-0.07,0.84,-0.26,33.5,63.9,-74.0,-5.44,-1.56,-0.07,0.0,0.8820997676000146,1.457703673590761,0.11612480385312551,0.35,0,9,0.0
8.026790730998982,597,153.83,100.2,7.7,-21.7,-1.55,-0.88,0.23,-0.12,0.81,-0.26,34.1,44.2,-187.0,-5.45,-0.86,0.12,0.0,0.8591274643497321,1.7971644332113854,0.13631516496133989,0.35,0,9,0.0
8.034977466999408,598,153.84,100.1,7.8,-21.6,-1.7,-1.1,0.61,-0.18,0.79,-0.25,34.3,10.6,-330.0,-5.45,0.26,0.26,0.0,0.8479386770280031,2.114734025829253,0.14455387323740754,0.35,0,9,0.0
8.047394863999216,599,153.85,99.9,7.8,-21.4,-1.1,-1.52,0.88,-0.19,0.74,-0.26,34.1,-30.3,-358.0,-5.44,1.25,0.09,0.0,0.8070315978944071,2.0723899247004653,0.1817517333235834,0.35,0,9,0.0
8.05744366199906,600,153.86,99.9,7.9,-21.2,-0.1,-1.96,0.96,-0.16,0.77,-0.25,33.5,-65.5,-354.0,-5.42,2.21,0.07,0.0,0.8252272414311103,2.1847654336335514,0.16028496799114267,0.35,0,9,0.0
8.066974516999835,601,153.87,100.0,7.9,-21.0,0.61,-2.4,0.94,-0.06,0.81,-0.24,32.7,-98.4,-324.0,-5.39,3.02,0.06,0.0,0.8469356528095864,2.648716670389643,0.13580502548041318,0.35,0,9,0.0
8.077450918999602,602,153.88,100.1,8.0,-20.7,0.98,-2.47,0.74,0.01,0.9,-0.26,31.5,-123.4,-240.0,-5.36,3.55,0.09,0.0,0.9368564457802486,2.7584234627772437,0.044966547859555894,0.35,0,9,0.0
8.087089047998234,603,153.89,100.2,8.0,-20.5,0.49,-2.41,0.52,0.08,0.98,-0.26,30.2,-135.1,-142.0,-5.32,3.79,0.14,0.0,1.0170545708072896,2.513682557523921,0.034526945624135386,0.35,0,9,0.0
8.095070374998613,604,153.9,100.3,8.0,-20.2,-0.54,-2.04,0.3,0.16,1.01,-0.28,28.7,-154.2,-174.0,-5.28,4.32,-0.07,0.0,1.0602358228243376,2.131478360199793,0.07615403368835971,0.35,0,9,0.0
8.107347888999357,605,153.91,100.2,8.0,-20.1,-1.25,-1.47,-0.04,0.25,0.97,-0.32,27.2,-132.7,255.0,-5.25,2.87,-0.3,0.0,1.051570254429061,1.9300259065618781,0.06613869598722155,0.35,0,9,0.0
8.11506276199907,606,153.92,100.1,7.9,-20.0,-1.77,-0.51,-0.21,0.28,0.96,-0.37,26.3,-71.9,487.0,-5.23,1.21,-0.39,0.0,1.0662551289442879,1.853941746657645,0.07920709909239942,0.35,0,9,0.0
8.127837242998794,607,153.93,99.9,7.9,-20.0,-2.14,0.3,-0.12,0.29,0.9,-0.37,26.0,-12.3,532.0,-5.23,-0.28,0.06,0.0,1.0153817016275208,2.1642550681470056,0.027766998340119753,0.35,0,9,0.0
8.137274003998755,608,153.94,99.7,7.9,-20.0,-1.6,0.86,0.02,0.27,0.8,-0.38,26.2,25.0,350.0,-5.24,-0.92,-0.2,0.0,0.9259049627256569,1.8165902124584952,0.060475545750509285,0.35,0,9,0.0
8.14741762399899,609,153.95,99.6,8.0,-20.1,-0.52,1.22,0.19,0.19,0.75,-0.4,26.6,42.7,232.0,-5.25,-1.36,-0.04,0.0,0.870976463516667,1.3397387805090961,0.1130959640603092,0.35,0,9,0.0
8.157404298999609,610,153.96,99.6,8.0,-20.3,0.82,1.31,0.36,0.09,0.78,-0.38,27.1,51.2,60.0,-5.26,-1.22,0.16,0.0,0.8722958213817146,1.5868522300453813,0.10954107407135638,0.35,0,9,0.0
8.167310289998568,611,153.97,99.7,8.1,-20.4,2.51,0.97,0.4,0.02,0.85,-0.36,27.4,22.1,-249.0,-5.27,-0.04,0.14,0.0,0.9233092656309693,2.7204778991934484,0.057357077225659636,0.35,0,9,0.0
8.175107530998503,612,153.98,100.0,8.1,-20.4,3.87,0.71,0.22,0.0,0.94,-0.37,27.4,-9.5,-171.0,-5.26,0.23,0.16,0.0,1.010198000393982,3.940735971871244,0.028941024386606173,0.35,0,9,0.0
8.187408467998466,613,153.99,100.5,8.1,-20.5,4.38,0.33,-0.38,-0.01,1.09,-0.37,27.3,-5.5,-27.0,-5.26,0.05,0.16,0.0,1.1511298797268708,4.408820703997839,0.16647544564510497,0.35,0,9,0.0
8.197390098999676,614,154.0,100.9,8.0,-20.5,3.61,-0.22,-1.28,0.0,1.22,-0.39,27.3,-1.4,15.0,-5.26,-0.01,-0.26,0.0,1.2808200498118383,3.836521862312269,0.2902423034154711,0.35,0,9,0.0
8.207348948999424,615,154.01,101.1,7.8,-20.5,1.7,-0.89,-2.27,0.0,1.27,-0.33,27.3,1.4,14.0,-5.26,-0.05,0.07,0.0,1.312173768980313,2.9723727895403695,0.31516410213226687,0.35,0,9,0.0
8.217271179999443,616,154.02,101.2,7.5,-20.4,0.49,-1.7,-2.92,0.02,1.29,-0.32,27.3,0.7,-8.0,-5.26,0.01,-0.17,0.0,1.3292479076530457,3.4141616833419004,0.32559347598889943,0.35,0,9,0.0
8.227307378998375,617,154.03,101.3,7.2,-20.3,0.07,-2.09,-3.2,0.05,1.27,-0.3,27.3,-0.3,-3.0,-5.26,0.0,0.1,0.0,1.3059096446538712,3.8226953841497755,0.2962101087299305,0.35,0,9,0.0
8.235097734999727,618,154.04,101.3,6.8,-20.1,0.23,-2.24,-3.28,0.1,1.29,-0.27,27.3,-0.4,-1.0,-5.26,0.0,-0.01,0.0,1.3217412757419662,3.9785550140723203,0.305800905021665,0.35,0,9,0.0
8.24741874099891,619,154.05,101.3,6.4,-20.0,0.41,-1.97,-3.41,0.08,1.33,-0.2,27.3,-0.2,4.0,-5.26,-0.01,-0.01,0.0,1.3473306943731371,3.9594317774145322,0.3247625171797792,0.35,0,9,0.0
8.25733996999952,620,154.06,101.4,6.0,-19.9,0.73,-1.68,-3.84,0.11,1.39,-0.2,27.3,1.0,1.0,-5.26,0.0,0.13,0.0,1.4086163423728975,4.254515248533021,0.3783272018759487,0.35,0,10,0.0
8.267241666999325,621,154.07,101.4,5.6,-19.8,1.01,-1.1,-4.13,0.19,1.52,-0.15,27.3,-0.3,-7.0,-5.26,0.02,0.07,0.0,1.5391556126655939,4.391696710839673,0.4986891427252722,0.35,0,10,0.0
8.277467311998407,622,154.08,101.5,5.2,-19.8,-0.11,-0.45,-3.74,0.16,1.59,-0.1,27.3,-0.2,5.0,-5.26,-0.02,0.19,0.0,1.6011558325159985,3.7685806346687083,0.5494755753241634,0.35,0,10,0.0
8.287095195999427,623,154.09,101.4,4.8,-19.9,-1.32,-0.34,-2.8,0.02,1.46,0.03,27.3,0.7,4.0,-5.26,-0.02,-0.01,0.0,1.4604451376207186,3.114161203277698,0.4005895828203059,0.35,0,10,0.0
8.295014480998361,624,154.1,101.2,4.6,-19.9,-1.44,-0.88,-1.85,-0.15,1.27,0.08,27.3,-0.4,-7.0,-5.26,0.02,-0.01,0.0,1.2813274366843161,2.504096643502403,0.21704244424622532,0.35,0,10,0.0
8.307405025998378,625,154.11,101.1,4.4,-19.8,-1.14,-1.62,-1.1,-0.27,1.13,0.13,27.3,-2.2,-18.0,-5.26,0.09,-0.01,0.0,1.169059451011795,2.2658331800907145,0.10267896940223009,0.35,0,10,0.0
8.317426289999275,626,154.12,101.0,4.3,-19.6,-0.98,-2.76,-0.58,-0.27,1.07,0.22,27.3,-4.4,-22.0,-5.26,0.16,0.07,0.0,1.1252555265360842,2.985699248082432,0.05769754402798877,0.35,0,10,0.0
8.33107328999904,627,154.13,101.0,4.2,-19.2,-1.07,-3.87,-0.12,-0.15,1.09,0.28,27.2,-7.2,-19.0,-5.26,0.21,-0.01,0.0,1.135341358358798,4.01698892206588,0.06642770833368838,0.35,0,10,0.0
8.33906014799868,628,154.14,100.8,4.1,-18.8,-1.99,-4.73,0.2,-0.04,1.1,0.2,27.1,-8.3,-18.0,-5.26,0.25,-0.34,0.0,1.11874930167576,5.135464925398674,0.04883893861763733,0.35,0,10,0.0
8.34695214599924,629,154.15,100.6,4.1,-18.3,-3.23,-4.89,0.27,0.02,1.03,0.14,27.0,-10.9,-18.0,-5.25,0.31,-0.02,0.0,1.0396634070698074,5.8666770833240856,0.029642016868548948,0.35,0,10,0.0
8.35749996299819,630,154.16,100.3,4.0,-17.8,-4.1,-5.04,0.12,0.06,0.94,0.15,26.9,-12.2,-26.0,-5.25,0.41,0.39,0.0,0.9537819457297354,6.498153583903662,0.1132130086444485,0.35,0,10,0.0
8.366918482999608,631,154.17,99.9,3.9,-17.3,-4.39,-4.98,-0.03,0.09,0.88,0.08,26.7,-18.5,-46.0,-5.24,0.56,-0.02,0.0,0.8882004278314664,6.638780008405159,0.17521863601186327,0.35,0,10,0.0
8.377438082998196,632,154.18,99.5,3.8,-16.8,-4.58,-4.58,-0.08,0.11,0.83,0.0,26.5,-26.6,-85.0,-5.24,0.87,0.1,0.0,0.8372574275573791,6.477592145234215,0.22163840356023157,0.35,0,10,0.0
8.387061122999512,633,154.19,99.1,3.8,-16.4,-3.99,-4.03,0.04,0.13,0.83,0.0,26.1,-52.0,-292.0,-5.22,2.05,0.17,0.0,0.840119039184329,5.671207984195255,0.21440125609461602,0.35,0,10,0.0
8.395105903999138,634,154.2,98.7,3.7,-16.0,-2.92,-3.81,0.32,0.18,0.83,0.02,25.1,-114.2,-512.0,-5.19,3.77,0.07,0.0,0.8495292814258965,4.810914673947148,0.2008911935759875,0.35,0,10,0.0
8.407394356998338,635,154.21,98.5,3.7,-15.7,-1.98,-3.61,0.52,0.21,0.81,-0.04,23.7,-145.4,-233.0,-5.15,3.89,-0.14,0.0,0.83773504164503,4.150048192491263,0.20843172468971694,0.35,0,10,0.0
8.417515162998825,636,154.22,98.4,3.7,-15.3,-1.56,-3.12,0.71,0.14,0.83,-0.11,22.3,-137.1,-80.0,-5.11,3.94,0.3,0.0,0.8488816171881683,3.559789319608676,0.19333944616364707,0.35,0,10,0.0
8.426949556998807,637,154.23,98.2,3.8,-15.0,-1.17,-3.01,0.83,0.17,0.86,-0.03,20.8,-158.3,-79.0,-5.07,4.12,-0.04,0.0,0.8771544903835355,3.3343515111637525,0.16176524150891436,0.35,0,10,0.0
8.437313541999174,638,154.24,98.2,3.8,-14.7,-0.05,-2.62,0.91,0.11,0.91,-0.12,19.4,-131.8,139.0,-5.03,3.44,0.22,0.0,0.9244457799135654,2.7739863013360395,0.11218447293930678,0.35,0,10,0.0
8.446930175998205,639,154.25,98.2,3.9,-14.4,-0.21,-2.57,1.04,0.14,0.94,-0.13,18.1,-135.9,-11.0,-4.99,3.73,-0.09,0.0,0.959218431849597,2.7803956552980007,0.07586358458320974,0.35,0,10,0.0
8.457224160998521,640,154.26,98.2,4.0,-14.2,0.14,-2.23,1.16,0.08,0.98,-0.12,16.8,-122.0,188.0,-4.96,2.86,-0.28,0.0,0.9905553997631833,2.517558340932738,0.043636084336230896,0.35,0,10,0.0
8.467358605999834,641,154.27,98.2,4.1,-13.9,-0.3,-2.4,1.12,0.06,1.0,-0.16,15.8,-82.3,334.0,-4.94,1.73,-0.16,0.0,1.0144949482377918,2.6654080363051356,0.01930260514438986,0.35,0,10,0.0
8.475169649998861,642,154.28,98.2,4.2,-13.7,-1.16,-2.2,1.16,0.09,1.01,-0.17,15.2,-50.2,263.0,-4.93,1.15,-0.17,0.0,1.028153685010174,2.744303190247025,0.005530991004567554,0.35,0,10,0.0
8.48740499899941,643,154.29,98.0,4.3,-13.5,-1.83,-2.23,1.11,0.1,0.99,-0.16,14.8,-38.9,137.0,-4.92,0.99,0.02,0.0,1.0078194282707593,3.090938368845293,0.025347942789102573,0.35,0,10,0.0
8.497443105999992,644,154.3,97.9,4.4,-13.2,-2.51,-2.13,1.14,0.13,0.97,-0.2,14.5,-38.0,13.0,-4.91,1.16,-0.19,0.0,0.9988993943335835,3.4837623340291164,0.03358261719175282,0.35,0,10,0.0
8.506998865999776,645,154.31,97.6,4.5,-13.0,-2.69,-1.99,1.17,0.15,0.93,-0.19,13.9,-71.6,-357.0,-4.89,2.77,0.15,0.0,0.9609890738192605,3.544728480434009,0.0700630789519544,0.35,0,10,0.0
8.515146382998864,646,154.32,97.4,4.6,-12.8,-2.34,-1.92,1.16,0.2,0.89,-0.21,12.7,-143.5,-605.0,-4.84,4.8,-0.07,0.0,0.936055553906925,3.2415428425365596,0.09309666688700402,0.35,0,10,0.0
8.527810330999273,647,154.33,97.2,4.7,-12.6,-2.07,-1.57,1.22,0.21,0.87,-0.25,10.8,-213.3,-641.0,-4.78,6.57,0.2,0.0,0.9292470069900683,2.87022647190078,0.09790710952778336,0.35,0,10,0.0
8.53723434999847,648,154.34,97.0,4.8,-12.5,-1.74,-1.14,1.36,0.2,0.85,-0.25,8.2,-272.6,-583.0,-4.71,8.06,0.16,0.0,0.9082951062292475,2.4853168812044872,0.11648183008283208,0.35,0,10,0.0
8.54729044799933,649,154.35,96.9,4.9,-12.3,-1.28,-0.81,1.56,0.16,0.83,-0.25,5.1,-318.2,-471.0,-4.62,9.14,0.22,0.0,0.8814760348415605,2.1744194627532196,0.14043488344110866,0.35,0,10,0.0
8.55751803199928,650,154.36,96.8,5.1,-12.3,-0.57,-0.58,1.67,0.14,0.82,-0.26,1.7,-355.5,-362.0,-4.52,9.94,0.08,0.0,0.871550342780037,1.8574713995106358,0.1473533639925796,0.35,0,10,0.0
8.566979832998186,651,154.37,96.8,5.2,-12.2,0.11,-0.36,1.68,0.12,0.82,-0.28,-1.9,-383.4,-350.0,-4.42,10.91,0.17,0.0,0.8747571091451615,1.7216561793807728,0.1412636656749059,0.35,0,10,0.0
