host_time_s,seq,device_time_s,roll,pitch,yaw,gyro_x,gyro_y,gyro_z,accel_x,accel_y,accel_z,motor_pos,motor_vel,motor_iq_meas,motor_iq_set,acc_mag,gyro_mag,acc_residual,threshold,heel_strike,hs_count,torque_cmd_nm
2.0662315350000426,2,593.32,-102.6,6.4,-73.5,0.0,0.0,0.0,0.11,-0.96,-0.21,-1.88,0.0,-0.03,0.0,0.9888377015466189,0.0,0.0,0.28,0,0,0.0
2.0737651919998825,3,593.33,-102.6,6.4,-73.5,0.0,0.0,0.0,0.11,-0.96,-0.21,-1.88,0.0,-0.03,0.0,0.9888377015466189,0.0,0.0,0.28,0,0,0.0
2.0847991850000653,4,593.34,-102.6,6.4,-73.5,0.0,0.0,0.0,0.11,-0.97,-0.21,-1.88,0.0,-0.05,0.0,0.9985489472229191,0.0,0.009517020762774164,0.28,0,0,0.0
2.09370281099973,5,593.35,-102.6,6.4,-73.5,0.0,0.0,0.0,0.11,-0.96,-0.21,-1.88,0.0,-0.03,0.0,0.9888377015466189,0.0,0.00019034041525556322,0.28,0,0,0.0
2.1057229670000197,6,593.36,-102.6,6.4,-73.5,0.0,0.0,0.0,0.11,-0.96,-0.21,-1.88,0.0,-0.05,0.0,0.9888377015466189,0.0,0.0001865336069504231,0.28,0,0,0.0
2.113779431999774,7,593.37,-102.6,6.4,-73.5,0.0,0.0,0.0,0.11,-0.96,-0.21,-1.88,0.01,-0.01,0.0,0.9888377015466189,0.0,0.0001828029348114324,0.28,0,0,0.0
2.1245509099999254,8,593.38,-102.6,6.4,-73.5,0.0,0.0,0.0,0.11,-0.96,-0.21,-1.88,-0.01,0.05,0.0,0.9888377015466189,0.0,0.0001791468761151993,0.28,0,0,0.0
2.1337152249998326,9,593.39,-102.6,6.4,-73.5,0.0,0.0,0.0,0.11,-0.96,-0.21,-1.88,0.0,-0.08,0.0,0.9888377015466189,0.0,0.0001755639385928598,0.28,0,0,0.0
2.144683892000103,10,593.4,-102.6,6.4,-73.5,0.0,0.0,0.0,0.11,-0.96,-0.21,-1.88,0.0,0.21,0.0,0.9888377015466189,0.0,0.00017205265982100926,0.28,0,0,0.0
2.1536590589998923,11,593.41,-102.6,6.4,-73.5,0.0,0.0,0.0,0.11,-0.96,-0.21,-1.88,0.0,-0.01,0.0,0.9888377015466189,0.0,0.0001686116066246246,0.28,0,0,0.0
2.164541482000004,12,593.42,-102.6,6.4,-73.5,0.0,0.0,0.0,0.11,-0.96,-0.21,-1.88,0.0,-0.03,0.0,0.9888377015466189,0.0,0.0001652393744920877,0.28,0,0,0.0
2.173516185999688,13,593.43,-102.6,6.4,-73.5,0.0,0.0,0.0,0.11,-0.96,-0.21,-1.88,0.0,0.0,0.0,0.9888377015466189,0.0,0.00016193458700219932,0.28,0,0,0.0
2.1844958369997585,14,593.44,-102.6,6.4,-73.5,0.0,0.0,0.0,0.11,-0.96,-0.21,-1.88,0.01,-0.05,0.0,0.9888377015466189,0.0,0.0001586958952621842,0.28,0,0,0.0
2.1936478719999286,15,593.45,-102.6,6.4,-73.5,0.0,0.0,0.0,0.11,-0.96,-0.21,-1.88,0.0,-0.05,0.0,0.9888377015466189,0.0,0.00015552197735690942,0.28,0,0,0.0
2.20439018199977,16,593.46,-102.6,6.4,-73.5,-0.03,0.02,0.03,0.11,-0.96,-0.21,-1.88,0.0,0.0,0.0,0.9888377015466189,0.04690415759823429,0.00015241153780976013,0.28,0,0,0.0
2.213764267999977,17,593.47,-102.6,6.4,-73.5,-0.04,0.03,0.03,0.11,-0.96,-0.21,-1.88,0.0,0.11,0.0,0.9888377015466189,0.05830951894845301,0.00014936330705361822,0.28,0,0,0.0
2.2245166279999466,18,593.48,-102.6,6.4,-73.5,-0.04,0.02,0.03,0.11,-0.96,-0.21,-1.88,0.0,-0.04,0.0,0.9888377015466189,0.053851648071345036,0.00014637604091249923,0.28,0,0,0.0
2.2336884289998125,19,593.49,-102.6,6.4,-73.5,-0.06,0.01,0.05,0.11,-0.97,-0.21,-1.88,0.0,-0.03,0.0,0.9985489472229191,0.07874007874011811,0.009373572242679984,0.28,0,0,0.0
2.2444690019997324,20,593.5,-102.6,6.4,-73.5,-0.06,0.01,0.05,0.11,-0.97,-0.21,-1.88,0.0,-0.01,0.0,0.9985489472229191,0.07874007874011811,0.009186100797826335,0.28,0,0,0.0
2.253656840000076,21,593.51,-102.6,6.4,-73.5,-0.06,0.02,0.05,0.11,-0.97,-0.21,-1.88,0.01,0.16,0.0,0.9985489472229191,0.0806225774829855,0.009002378781869824,0.28,0,0,0.0
2.2644460530000288,22,593.52,-102.6,6.4,-73.5,-0.03,0.02,0.03,0.11,-0.97,-0.21,-1.88,0.01,0.07,0.0,0.9985489472229191,0.04690415759823429,0.008822331206232437,0.28,0,0,0.0
2.273653161999846,23,593.53,-102.6,6.4,-73.5,-0.02,0.02,0.03,0.11,-0.97,-0.21,-1.88,0.0,-0.04,0.0,0.9985489472229191,0.04123105625617661,0.008645884582107799,0.28,0,0,0.0
2.284525026999745,24,593.54,-102.6,6.4,-73.5,-0.03,0.01,0.03,0.11,-0.96,-0.21,-1.88,0.0,0.06,0.0,0.9888377015466189,0.04358898943540673,0.001044053872308548,0.28,0,0,0.0
2.2936268459998246,25,593.55,-102.6,6.4,-73.5,-0.04,0.0,0.03,0.11,-0.96,-0.21,-1.88,0.0,-0.04,0.0,0.9888377015466189,0.05,0.0010231727948624147,0.28,0,0,0.0
2.3045675599996684,26,593.56,-102.6,6.4,-73.5,-0.04,0.0,0.03,0.11,-0.97,-0.21,-1.88,0.0,-0.08,0.0,0.9985489472229191,0.05,0.008514311423809096,0.28,0,0,0.0
2.3137055059996783,27,593.57,-102.6,6.4,-73.5,-0.03,0.01,0.02,0.11,-0.97,-0.21,-1.88,0.0,-0.06,0.0,0.9985489472229191,0.03741657386773942,0.00834402519533295,0.28,0,0,0.0
2.324529276999783,28,593.58,-102.6,6.4,-73.5,0.0,0.0,0.0,0.11,-0.97,-0.21,-1.88,0.0,0.02,0.0,0.9985489472229191,0.0,0.008177144691426275,0.28,0,0,0.0
2.3336975639999764,29,593.59,-102.6,6.4,-73.5,0.0,0.03,0.0,0.11,-0.97,-0.21,-1.88,0.01,-0.13,0.0,0.9985489472229191,0.03,0.008013601797597802,0.28,0,0,0.0
2.3443763069999477,30,593.6,-102.6,6.4,-73.5,0.0,0.0,0.0,0.11,-0.97,-0.21,-1.88,0.0,-0.04,0.0,0.9985489472229191,0.0,0.007853329761645877,0.28,0,0,0.0
2.3535261369997897,31,593.61,-102.6,6.4,-73.5,0.0,0.0,0.0,0.11,-0.97,-0.21,-1.88,0.0,-0.08,0.0,0.9985489472229191,0.0,0.00769626316641292,0.28,0,0,0.0
2.364662316999784,32,593.62,-102.6,6.4,-73.5,0.0,0.0,0.0,0.11,-0.97,-0.21,-1.88,-0.01,0.0,0.0,0.9985489472229191,0.0,0.007542337903084673,0.28,0,0,0.0
2.3736951989999397,33,593.63,-102.6,6.4,-73.5,0.0,0.0,0.0,0.11,-0.96,-0.21,-1.88,0.0,-0.04,0.0,0.9888377015466189,0.0,0.002125529617751254,0.28,0,0,0.0
2.3844768149997435,34,593.64,-102.6,6.4,-73.5,-0.01,0.03,0.0,0.11,-0.97,-0.21,-1.88,0.0,-0.02,0.0,0.9985489472229191,0.03162277660168379,0.00743400173737796,0.28,0,0,0.0
2.3936477530000957,35,593.65,-102.6,6.4,-73.5,0.0,0.0,0.0,0.11,-0.97,-0.21,-1.88,0.0,0.0,0.0,0.9985489472229191,0.0,0.00728532170263041,0.28,0,0,0.0
2.40441325699976,36,593.66,-102.6,6.4,-73.5,0.0,0.0,0.0,0.11,-0.97,-0.21,-1.88,0.0,-0.08,0.0,0.9985489472229191,0.0,0.007139615268577759,0.28,0,0,0.0
2.4137306140000874,37,593.67,-102.6,6.4,-73.5,0.0,0.0,0.0,0.11,-0.97,-0.21,-1.88,0.0,0.1,0.0,0.9985489472229191,0.0,0.006996822963206251,0.28,0,0,0.0
2.424797564000073,38,593.68,-102.6,6.4,-73.5,0.04,-0.01,0.0,0.11,-0.97,-0.21,-1.88,0.0,0.08,0.0,0.9985489472229191,0.04123105625617661,0.006856886503942117,0.28,0,0,0.0
2.4336458539996784,39,593.69,-102.6,6.4,-73.5,0.06,-0.01,0.0,0.11,-0.97,-0.21,-1.88,0.0,0.01,0.0,0.9985489472229191,0.0608276253029822,0.006719748773863277,0.28,0,0,0.0
2.4446585999999115,40,593.7,-102.6,6.4,-73.5,0.06,-0.01,0.01,0.11,-0.96,-0.21,-1.88,0.0,-0.06,0.0,0.9888377015466189,0.06164414002968976,0.00293166696438818,0.28,0,0,0.0
2.4537319070000194,41,593.71,-102.6,6.4,-73.5,0.05,0.0,0.01,0.11,-0.96,-0.21,-1.88,0.0,0.06,0.0,0.9888377015466189,0.050990195135927854,0.002873033625100385,0.28,0,0,0.0
2.4645948039997165,42,593.72,-102.6,6.4,-73.5,0.04,0.0,0.01,0.11,-0.96,-0.21,-1.88,0.0,-0.02,0.0,0.9888377015466189,0.04123105625617661,0.0028155729525983775,0.28,0,0,0.0
2.473688158999721,43,593.73,-102.6,6.4,-73.5,0.04,0.0,0.02,0.11,-0.96,-0.21,-1.88,0.0,-0.04,0.0,0.9888377015466189,0.044721359549995794,0.002759261493546439,0.28,0,0,0.0
2.484386048000033,44,593.74,-102.6,6.4,-73.5,0.03,0.0,0.01,0.11,-0.96,-0.21,-1.88,0.0,0.06,0.0,0.9888377015466189,0.03162277660168379,0.0027040762636755256,0.28,0,0,0.0
2.4936462089999623,45,593.75,-102.6,6.4,-73.5,0.03,0.0,0.01,0.11,-0.96,-0.21,-1.88,0.0,-0.04,0.0,0.9888377015466189,0.03162277660168379,0.002649994738401995,0.28,0,0,0.0
2.504314787000112,46,593.76,-102.6,6.4,-73.5,0.0,0.0,0.0,0.11,-0.96,-0.21,-1.88,0.01,0.12,0.0,0.9888377015466189,0.0,0.0025969948436339596,0.28,0,0,0.0
2.5136899209996955,47,593.77,-102.6,6.4,-73.5,0.0,0.0,0.0,0.11,-0.96,-0.21,-1.88,0.0,0.01,0.0,0.9888377015466189,0.0,0.0025450549467612715,0.28,0,0,0.0
2.5245215659997484,48,593.78,-102.6,6.4,-73.5,0.0,0.0,0.0,0.11,-0.96,-0.21,-1.88,0.0,0.02,0.0,0.9888377015466189,0.0,0.0024941538478260306,0.28,0,0,0.0
2.5336543670000538,49,593.79,-102.6,6.4,-73.5,0.0,0.0,0.0,0.11,-0.96,-0.21,-1.88,0.0,0.12,0.0,0.9888377015466189,0.0,0.0024442707708695055,0.28,0,0,0.0
2.544441196999742,50,593.8,-102.6,6.4,-73.5,0.0,0.0,0.0,0.11,-0.96,-0.21,-1.88,0.0,0.0,0.0,0.9888377015466189,0.0,0.00239538535545214,0.28,0,0,0.0
2.553731148999759,51,593.81,-102.6,6.4,-73.5,0.0,0.0,0.0,0.11,-0.96,-0.21,-1.88,0.01,0.06,0.0,0.9888377015466189,0.0,0.002347477648343088,0.28,0,0,0.0
2.564726825999969,52,593.82,-102.6,6.4,-73.5,0.03,-0.02,0.0,0.11,-0.96,-0.21,-1.88,0.0,-0.11,0.0,0.9888377015466189,0.03605551275463989,0.0023005280953761753,0.28,0,0,0.0
2.573700732999896,53,593.83,-102.6,6.4,-73.5,0.0,0.0,0.0,0.11,-0.96,-0.21,-1.88,0.0,-0.04,0.0,0.9888377015466189,0.0,0.002254517533468614,0.28,0,0,0.0
2.5845155279998835,54,593.84,-102.6,6.4,-73.5,0.0,0.0,0.0,0.11,-0.97,-0.21,-1.88,0.0,-0.06,0.0,0.9985489472229191,0.0,0.007307593579975014,0.28,0,0,0.0
2.593643291999797,55,593.85,-102.6,6.4,-73.5,0.0,0.0,0.0,0.1,-0.96,-0.21,-1.88,0.0,-0.02,0.0,0.9877752780870759,0.0,0.003396754044750816,0.28,0,0,0.0
2.604499125000075,56,593.86,-102.6,6.4,-73.5,0.0,0.0,0.0,0.1,-0.96,-0.21,-1.88,0.0,0.11,0.0,0.9877752780870759,0.0,0.0033288189638558396,0.28,0,0,0.0
2.613729696000064,57,593.87,-102.6,6.4,-73.5,-0.01,-0.03,-0.02,0.1,-0.96,-0.21,-1.88,0.0,-0.08,0.0,0.9877752780870759,0.03741657386773942,0.003262242584578745,0.28,0,0,0.0
2.6257479159999093,58,593.88,-102.6,6.4,-73.5,0.0,-0.03,-0.01,0.1,-0.96,-0.21,-1.88,0.0,-0.08,0.0,0.9877752780870759,0.03162277660168379,0.0031969977328871746,0.28,0,0,0.0
2.633706546999747,59,593.89,-102.6,6.4,-73.5,0.01,-0.03,0.0,0.11,-0.96,-0.21,-1.88,-0.01,-0.09,0.0,0.9888377015466189,0.03162277660168379,0.0020918827878773083,0.28,0,0,0.0
2.644332416999987,60,593.9,-102.6,6.4,-73.5,0.0,-0.03,0.01,0.11,-0.96,-0.21,-1.88,0.0,0.01,0.0,0.9888377015466189,0.03162277660168379,0.0020500451321198154,0.28,0,0,0.0
2.653672916999767,61,593.91,-102.6,6.4,-73.5,-0.02,-0.03,0.06,0.11,-0.95,-0.21,-1.88,0.0,-0.02,0.0,0.9791322688993556,0.06999999999999999,0.01152036822379543,0.28,0,0,0.0
2.6644996259997242,62,593.92,-102.6,6.4,-73.5,-0.09,-0.02,0.11,0.11,-0.96,-0.22,-1.88,0.0,0.01,0.0,0.9910095862301231,0.14352700094407325,0.0003498101248327057,0.28,0,0,0.0
2.6736766260000877,63,593.93,-102.6,6.4,-73.5,-0.17,0.0,0.15,0.1,-0.97,-0.21,-1.88,0.0,0.02,0.0,0.9974968671630001,0.22671568097509268,0.006700349236555492,0.28,0,0,0.0
2.684470666999914,64,593.94,-102.6,6.4,-73.5,-0.21,0.0,0.21,0.1,-0.97,-0.21,-1.88,0.0,-0.04,0.0,0.9974968671630001,0.29698484809834996,0.0065663422518243975,0.28,0,0,0.0
2.6936834029997954,65,593.95,-102.6,6.3,-73.5,-0.22,0.0,0.26,0.1,-0.98,-0.21,-1.88,0.0,-0.08,0.0,1.0072239075796403,0.34058772731852804,0.0159675150150953,0.28,0,0,0.0
2.7045175149996794,66,593.96,-102.7,6.3,-73.5,-0.23,0.0,0.33,0.1,-0.98,-0.21,-1.88,0.0,-0.08,0.0,1.0072239075796403,0.40224370722237535,0.015648164714793356,0.28,0,0,0.0
2.7137480809997214,67,593.97,-102.7,6.3,-73.5,-0.17,-0.01,0.39,0.1,-0.98,-0.21,-1.88,0.0,-0.12,0.0,1.0072239075796403,0.4255584566190643,0.01533520142049749,0.28,0,0,0.0
2.7245915019998392,68,593.98,-102.7,6.2,-73.5,-0.16,-0.02,0.48,0.1,-0.98,-0.21,-1.88,0.0,0.11,0.0,1.0072239075796403,0.5063595560468865,0.015028497392087559,0.28,0,0,0.0
2.733456919999753,69,593.99,-102.7,6.2,-73.4,-0.19,-0.03,0.56,0.1,-0.99,-0.21,-1.88,0.0,0.04,0.0,1.0169562429131354,0.5921148537234985,0.024265616071070917,0.28,0,0,0.0
2.744511594999949,70,594.0,-102.7,6.1,-73.4,-0.19,-0.02,0.64,0.1,-0.99,-0.21,-1.88,0.0,-0.13,0.0,1.0169562429131354,0.6679071791798618,0.023780303749649456,0.28,0,0,0.0
2.7536192269999447,71,594.01,-102.7,6.0,-73.4,-0.16,0.0,0.73,0.09,-0.99,-0.21,-1.88,0.0,0.0,0.0,1.0160216533125659,0.7473285756613351,0.02238879986609843,0.28,0,0,0.0
2.7645211310000377,72,594.02,-102.7,5.9,-73.4,-0.12,0.03,0.81,0.08,-0.99,-0.22,-1.88,0.0,0.15,0.0,1.0173003489628811,0.8193900170248598,0.023194145606085348,0.28,0,0,0.0
2.77365702599991,73,594.03,-102.7,5.8,-73.4,-0.07,0.09,0.83,0.08,-1.0,-0.22,-1.88,0.01,0.1,0.0,1.0270345661174214,0.8377947242612596,0.03226979550541309,0.28,0,0,0.0
2.801475479999681,75,594.05,-102.7,5.7,-73.3,0.0,0.18,0.83,0.06,-0.98,-0.22,-1.88,0.0,-0.05,0.0,1.0061808982484213,0.8492938243034621,0.011187805083684665,0.28,0,0,0.0
2.8097049299999526,76,594.06,-102.7,5.6,-73.3,0.0,0.22,0.83,0.05,-0.98,-0.21,-1.88,0.0,0.06,0.0,1.003493896344168,0.8586617494683223,0.008330787115842786,0.28,0,0,0.0
2.8177447969997047,77,594.07,-102.7,5.5,-73.2,0.15,0.33,0.81,0.05,-0.97,-0.22,-1.88,0.0,-0.05,0.0,0.9958915603618699,0.8874119674649424,0.0007138821108737536,0.28,0,0,0.0
2.825733309000043,78,594.08,-102.7,5.4,-73.2,0.27,0.35,0.73,0.05,-0.97,-0.22,-1.88,0.0,-0.04,0.0,0.9958915603618699,0.8534049449118513,0.0006996044686562453,0.28,0,0,0.0
2.833422695000081,79,594.09,-102.7,5.3,-73.1,0.3,0.37,0.61,0.04,-0.96,-0.21,-1.88,0.0,0.07,0.0,0.9835141076771599,0.7739509028355739,0.011444291251732741,0.28,0,0,0.0
2.844546245999936,80,594.1,-102.6,5.2,-73.1,0.18,0.32,0.5,0.03,-0.95,-0.2,-1.88,-0.03,0.05,0.0,0.9712878049270464,0.620322496770833,0.023197182121809323,0.28,0,0,0.0
2.853638712999782,81,594.11,-102.6,5.1,-73.0,0.0,0.25,0.4,0.02,-0.95,-0.2,-1.88,-0.04,-0.03,0.0,0.9710303805751909,0.47169905660283024,0.022985514344191493,0.28,0,0,0.0
2.8646097470000313,82,594.12,-102.6,5.1,-73.0,-0.13,0.18,0.36,0.02,-0.96,-0.21,-1.88,-0.06,0.0,0.0,0.9829038610159184,0.422965719651132,0.010889793225394628,0.28,0,0,0.0
2.873631587000091,83,594.13,-102.6,5.0,-73.0,-0.19,0.13,0.37,0.03,-0.98,-0.22,-1.88,-0.03,-0.02,0.0,1.0048382954485762,0.43577517139001853,0.010823748383117837,0.28,0,0,0.0
2.8847596699997666,84,594.14,-102.6,4.9,-73.0,-0.11,0.12,0.41,0.04,-1.0,-0.23,-1.88,-0.01,0.0,0.0,1.0268885041717042,0.4411349000022555,0.03221647796412097,0.28,0,0,0.0
2.893683384999804,85,594.15,-102.6,4.9,-73.0,-0.11,0.12,0.41,0.04,-1.0,-0.23,-1.88,-0.02,0.07,0.0,1.0268885041717042,0.4411349000022555,0.031572148404838574,0.28,0,0,0.0
2.904698036999889,86,594.16,-102.6,4.8,-72.9,0.37,0.17,0.46,0.06,-1.01,-0.23,-1.88,-0.01,0.05,0.0,1.0375933692926145,0.6143289021363068,0.041431473255233886,0.28,0,0,0.0
2.9136818329998277,87,594.17,-102.6,4.8,-72.9,0.64,0.19,0.42,0.06,-1.0,-0.22,-1.88,-0.05,-0.04,0.0,1.0256705123966467,0.7887331614684399,0.02891844403208088,0.28,0,0,0.0
2.924337802000082,88,594.18,-102.5,4.7,-72.9,0.73,0.22,0.36,0.06,-0.98,-0.23,-1.88,-0.09,-0.04,0.0,1.0084145972763385,0.8431488599292535,0.01142927833353724,0.28,0,0,0.0
2.9336986579996847,89,594.19,-102.4,4.7,-72.8,0.68,0.25,0.28,0.05,-0.96,-0.22,-1.88,-0.21,-0.03,0.0,0.986154146165801,0.7767238891652556,0.010614549321460331,0.28,0,0,0.0
2.9445886609996705,90,594.2,-102.4,4.6,-72.8,0.52,0.25,0.22,0.05,-0.96,-0.22,-1.89,-0.41,-0.07,0.0,0.986154146165801,0.6174949392505172,0.010402258335031167,0.28,0,0,0.0
2.953687532999993,91,594.21,-102.3,4.6,-72.8,0.34,0.28,0.18,0.05,-0.96,-0.22,-1.89,-0.58,0.02,0.0,0.986154146165801,0.4758150901348128,0.01019421316833058,0.28,0,0,0.0
2.964573258999735,92,594.22,-102.3,4.6,-72.7,0.24,0.28,0.17,0.04,-0.98,-0.22,-1.9,-0.65,0.11,0.0,1.005186549850325,0.40607881008493907,0.008661426705869557,0.28,0,0,0.0
2.973692373999711,93,594.23,-102.3,4.6,-72.7,0.22,0.27,0.15,0.03,-0.99,-0.22,-1.91,-0.67,0.09,0.0,1.0145935146648632,0.37920970451717084,0.017707023689999657,0.28,0,0,0.0
2.98436842000001,94,594.24,-102.3,4.5,-72.7,0.35,0.2,0.14,0.02,-0.99,-0.21,-1.91,-0.74,0.11,0.0,1.0122252713699653,0.42673176586703737,0.015032004787199682,0.28,0,0,0.0
2.9936447390000467,95,594.25,-102.2,4.5,-72.7,0.51,0.07,0.12,0.01,-0.99,-0.21,-1.92,-0.72,-0.03,0.0,1.0120770721639731,0.5285830114561004,0.014586129469583375,0.28,0,0,0.0
3.004697234000105,96,594.26,-102.1,4.4,-72.7,0.66,-0.06,0.09,0.01,-0.98,-0.2,-1.93,-0.57,0.1,0.0,1.0002499687578101,0.6688049042882386,0.0027038455421519725,0.28,0,0,0.0
3.0137331639998592,97,594.27,-102.1,4.4,-72.7,0.75,-0.19,0.04,0.0,-0.97,-0.2,-1.93,-0.38,0.0,0.0,0.9904039579888602,0.7747257579298626,0.006999321922262047,0.28,0,0,0.0
3.024466480999763,98,594.28,-102.0,4.3,-72.7,0.76,-0.31,-0.02,0.0,-0.96,-0.19,-1.93,-0.36,0.12,0.0,0.9786214794290998,0.8210359310042404,0.01840616447238197,0.28,0,0,0.0
3.033687975999783,99,594.29,-101.9,4.3,-72.7,0.72,-0.4,-0.07,0.0,-0.95,-0.19,-1.94,-0.25,0.22,0.0,0.9688137075826291,0.8266196223173026,0.02764965759247562,0.28,0,0,0.0
3.0445688079998945,100,594.3,-101.8,4.2,-72.8,0.65,-0.51,-0.14,0.0,-0.94,-0.19,-1.94,-0.19,0.08,0.0,0.9590099061010788,0.837973746605465,0.03670438989254532,0.28,0,0,0.0
3.0535476069999277,101,594.31,-101.8,4.2,-72.8,0.57,-0.61,-0.22,0.0,-0.94,-0.18,-1.94,-0.07,-0.1,0.0,0.9570788891204318,0.8633655077659751,0.03786269873572845,0.28,0,0,0.0
3.0647051699997974,102,594.32,-101.7,4.2,-72.9,0.47,-0.72,-0.29,0.0,-0.94,-0.18,-1.94,-0.03,-0.03,0.0,0.9570788891204318,0.9074139077620531,0.03710544476101385,0.28,0,0,0.0
3.073634279000089,103,594.33,-101.7,4.1,-73.0,0.29,-0.86,-0.36,0.0,-0.94,-0.18,-1.94,-0.08,0.08,0.0,0.9570788891204318,0.9763708311906905,0.036363335865793545,0.28,0,0,0.0
3.0845244550000643,104,594.34,-101.7,4.1,-73.1,0.12,-1.02,-0.41,-0.01,-0.95,-0.17,-1.94,-0.19,-0.09,0.0,0.9651424765287248,1.1058480908334563,0.02773375348835061,0.28,0,0,0.0
3.0930087520000598,105,594.35,-101.7,4.1,-73.2,-0.25,-1.21,-0.35,0.0,-0.96,-0.15,-1.95,-0.39,0.0,0.0,0.9716480844420988,1.284172885557081,0.020803582663477038,0.28,0,0,0.0
3.104237086000012,106,594.36,-101.7,4.0,-73.3,-0.69,-1.29,-0.18,0.01,-1.01,-0.18,-1.95,-0.48,0.06,0.0,1.0259629622944486,1.4739742195845897,0.03284106928509534,0.28,0,0,0.0
3.114006960000097,107,594.37,-101.8,4.0,-73.5,-0.85,-1.32,0.09,0.05,-1.06,-0.16,-1.96,-0.57,0.1,0.0,1.0731728658515367,1.5725775020646837,0.07844995338533978,0.28,0,0,0.0
3.124145813999803,108,594.38,-101.9,3.9,-73.6,-1.69,-1.35,0.7,0.14,-1.15,-0.15,-1.96,-0.64,0.02,0.0,1.1681609478149833,2.2734555196880364,0.16996927464181055,0.28,0,0,0.0
3.1343361899998854,109,594.39,-102.1,3.8,-73.7,-1.75,-1.27,1.35,0.26,-1.3,-0.24,-1.97,-0.5,0.1,0.0,1.3472935834479434,2.549097879642914,0.3421198720692753,0.28,1,1,1.0
3.144599714999913,110,594.4,-102.2,3.6,-73.8,0.08,-0.73,1.79,0.31,-1.35,-0.28,-1.97,-0.56,0.01,0.0,1.4131525041551602,1.9347868099612422,0.39981921692096223,0.28,0,1,1.0
3.1535172209996745,111,594.41,-102.0,3.4,-73.8,2.68,-0.52,2.08,0.33,-1.3,-0.16,-1.98,-1.06,1.04,1.19,1.3507405376311175,3.4320839150580222,0.33065910538898113,0.28,0,1,1.0
3.1647653129998616,112,594.42,-101.6,3.2,-73.8,5.63,-0.28,2.02,0.28,-1.16,-0.18,-2.0,-2.79,1.02,1.19,1.2068139873236472,5.987962925736932,0.18299790397988058,0.28,0,1,1.0
3.1737030599997524,113,594.43,-100.9,3.0,-73.7,6.63,0.14,1.73,0.18,-0.92,-0.2,-2.04,-3.99,1.23,1.19,0.9585405573057407,6.853422502662447,0.06397001551726544,0.28,0,1,1.0
3.1844240669997816,114,594.44,-100.3,2.9,-73.7,5.85,0.52,1.31,0.09,-0.79,-0.15,-2.09,-4.82,1.12,1.19,0.809135340965898,6.0173914614224655,0.20910772721996607,0.28,0,1,1.0
3.193735354999717,115,594.45,-99.8,2.8,-73.6,3.94,0.47,0.89,0.0,-0.71,-0.04,-2.14,-5.19,1.29,1.19,0.711125867902441,4.066521855345179,0.30097485627775455,0.28,0,1,1.0
3.20480685099983,116,594.46,-99.5,2.8,-73.6,1.75,-0.02,0.74,-0.1,-0.7,-0.01,-2.19,-5.06,1.07,1.19,0.7071774883294858,1.9001315743916263,0.29882477113369565,0.28,0,1,1.0
3.2137339809996774,117,594.47,-99.4,2.7,-73.6,0.13,-0.68,0.76,-0.2,-0.81,-0.02,-2.24,-4.53,1.21,1.19,0.8345657553482531,1.0280564186852783,0.1680077740326298,0.28,0,1,1.0
3.2246562360001008,118,594.48,-99.5,2.6,-73.7,-0.58,-1.62,0.92,-0.25,-0.91,0.0,-2.28,-3.85,1.27,1.19,0.9437160589923221,1.9512047560417642,0.05768032098078946,0.28,0,1,1.0
3.2336345149997214,119,594.49,-99.5,2.4,-73.9,0.21,-2.53,1.13,-0.26,-1.02,0.0,-2.31,-3.11,1.28,1.19,1.0526157893552615,2.7788306893367936,0.050195021194506806,0.28,0,1,1.0
3.2448453749998407,120,594.5,-99.4,2.3,-74.2,1.91,-3.59,1.32,-0.2,-1.04,0.02,-2.34,-2.32,1.3,1.19,1.059245014149229,4.2753479390571245,0.055687761068704766,0.28,0,1,1.0
3.253669116999845,121,594.51,-99.1,2.1,-74.6,3.6,-4.46,1.48,-0.1,-1.01,-0.04,-2.36,-1.64,1.32,1.19,1.0157263410978372,5.919628366713573,0.011925706256966873,0.28,0,1,1.0
3.2644167039998138,122,594.52,-98.7,1.8,-75.0,4.44,-4.94,1.6,0.0,-0.97,-0.05,-2.37,-1.03,1.28,1.19,0.9712878049270462,6.832071428198041,0.03186257331554765,0.28,0,1,1.0
3.2736296640000546,123,594.53,-98.3,1.6,-75.5,4.34,-5.32,1.5,0.08,-0.96,-0.05,-2.38,-0.67,1.28,1.19,0.9646242791885346,7.0276596388840575,0.037755577072978164,0.28,0,1,1.0
3.284719318000043,124,594.54,-97.9,1.4,-76.0,4.0,-5.42,1.2,0.14,-0.96,-0.09,-2.38,-0.61,1.15,1.19,0.9743202758846805,6.8422510915633605,0.027498388769295667,0.28,0,1,1.0
3.293685400999948,125,594.55,-97.5,1.2,-76.5,3.67,-4.96,0.96,0.21,-0.96,-0.17,-2.39,-0.6,1.23,1.19,0.9972963451251589,6.24436546015686,0.004431873138240894,0.28,0,1,1.0
3.304536654000003,126,594.56,-97.1,1.1,-77.0,3.36,-4.36,0.73,0.26,-0.99,-0.21,-2.39,-0.7,1.14,1.19,1.044892338951722,5.5526660263336565,0.042300838274555774,0.28,0,1,1.0
3.313751232999948,127,594.57,-96.8,1.0,-77.3,3.19,-3.6,0.5,0.28,-0.98,-0.23,-2.4,-0.74,1.11,1.19,1.04484448603608,4.83591769987869,0.041407925651735455,0.28,0,1,1.0
3.324738934999914,128,594.58,-96.5,0.9,-77.7,2.76,-2.86,0.27,0.28,-0.97,-0.24,-2.41,-0.97,1.06,1.19,1.0377379245262264,3.9837294084814543,0.033615336859044165,0.28,0,1,0.0
3.333676564999678,129,594.59,-96.3,0.9,-77.9,2.17,-2.21,-0.08,0.26,-0.99,-0.23,-2.42,-1.53,1.03,1.19,1.0490948479522717,3.098289850869347,0.04407281507938765,0.28,0,1,0.0
3.3443979769999714,130,594.6,-96.1,0.9,-78.1,1.38,-1.7,-0.49,0.22,-1.0,-0.2,-2.44,-1.7,0.07,0.0,1.0432641084595982,2.2437691503361035,0.037477234074979826,0.28,0,1,0.0
3.3536868369997137,131,594.61,-96.0,0.9,-78.3,0.41,-1.26,-0.86,0.13,-1.02,-0.15,-2.45,-1.09,0.16,0.0,1.0391342550411857,1.5796518603793686,0.03268043304343604,0.28,0,1,0.0
3.3646635749996676,132,594.62,-96.0,1.0,-78.4,-0.25,-1.13,-1.2,0.06,-1.05,-0.1,-2.46,-0.92,0.23,0.0,1.0564563407921788,1.66715326230074,0.04900246841854039,0.28,0,1,0.0
3.373650193999765,133,594.63,-96.1,1.2,-78.5,-0.51,-1.17,-1.46,0.02,-1.09,-0.08,-2.47,-0.9,0.02,0.0,1.0931148155614763,1.939226649981894,0.08394772432408115,0.28,0,1,0.0
3.38483190199986,134,594.64,-96.1,1.3,-78.7,-0.28,-1.49,-1.73,0.0,-1.11,-0.07,-2.48,-1.1,-0.04,0.0,1.1122050170719426,2.3003043276923165,0.10097716731785655,0.28,0,1,0.0
3.393631809999988,135,594.65,-96.1,1.5,-78.8,0.13,-1.82,-1.92,0.0,-1.1,-0.09,-2.5,-1.4,-0.05,0.0,1.103675676999362,2.6487166703896436,0.09059887070037043,0.28,0,1,0.0
3.4044972110000344,136,594.66,-96.1,1.6,-79.1,0.48,-2.15,-1.98,0.0,-1.08,-0.11,-2.51,-1.7,0.19,0.0,1.0855873986004074,2.961975692000189,0.07106038045538754,0.28,0,1,0.0
3.413677602000007,137,594.67,-96.0,1.8,-79.3,0.84,-2.53,-1.95,0.03,-1.03,-0.12,-2.53,-2.07,0.08,0.0,1.0374005976477938,3.3028775333033464,0.02241610791271853,0.28,0,1,0.0
3.4244939949999207,138,594.68,-95.9,2.0,-79.6,1.24,-2.9,-1.91,0.07,-1.02,-0.12,-2.56,-2.48,-0.15,0.0,1.029417310909429,3.687234736221712,0.014144164750866661,0.28,0,1,0.0
3.4335729760000504,139,594.69,-95.8,2.2,-79.9,1.52,-3.18,-1.82,0.1,-0.96,-0.15,-2.58,-2.99,-0.2,0.0,0.9767804256842988,3.9667619036186177,0.03772286606477826,0.28,0,1,0.0
3.4447059409999383,140,594.7,-95.7,2.3,-80.3,1.5,-3.27,-1.64,0.12,-0.94,-0.17,-2.62,-3.43,-0.06,0.0,0.9627564593395361,3.9537956446938427,0.050711895761350156,0.28,0,1,0.0
3.45366736699998,141,594.71,-95.5,2.4,-80.6,1.33,-3.25,-1.5,0.13,-0.91,-0.18,-2.65,-3.85,-0.07,0.0,0.9366963221877195,3.8185599379870943,0.07523659225490353,0.28,0,1,0.0
3.464374979999775,142,594.72,-95.4,2.5,-81.0,1.25,-3.21,-1.45,0.14,-0.91,-0.19,-2.7,-4.23,0.16,0.0,0.9401063769595439,3.737525919642565,0.07039000673341755,0.28,0,1,0.0
3.4737226859997463,143,594.73,-95.3,2.7,-81.3,1.04,-3.04,-1.33,0.14,-0.89,-0.21,-2.74,-4.53,0.01,0.0,0.9250945897582582,3.477369695617652,0.0836937580560092,0.28,0,1,0.0
3.4846774249999726,144,594.74,-95.3,2.8,-81.6,0.78,-2.83,-1.2,0.16,-0.9,-0.22,-2.79,-4.71,0.09,0.0,0.9402127418834527,3.171324644371812,0.0672040938121985,0.28,0,1,0.0
3.493687936999777,145,594.75,-95.2,2.8,-81.9,0.74,-2.52,-1.07,0.19,-0.91,-0.23,-2.83,-4.7,-0.09,0.0,0.9576533819707421,2.83600070521853,0.048768184650410995,0.28,0,1,0.0
3.504366163999748,146,594.76,-95.1,2.9,-82.1,0.89,-2.1,-0.96,0.21,-0.92,-0.25,-2.88,-4.53,0.04,0.0,0.9762171889492625,2.4746110805538715,0.029600290118452777,0.28,0,1,0.0
3.513587880999694,147,594.77,-95.0,3.0,-82.3,1.03,-1.62,-0.84,0.23,-0.93,-0.24,-2.92,-4.12,0.33,0.0,0.9876234100101112,2.095447446251039,0.017830187676451836,0.28,0,1,0.0
3.5246841789999053,148,594.78,-94.9,3.1,-82.4,1.16,-1.12,-0.74,0.23,-0.93,-0.24,-2.96,-3.49,0.16,0.0,0.9876234100101112,1.7741476826916074,0.017473583922922864,0.28,0,1,0.0
3.5336239479997857,149,594.79,-94.8,3.1,-82.5,1.14,-0.68,-0.65,0.22,-0.91,-0.22,-2.99,-2.98,0.1,0.0,0.9617172141539321,1.4780054127099804,0.042512184183519874,0.28,0,1,0.0
3.544680782999876,150,594.8,-94.7,3.2,-82.6,0.93,-0.31,-0.52,0.21,-0.89,-0.2,-3.02,-2.3,-0.02,0.0,0.936055553906925,1.109684639886486,0.06681036754191638,0.28,0,1,0.0
3.553617741999915,151,594.81,-94.6,3.2,-82.6,0.63,0.0,-0.39,0.19,-0.88,-0.18,-3.04,-1.76,0.14,0.0,0.9180958555619342,0.7409453421137082,0.08307466456916901,0.28,0,1,0.0
3.564589094999974,152,594.82,-94.6,3.3,-82.6,0.5,0.22,-0.25,0.17,-0.87,-0.18,-3.05,-1.19,0.18,0.0,0.9045440840556087,0.6007495318350236,0.09469390735398464,0.28,0,1,0.0
3.573691110999789,153,594.83,-94.5,3.3,-82.6,0.39,0.46,0.0,0.15,-0.84,-0.17,-3.06,-0.58,0.18,0.0,0.8700574693662482,0.6030754513325841,0.12659691160247832,0.28,0,1,0.0
3.584514967999894,154,594.84,-94.5,3.3,-82.5,0.43,0.63,0.28,0.14,-0.84,-0.16,-3.06,0.0,-0.05,0.0,0.8664871608973786,0.812526922630875,0.1275638756699209,0.28,0,1,0.0
3.5936384910000925,155,594.85,-94.4,3.2,-82.4,0.48,0.85,0.52,0.15,-0.83,-0.17,-3.06,0.11,0.0,0.0,0.8604068804931769,1.1060289327137875,0.1309712729526401,0.28,0,1,0.0
3.6045866059998843,156,594.86,-94.4,3.2,-82.3,0.41,1.1,0.73,0.18,-0.82,-0.19,-3.06,-0.06,0.03,0.0,0.8607554821202128,1.382389236069205,0.12801021789909217,0.28,0,1,0.0
3.613724415999968,157,594.87,-94.4,3.1,-82.2,0.09,1.45,0.91,0.2,-0.83,-0.21,-3.06,0.06,0.03,0.0,0.8792041856133307,1.7142636903347164,0.10737028411785476,0.28,0,1,0.0
3.624448829999892,158,594.88,-94.4,3.0,-82.0,-0.15,1.82,1.04,0.19,-0.83,-0.23,-3.06,0.13,0.03,0.0,0.881986394452885,2.101547049199708,0.1024963137727345,0.28,0,1,0.0
3.6336374990000877,159,594.89,-94.4,2.9,-81.8,-0.5,2.22,1.17,0.19,-0.85,-0.22,-3.05,0.25,0.0,0.0,0.8983317872590282,2.5587692353942355,0.0844279025472594,0.28,0,1,0.0
3.644524220999756,160,594.9,-94.4,2.8,-81.5,-0.79,2.52,1.26,0.18,-0.89,-0.21,-3.05,0.45,0.0,0.0,0.9319871243745806,2.9261066282690384,0.04975711412307282,0.28,0,1,0.0
3.6536887209999804,161,594.91,-94.5,2.7,-81.3,-0.92,2.73,1.28,0.16,-0.92,-0.21,-3.04,0.81,0.1,0.0,0.9571311299921239,3.1524117751334453,0.024120846335419,0.28,0,1,0.0
3.6644729149998057,162,594.92,-94.6,2.6,-81.0,-1.1,2.8,1.32,0.14,-0.94,-0.18,-3.03,1.23,0.03,0.0,0.9672641831474997,3.2851788383587275,0.013708037316442323,0.28,0,1,0.0
3.6736667959999068,163,594.93,-94.7,2.5,-80.7,-1.14,2.74,1.41,0.13,-0.95,-0.17,-3.02,1.72,0.0,0.0,0.9738069623903908,3.285620184987912,0.007021952912080298,0.28,0,1,0.0
3.6843612919997213,164,594.94,-94.8,2.4,-80.4,-1.07,2.68,1.51,0.11,-0.97,-0.16,-3.0,2.34,-0.03,0.0,0.9892421341612982,3.2569003669133023,0.008244954481650635,0.28,0,1,0.0
3.6934238959997856,165,594.95,-94.9,2.2,-80.1,-1.01,2.45,1.62,0.09,-0.97,-0.14,-2.97,2.94,0.2,0.0,0.9841747812253675,3.1059620087824644,0.003114049514805539,0.28,0,1,0.0
3.7044502799999464,166,594.96,-95.0,2.1,-79.9,-0.95,2.25,1.77,0.09,-0.96,-0.15,-2.93,3.6,0.03,0.0,0.9758073580374356,3.0162725341056302,0.005148306199663888,0.28,0,1,0.0
3.713746506999996,167,594.97,-95.2,2.0,-79.7,-0.86,2.03,1.89,0.1,-0.96,-0.14,-2.89,4.29,0.09,0.0,0.9752948272189287,2.9038939374570827,0.005547620277807308,0.28,0,1,0.0
3.724685815999692,168,594.98,-95.3,1.9,-79.5,-0.89,1.85,2.01,0.11,-0.95,-0.14,-2.85,4.92,0.11,0.0,0.9665402216152207,2.873099371758659,0.01401618136388505,0.28,0,1,0.0
3.733725354999933,169,594.99,-95.4,1.7,-79.3,-0.99,1.72,2.08,0.12,-0.94,-0.13,-2.79,5.41,0.22,0.0,0.9565040512198576,2.8748739102785015,0.023571304724063213,0.28,0,1,0.0
3.744688976999896,170,595.0,-95.5,1.5,-79.1,-1.14,1.62,2.19,0.13,-0.94,-0.13,-2.74,5.79,0.09,0.0,0.9578100020358944,2.9529815441346736,0.021820046829865936,0.28,0,1,0.0
3.753615611999976,171,595.01,-95.6,1.3,-78.9,-1.35,1.59,2.29,0.14,-0.97,-0.14,-2.67,6.3,0.04,0.0,0.9899999999999999,3.097531275064063,0.010162552111554812,0.28,0,1,0.0
3.764691929000037,172,595.02,-95.7,1.1,-78.7,-1.5,1.65,2.39,0.14,-0.97,-0.16,-2.61,6.86,0.34,0.0,0.9930256794262673,3.268730640478043,0.012924466907065835,0.28,0,1,0.0
3.773679341999923,173,595.03,-95.9,0.9,-78.5,-1.49,1.81,2.57,0.15,-0.97,-0.16,-2.54,7.03,0.1,0.0,0.9944847912361455,3.4786635364748917,0.014095907142605224,0.28,0,1,0.0
3.7844739389997812,174,595.04,-96.1,0.7,-78.3,-2.16,2.02,2.51,0.03,-1.08,-0.09,-2.47,6.22,-0.14,0.0,1.084158659975559,3.878930264905519,0.10169438036437839,0.28,0,1,0.0
3.7936506339997322,175,595.05,-96.3,0.5,-78.1,-2.33,2.02,2.35,0.04,-0.99,-0.07,-2.42,5.24,-0.04,0.0,0.9932774033471213,3.8770865350156942,0.010596861261221835,0.28,0,1,0.0
3.8046964749996732,176,595.06,-96.5,0.3,-77.8,-2.58,2.35,2.33,0.09,-1.11,-0.06,-2.37,4.09,0.0,0.0,1.1152578177264665,4.1961649157296,0.12992573012775566,0.28,0,1,0.0
3.813714764999986,177,595.07,-96.8,0.1,-77.6,-3.54,2.59,1.75,0.01,-1.31,0.03,-2.34,2.92,-0.08,0.0,1.3103816238027761,4.722520513454653,0.318548545479984,0.28,1,2,1.0
3.824483553999926,178,595.08,-97.2,0.0,-77.2,-4.96,3.33,0.9,-0.08,-1.52,-0.05,-2.32,1.69,-0.27,0.0,1.5229248175796466,6.041564366950004,0.5204699044717174,0.28,0,2,1.0
3.833703015000083,179,595.09,-97.7,0.0,-76.9,-5.21,3.53,-0.36,-0.18,-1.63,0.06,-2.31,-0.19,0.81,1.19,1.6410057891427439,6.303538688704941,0.6257798585141183,0.28,0,2,1.0
3.844530948999818,180,595.1,-98.2,0.2,-76.6,-3.03,2.77,-1.17,-0.22,-1.45,0.08,-2.33,-2.74,0.71,1.19,1.4687749997872377,4.268805453519755,0.44447808777543996,0.28,0,2,1.0
3.8535377429998334,181,595.11,-98.3,0.3,-76.4,0.18,1.6,-1.11,-0.17,-1.11,0.02,-2.38,-5.13,0.84,1.19,1.1231206524679351,1.9556328898850113,0.09684726564701474,0.28,0,2,1.0
3.8647103959997366,182,595.12,-98.1,0.4,-76.3,2.36,0.9,-0.55,-0.04,-0.86,-0.02,-2.44,-6.76,1.22,1.19,0.8611620056644393,2.5849758219372188,0.16180915353335146,0.28,0,2,1.0
3.873697554000046,183,595.13,-97.8,0.5,-76.2,3.56,0.58,0.1,0.14,-0.65,-0.1,-2.51,-6.73,1.33,1.19,0.6723838189605696,3.608323710533743,0.3435755934324768,0.28,0,2,1.0
3.8843873669998175,184,595.14,-97.4,0.4,-76.1,3.68,1.08,0.74,0.33,-0.6,-0.23,-2.57,-4.99,1.76,1.19,0.722357252334328,3.905944188029317,0.2877301168575441,0.28,0,2,1.0
3.893671463999908,185,595.15,-97.1,0.3,-75.9,2.73,2.52,1.08,0.42,-0.69,-0.38,-2.6,-2.63,1.47,1.19,0.8926925562588722,3.8690696556149,0.11504691667433986,0.28,0,2,1.0
3.9046778980000454,186,595.16,-96.9,0.3,-75.6,0.63,4.3,0.78,0.34,-0.82,-0.36,-2.61,-0.64,1.48,1.19,0.9579144011862437,4.415348230887344,0.04882857031202903,0.28,0,2,1.0
3.9136933559998397,187,595.17,-97.0,0.3,-75.1,-1.1,5.2,0.35,0.15,-0.9,-0.21,-2.61,0.22,1.02,1.19,0.9362691920596341,5.326584271369411,0.06906430384986584,0.28,0,2,1.0
3.924500885999805,188,595.18,-97.1,0.4,-74.6,-1.32,5.28,0.16,0.02,-0.92,-0.06,-2.61,-0.09,1.24,1.19,0.9221713506718803,5.444850778487874,0.08149890233286716,0.28,0,2,1.0
3.9337796209997578,189,595.19,-97.2,0.4,-74.1,-0.69,4.88,0.21,-0.02,-0.95,-0.02,-2.61,0.01,1.16,1.19,0.9504209593648489,4.933011250747357,0.05218430776710048,0.28,0,2,1.0
3.944600498,190,595.2,-97.2,0.4,-73.6,-0.29,4.36,0.2,-0.07,-1.04,-0.03,-2.61,0.0,1.57,1.19,1.0427847332982967,4.374208499831712,0.03937587684302035,0.28,0,2,1.0
3.9536408969997865,191,595.21,-97.2,0.5,-73.2,-0.26,4.26,0.0,-0.13,-1.09,-0.09,-2.61,0.0,1.17,1.19,1.1014081895464551,4.267926897218366,0.09603934642935519,0.28,0,2,1.0
3.9645216119997713,192,595.22,-97.3,0.5,-72.8,-0.83,4.15,-0.1,-0.2,-1.12,-0.1,-2.61,0.0,1.09,1.19,1.142103322821539,4.233367453930736,0.13399979011035024,0.28,0,2,1.0
3.9736347769999156,193,595.23,-97.4,0.6,-72.4,-1.05,3.93,0.0,-0.23,-1.13,-0.12,-2.61,-0.06,1.01,1.19,1.1593963946813013,4.067849554740195,0.14826700473071042,0.28,0,2,1.0
3.9846907579999424,194,595.24,-97.4,0.6,-72.0,-0.24,3.55,0.13,-0.2,-1.18,-0.09,-2.61,-0.03,1.26,1.19,1.2002083152519816,3.5604774960670653,0.18529734679536292,0.28,0,2,1.0
3.993650955999783,195,595.25,-97.4,0.7,-71.7,1.36,3.01,0.13,-0.13,-1.17,-0.11,-2.61,-0.01,1.01,1.19,1.1823282116231515,3.3055408029549413,0.16406889830320215,0.28,0,2,1.0
4.004531145999863,196,595.26,-97.1,0.7,-71.4,2.49,2.6,0.04,-0.07,-1.12,-0.09,-2.61,0.0,1.27,1.19,1.1257886124845997,3.6002361033687778,0.10537871318135728,0.28,0,2,0.0
4.013541272000111,197,595.27,-96.9,0.6,-71.1,2.8,2.36,0.0,-0.03,-1.0,-0.12,-2.61,0.01,1.34,1.19,1.0076209604806758,3.6619120688514624,0.012533160046115155,0.28,0,2,0.0
4.024575549000019,198,595.28,-96.6,0.7,-70.9,2.13,2.43,0.15,0.0,-0.94,-0.11,-2.61,0.32,-0.09,0.0,0.9464142856064673,3.234857029298204,0.0722650382219171,0.28,0,2,0.0
4.033726913999999,199,595.29,-96.4,0.6,-70.7,1.08,2.57,0.35,0.0,-0.97,-0.08,-2.6,0.9,-0.07,0.0,0.9732933781753578,2.809590717524529,0.04447822673996604,0.28,0,2,0.0
4.044517795000047,200,595.3,-96.3,0.6,-70.4,0.52,2.49,0.52,0.0,-1.01,-0.04,-2.59,1.02,-0.12,0.0,1.0107917688624102,2.5963243248870125,0.006840239331855402,0.28,0,2,0.0
4.053646070000013,201,595.31,-96.3,0.6,-70.1,0.4,2.35,0.82,-0.01,-1.0,-0.04,-2.58,1.03,0.01,0.0,1.0008496390567367,2.5208926990254863,0.01644672175477835,0.28,0,2,0.0
4.06455565799979,202,595.32,-96.2,0.5,-69.9,0.45,2.17,1.16,-0.01,-0.98,-0.06,-2.57,1.01,-0.12,0.0,0.9818859404228171,2.5013996082193666,0.03470221198092416,0.28,0,2,0.0
4.073625438999898,203,595.33,-96.1,0.4,-69.7,0.41,2.05,1.42,-0.03,-0.96,-0.07,-2.56,0.93,-0.12,0.0,0.9630160954002794,2.5272514714606458,0.05250061586339261,0.28,0,2,0.0
4.084557641999709,204,595.34,-96.1,0.2,-69.5,0.21,2.01,1.63,-0.04,-0.92,-0.1,-2.56,0.77,-0.02,0.0,0.9262828941527529,2.59636284059066,0.0874491407687007,0.28,0,2,0.0
4.093654943999809,205,595.35,-96.1,0.0,-69.2,-0.1,2.02,1.8,-0.04,-0.93,-0.14,-2.55,0.67,0.12,0.0,0.9413288479590967,2.7074711448139204,0.07095512322310982,0.28,0,2,0.0
4.104603909999696,206,595.36,-96.1,-0.1,-69.0,-0.32,2.08,1.86,-0.05,-0.93,-0.15,-2.54,0.75,-0.18,0.0,0.9433451118228153,2.808629559055448,0.06756008217220333,0.28,0,2,0.0
4.11372011200001,207,595.37,-96.2,-0.3,-68.8,-0.3,2.13,1.84,-0.06,-0.94,-0.17,-2.53,0.79,-0.07,0.0,0.9571311299921239,2.830635970943632,0.052698582722836784,0.28,0,2,0.0
4.124522802999763,208,595.38,-96.2,-0.4,-68.6,-0.1,2.23,1.74,-0.08,-0.94,-0.17,-2.52,0.77,0.0,0.0,0.9585927185202274,2.830282671395209,0.05021225431083853,0.28,0,2,0.0
4.133684646999882,209,595.39,-96.2,-0.6,-68.3,0.01,2.27,1.61,-0.11,-0.93,-0.15,-2.52,0.83,0.14,0.0,0.9484197383015602,2.783001976283883,0.059177529838915666,0.28,0,2,0.0
4.144402975000048,210,595.4,-96.2,-0.7,-68.1,-0.02,2.24,1.43,-0.13,-0.91,-0.13,-2.51,0.81,0.01,0.0,0.9283856957105706,2.657611709787568,0.07762734098130719,0.28,0,2,0.0
4.153618336999898,211,595.41,-96.3,-0.8,-67.8,-0.24,2.04,1.22,-0.16,-0.9,-0.12,-2.5,0.82,-0.11,0.0,0.9219544457292888,2.3890583919192934,0.0823774191433373,0.28,0,2,0.0
4.164704545999939,212,595.42,-96.3,-0.9,-67.6,-0.52,1.88,1.0,-0.19,-0.9,-0.11,-2.49,0.83,-0.04,0.0,0.926390846241477,2.191985401411241,0.0763821982585261,0.28,0,2,0.0
4.173587970999961,213,595.43,-96.4,-1.0,-67.5,-0.87,1.55,0.68,-0.21,-0.91,-0.1,-2.48,0.71,0.08,0.0,0.9392550239418472,1.9031027297547551,0.0622476601469929,0.28,0,2,0.0
4.1847145520000595,214,595.44,-96.5,-1.0,-67.3,-1.2,1.16,0.3,-0.22,-0.92,-0.09,-2.48,0.67,0.09,0.0,0.9502105029939418,1.6957594168985173,0.050266337473000355,0.28,0,2,0.0
4.193646601999717,215,595.45,-96.6,-1.0,-67.2,-1.33,0.8,-0.03,-0.22,-0.93,-0.11,-2.47,0.71,-0.19,0.0,0.9619771307052991,1.5523530526268823,0.03772971556641025,0.28,0,2,0.0
4.204580320999867,216,595.46,-96.8,-1.0,-67.2,-1.4,0.44,-0.36,-0.21,-0.94,-0.11,-2.46,0.8,-0.08,0.0,0.969432823871773,1.5110261414019281,0.029668541951937688,0.28,0,2,0.0
4.213768648000041,217,595.47,-96.9,-0.9,-67.1,-1.51,0.06,-0.71,-0.2,-0.94,-0.11,-2.45,0.82,0.07,0.0,0.9673158739522473,1.6696706262014673,0.03114978203403418,0.28,0,2,0.0
4.224556511999708,218,595.48,-97.1,-0.8,-67.2,-1.6,-0.23,-1.01,-0.2,-0.94,-0.12,-2.45,0.81,-0.09,0.0,0.96850400102426,1.9060430215501436,0.02936242186278093,0.28,0,2,0.0
4.233527626000068,219,595.49,-97.2,-0.7,-67.2,-1.7,-0.52,-1.27,-0.19,-0.92,-0.13,-2.44,0.86,0.23,0.0,0.9483670175622938,2.1847883192657362,0.04850941721825219,0.28,0,2,0.0
4.244697443999939,220,595.5,-97.4,-0.6,-67.3,-1.83,-0.77,-1.5,-0.18,-0.92,-0.13,-2.43,0.9,-0.01,0.0,0.9464142856064675,2.4883327751729674,0.049452906190596946,0.28,0,2,0.0
4.253526277999754,221,595.51,-97.6,-0.4,-67.4,-1.94,-1.01,-1.7,-0.17,-0.92,-0.14,-2.42,0.9,0.03,0.0,0.9459915433025815,2.770144400568317,0.04887813552459319,0.28,0,2,0.0
4.2645387479997225,222,595.52,-97.8,-0.3,-67.5,-1.99,-1.21,-1.81,-0.14,-0.92,-0.15,-2.41,0.85,-0.05,0.0,0.9426027795418386,2.9496270950749013,0.0512215612996294,0.28,0,2,0.0
4.273665315000017,223,595.53,-98.0,-0.1,-67.7,-1.99,-1.36,-1.86,-0.12,-0.95,-0.16,-2.4,0.83,0.12,0.0,0.9708243919473799,3.044552512274998,0.022539949916206337,0.28,0,2,0.0
4.284419870999955,224,595.54,-98.2,0.0,-67.9,-1.97,-1.48,-1.93,-0.11,-0.98,-0.16,-2.39,0.83,0.11,0.0,0.9990495483208027,3.1298881769162294,0.005571502328072131,0.28,0,2,0.0
4.293700057000024,225,595.55,-98.4,0.1,-68.1,-1.91,-1.56,-2.01,-0.11,-1.0,-0.16,-2.39,0.83,-0.05,0.0,1.0186756107809787,3.181477644114445,0.024693613492483113,0.28,0,2,0.0
4.304378560999794,226,595.56,-98.6,0.3,-68.2,-1.92,-1.64,-2.09,-0.13,-1.02,-0.14,-2.38,0.85,-0.06,0.0,1.0377379245262264,3.277819397099236,0.04288080869297617,0.28,0,2,0.0
4.313772694999898,227,595.57,-98.8,0.5,-68.4,-1.89,-1.79,-2.18,-0.14,-1.03,-0.12,-2.37,0.74,-0.04,0.0,1.0463746938836012,3.395379212989324,0.050487226489343895,0.28,0,2,0.0
4.32472456000005,228,595.58,-99.0,0.7,-68.7,-1.93,-2.08,-2.24,-0.15,-1.04,-0.09,-2.36,0.7,-0.2,0.0,1.0546089322587782,3.6150933597903117,0.05754703556723051,0.28,0,2,0.0
4.333651133999865,229,595.59,-99.1,0.9,-68.9,-1.88,-2.39,-2.22,-0.18,-1.03,-0.08,-2.36,0.69,0.0,0.0,1.0486658190291127,3.7649568390620365,0.050571843890813706,0.28,0,2,0.0
4.344725248000032,230,595.6,-99.4,1.0,-69.2,-2.19,-2.67,-2.02,-0.16,-1.03,-0.05,-2.35,0.7,-0.02,0.0,1.0435516278555652,4.000674943056484,0.04454849966292085,0.28,0,2,0.0
4.35364143400011,231,595.61,-99.6,1.2,-69.5,-2.4,-2.97,-1.72,-0.12,-1.09,0.0,-2.34,0.57,0.08,0.0,1.0965856099730655,4.187994746892598,0.09563083214481272,0.28,0,2,0.0
4.364487367000038,232,595.62,-99.9,1.3,-69.9,-2.89,-3.3,-1.33,-0.06,-1.13,-0.03,-2.34,0.62,0.09,0.0,1.13198939924365,4.5837757362244504,0.12841392898708937,0.28,0,2,0.0
4.373642537999785,233,595.63,-100.1,1.3,-70.2,-2.7,-3.34,-0.93,0.0,-1.2,-0.1,-2.33,0.6,0.27,0.0,1.2041594578792296,4.39437139987052,0.1965723078702155,0.28,0,2,0.0
4.384722609999699,234,595.64,-100.4,1.3,-70.6,-2.66,-3.47,-0.41,0.11,-1.26,-0.16,-2.32,0.68,0.13,0.0,1.274872542648872,4.391423459426339,0.26193968478706076,0.28,0,2,0.0
4.393622011999923,235,595.65,-100.6,1.3,-70.9,-2.1,-3.37,0.11,0.23,-1.35,-0.22,-2.32,0.82,0.01,0.0,1.3870111751532501,3.9722789428739773,0.36659675094561006,0.28,1,3,1.0
4.4047894129998895,236,595.66,-100.8,1.2,-71.2,-0.58,-3.3,0.4,0.25,-1.39,-0.22,-2.31,0.93,-0.05,0.0,1.4293355099485914,3.3743740160213416,0.40074266402613223,0.28,0,3,1.0
4.413779444999818,237,595.67,-100.7,1.1,-71.5,2.43,-2.84,0.43,0.18,-1.37,-0.23,-2.3,0.16,0.96,1.19,1.4007854939283173,3.7623662766934323,0.3647487950457411,0.28,0,3,1.0
4.42457066399993,238,595.68,-100.3,1.0,-71.8,5.03,-2.54,0.17,0.11,-1.21,-0.15,-2.31,-0.74,1.11,1.19,1.224214033574195,5.637499445676248,0.1844137879977863,0.28,0,3,1.0
4.43355623799971,239,595.69,-99.7,1.0,-72.0,6.12,-2.43,-0.25,0.02,-1.04,0.0,-2.32,-1.09,1.19,1.19,1.0401922899156675,6.5895219856982035,0.000384203452473697,0.28,0,3,1.0
4.444710237999971,240,595.7,-99.1,1.0,-72.3,6.25,-3.04,-0.85,-0.08,-0.88,0.08,-2.33,-1.19,1.2,1.19,0.8872429205127533,7.001899742212823,0.14951386263143174,0.28,0,3,1.0
4.453666553999938,241,595.71,-98.5,1.1,-72.6,5.41,-3.64,-1.2,-0.18,-0.75,0.06,-2.34,-1.28,1.16,1.19,0.7736278174936576,6.630060331550536,0.2578663863375169,0.28,0,3,1.0
4.464663761999873,242,595.72,-98.0,1.2,-73.1,3.94,-4.29,-1.25,-0.23,-0.66,0.02,-2.36,-1.51,1.25,1.19,0.6992138442565337,5.9573651894105,0.325634752383148,0.28,0,3,1.0
4.477689866999754,243,595.73,-97.7,1.2,-73.5,2.66,-5.04,-1.05,-0.24,-0.64,0.0,-2.37,-1.48,1.25,1.19,0.6835202996254025,5.794799392558814,0.3345017310739936,0.28,0,3,1.0
4.4857023320000735,244,595.74,-97.5,1.2,-74.1,2.11,-5.74,-0.74,-0.23,-0.67,-0.05,-2.38,-1.39,1.15,1.19,0.7101408311032397,6.160137985467534,0.30172357560423324,0.28,0,3,1.0
4.493518187000063,245,595.75,-97.3,1.2,-74.7,1.91,-6.19,-0.34,-0.19,-0.75,-0.08,-2.4,-1.41,1.08,1.19,0.7778174593052023,6.486894480412026,0.22936600845422528,0.28,0,3,1.0
4.504767601999902,246,595.76,-97.1,1.1,-75.3,1.85,-6.42,-0.16,-0.11,-0.93,-0.12,-2.41,-1.38,0.97,1.19,0.9441398201537736,6.683150454688268,0.06178277465354087,0.28,0,3,1.0
4.513728846000049,247,595.77,-97.0,1.0,-76.0,1.8,-6.48,-0.21,0.0,-1.05,-0.13,-2.43,-1.48,1.16,1.19,1.0580170130957252,6.728632847763356,0.05105252992264253,0.28,0,3,1.0
4.5246882609999375,248,595.78,-96.8,1.0,-76.6,1.78,-6.3,-0.38,0.11,-1.19,-0.14,-2.44,-1.32,1.46,1.19,1.203245610837621,6.5576520188250305,0.19235550511124755,0.28,0,3,1.0
4.533656218000033,249,595.79,-96.6,1.0,-77.2,2.36,-6.15,-0.65,0.24,-1.26,-0.14,-2.45,-1.17,1.17,1.19,1.2902712893031452,6.619259777346709,0.27379355990523613,0.28,0,3,1.0
4.544609309999942,250,595.8,-96.3,1.0,-77.8,3.4,-5.97,-0.91,0.32,-1.24,-0.18,-2.46,-1.11,1.22,1.19,1.293213052826177,6.93029580898247,0.27120061695970255,0.28,0,3,1.0
4.553523503999713,251,595.81,-95.9,1.1,-78.4,4.41,-5.67,-1.03,0.39,-1.16,-0.21,-2.47,-0.9,1.01,1.19,1.2416923934694937,7.2565763277181885,0.215286358450959,0.28,0,3,1.0
4.564644946000044,252,595.82,-95.5,1.1,-79.0,4.84,-5.29,-1.17,0.4,-1.06,-0.23,-2.48,-0.83,1.02,1.19,1.1560709320798617,7.264888161561745,0.12707159912010035,0.28,0,3,1.0
4.573423925000043,253,595.83,-95.0,1.2,-79.5,3.97,-4.67,-1.31,0.33,-0.97,-0.23,-2.49,-1.02,1.1,1.19,1.0500952337764418,6.267846520137518,0.020673982800346824,0.28,0,3,1.0
4.584359657999812,254,595.84,-94.7,1.3,-79.9,2.69,-4.12,-1.52,0.22,-0.97,-0.17,-2.5,-1.35,1.41,1.19,1.009058967553433,5.149844657851341,0.019955037754208815,0.28,0,3,0.0
4.593535614999837,255,595.85,-94.5,1.4,-80.3,1.58,-3.81,-1.69,0.09,-0.99,-0.11,-2.52,-2.01,0.97,1.19,1.0001499887516871,4.457420778880989,0.028286736224835574,0.28,0,3,0.0
4.604782904999865,256,595.86,-94.4,1.6,-80.7,0.97,-3.85,-1.85,0.0,-1.04,-0.06,-2.55,-2.57,-0.18,0.0,1.0417293314484335,4.380171229529732,0.013026754342472469,0.28,0,3,0.0
4.613528080999913,257,595.87,-94.3,1.7,-81.1,0.8,-3.85,-1.95,-0.03,-1.08,-0.07,-2.57,-2.29,-0.03,0.0,1.0826818553942796,4.389191269470949,0.05289969272255224,0.28,0,3,0.0
4.624560828000085,258,595.88,-94.2,1.9,-81.6,1.2,-4.04,-2.16,-0.05,-1.11,-0.08,-2.59,-2.09,-0.14,0.0,1.1140017953306898,4.735736479155064,0.08253524000578305,0.28,0,3,0.0
4.633433523999884,259,595.89,-94.1,2.0,-82.0,1.6,-4.17,-2.33,-0.04,-1.11,-0.07,-2.61,-2.11,0.12,0.0,1.112924076476019,5.0376383355695555,0.07982837072809024,0.28,0,3,0.0
4.644459246999759,260,595.9,-93.9,2.2,-82.4,1.98,-4.44,-2.48,-0.01,-1.07,-0.08,-2.64,-2.33,-0.02,0.0,1.0730330842988953,5.457508589090814,0.039138630979947076,0.28,0,3,0.0
4.653655168000114,261,595.91,-93.8,2.4,-82.9,2.18,-4.61,-2.58,0.02,-1.04,-0.09,-2.66,-2.6,0.1,0.0,1.0440785411069418,5.714971565983509,0.009980406032233713,0.28,0,3,0.0
4.664674040999671,262,595.92,-93.6,2.6,-83.4,2.18,-4.86,-2.62,0.06,-1.0,-0.09,-2.69,-2.96,-0.05,0.0,1.005832988124768,5.936025606413773,0.027699844010941277,0.28,0,3,0.0
4.673527781999837,263,595.93,-93.4,2.9,-83.9,2.11,-5.1,-2.6,0.1,-0.98,-0.11,-2.72,-3.4,0.11,0.0,0.9912113800799505,6.100991722662799,0.041475023014643675,0.28,0,3,0.0
4.684488109000085,264,595.94,-93.2,3.1,-84.5,2.23,-5.33,-2.55,0.15,-0.95,-0.14,-2.76,-3.86,-0.47,0.0,0.9719053451854249,6.315401808277918,0.05956543675098591,0.28,0,3,0.0
4.693525114999829,265,595.95,-93.0,3.3,-85.0,2.38,-5.31,-2.41,0.19,-0.94,-0.17,-2.8,-4.39,-0.02,0.0,0.9739609848448756,6.298301358302887,0.05635960114970451,0.28,0,3,0.0
4.704561259000002,266,595.96,-92.8,3.5,-85.5,2.43,-5.2,-2.24,0.22,-0.94,-0.19,-2.85,-4.85,0.06,0.0,0.9839207285142436,6.161371600544801,0.045471860330729696,0.28,0,3,0.0
4.713513650000095,267,595.97,-92.6,3.7,-86.1,2.42,-4.94,-2.06,0.23,-0.93,-0.19,-2.9,-5.27,0.03,0.0,0.976678043164686,5.873976506592447,0.05166025476668157,0.28,0,3,0.0
4.724612513000011,268,595.98,-92.4,3.9,-86.5,2.43,-4.64,-1.9,0.24,-0.94,-0.19,-2.96,-5.52,0.07,0.0,0.9885848471426213,5.5717591477019175,0.038958381772971284,0.28,0,3,0.0
4.733518518999972,269,595.99,-92.2,4.1,-87.0,2.49,-4.23,-1.74,0.25,-0.92,-0.21,-3.01,-5.68,-0.12,0.0,0.9762171889492625,5.207744233350943,0.05029951916700359,0.28,0,3,0.0
4.744328843999938,270,596.0,-92.0,4.2,-87.4,2.5,-3.73,-1.55,0.25,-0.91,-0.21,-3.07,-5.76,0.06,0.0,0.966798841538404,4.750305253349515,0.058523509246304894,0.28,0,3,0.0
4.753551669999979,271,596.01,-91.8,4.4,-87.8,2.45,-3.18,-1.39,0.25,-0.9,-0.21,-3.13,-5.6,0.03,0.0,0.9573922915921144,4.24817607921329,0.06657145800874276,0.28,0,3,0.0
4.764554983999915,272,596.02,-91.5,4.5,-88.0,2.3,-2.62,-1.23,0.25,-0.89,-0.21,-3.18,-5.25,0.07,0.0,0.9479978902930112,3.6969311597594023,0.074446542121689,0.28,0,3,0.0
4.773412903999997,273,596.03,-91.3,4.6,-88.3,2.14,-2.04,-1.12,0.26,-0.9,-0.2,-3.23,-4.78,0.12,0.0,0.9579144011862438,3.161581882539182,0.06323943060388715,0.28,0,3,0.0
4.7847161159997995,274,596.04,-91.2,4.7,-88.5,1.9,-1.49,-1.03,0.26,-0.9,-0.18,-3.27,-4.2,0.01,0.0,0.9539392014169457,2.6250714275996376,0.06587033776572171,0.28,0,3,0.0
4.793573606999871,275,596.05,-91.0,4.8,-88.6,1.66,-1.01,-0.94,0.25,-0.91,-0.15,-3.31,-3.6,0.12,0.0,0.9555626614722867,2.1585411740339815,0.06296194015617296,0.28,0,3,0.0
4.804861166999672,276,596.06,-90.8,4.9,-88.7,1.55,-0.61,-0.84,0.24,-0.92,-0.13,-3.34,-2.92,-0.03,0.0,0.9596353474106715,1.8655294154743314,0.0577114691334325,0.28,0,3,0.0
4.813558100999671,277,596.07,-90.7,5.0,-88.7,1.44,-0.26,-0.66,0.22,-0.91,-0.11,-3.37,-2.35,0.0,0.0,0.9426558226627575,1.6052414148656893,0.07319717400371961,0.28,0,3,0.0
4.824760012999832,278,596.08,-90.5,5.0,-88.7,1.51,-0.01,-0.5,0.21,-0.9,-0.1,-3.39,-1.77,0.0,0.0,0.9295697929687691,1.5906602402776024,0.08455753962375379,0.28,0,3,0.0
4.83376430699991,279,596.09,-90.4,5.1,-88.7,1.47,0.22,-0.26,0.2,-0.88,-0.09,-3.4,-1.28,-0.01,0.0,0.9069178573608527,1.5089400253157843,0.10506528572703666,0.28,0,3,0.0
4.844820588999937,280,596.1,-90.3,5.1,-88.7,1.36,0.35,-0.03,0.18,-0.86,-0.08,-3.41,-0.88,0.12,0.0,0.882269800004511,1.4046351839534705,0.1271190762217107,0.28,0,3,0.0
4.853588881999713,281,596.11,-90.1,5.1,-88.6,1.2,0.5,0.16,0.18,-0.86,-0.07,-3.42,-0.54,0.0,0.0,0.8814193099768123,1.3098091464026353,0.1254101749244213,0.28,0,3,0.0
4.8648262669998985,282,596.12,-90.0,5.0,-88.6,1.04,0.69,0.36,0.18,-0.84,-0.09,-3.42,-0.25,-0.25,0.0,0.863770802933278,1.298961123359741,0.14019750832859645,0.28,0,3,0.0
4.873698502000025,283,596.13,-89.9,5.0,-88.5,0.9,0.91,0.52,0.2,-0.86,-0.1,-3.42,0.0,0.14,0.0,0.8885943956609225,1.3814847085653899,0.11306643728893306,0.28,0,3,0.0
4.884596040999895,284,596.14,-89.8,4.9,-88.4,0.66,1.21,0.72,0.22,-0.85,-0.13,-3.42,0.0,0.06,0.0,0.8875809822207774,1.55502411556863,0.11179825371449659,0.28,0,3,0.0
4.893632417999925,285,596.15,-89.7,4.8,-88.2,0.38,1.55,0.86,0.23,-0.87,-0.15,-3.42,0.0,0.06,0.0,0.9123047736365298,1.8128706517564899,0.08533297305276932,0.28,0,3,0.0
4.90470311099989,286,596.16,-89.7,4.7,-88.1,0.06,2.01,0.96,0.24,-0.88,-0.17,-3.42,0.01,-0.01,0.0,0.9278469701410896,2.2282953125651903,0.06839496101724529,0.28,0,3,0.0
4.913742877000004,287,596.17,-89.7,4.6,-87.8,-0.18,2.52,1.04,0.25,-0.91,-0.17,-3.42,0.0,-0.01,0.0,0.9589056262218927,2.732105415242977,0.03658957883771341,0.28,0,3,0.0
4.924582812999688,288,596.18,-89.7,4.5,-87.6,-0.28,2.97,1.12,0.25,-0.92,-0.16,-3.42,0.06,-0.01,0.0,0.9666954018717582,3.1864870939641357,0.028223807124091005,0.28,0,3,0.0
4.933625260000099,289,596.19,-89.7,4.4,-87.2,-0.31,3.37,1.25,0.25,-0.94,-0.15,-3.42,0.16,-0.01,0.0,0.9841747812253675,3.6077000984006418,0.010529539215072048,0.28,0,3,0.0
4.944649325999762,290,596.2,-89.7,4.3,-86.9,-0.28,3.71,1.39,0.23,-0.96,-0.14,-3.42,0.38,0.04,0.0,0.9970456358662826,3.9717250660135073,0.002294489117326215,0.28,0,3,0.0
4.9536263340000914,291,596.21,-89.7,4.1,-86.5,-0.21,3.98,1.53,0.22,-0.95,-0.13,-3.41,0.74,0.02,0.0,0.9837682653958706,4.269121689528187,0.010763223726024118,0.28,0,3,0.0
4.964651771999797,292,596.22,-89.7,4.0,-86.1,-0.13,4.15,1.69,0.21,-0.93,-0.12,-3.4,1.23,0.15,0.0,0.9609370426828181,4.482800463995693,0.03292255751029505,0.28,0,3,0.0
4.973649082000065,293,596.23,-89.7,3.8,-85.7,-0.05,4.39,1.87,0.19,-0.93,-0.13,-3.38,1.85,0.09,0.0,0.9580709785814411,4.771949287241012,0.03507284917943865,0.28,0,3,0.0
4.984647541999948,294,596.24,-89.7,3.6,-85.2,-0.2,4.48,1.98,0.15,-0.93,-0.1,-3.36,2.6,-0.04,0.0,0.9473119866232033,4.902121989506178,0.04491520431492291,0.28,0,3,0.0
4.993413686999702,295,596.25,-89.7,3.4,-84.8,-0.51,4.48,2.01,0.1,-0.93,-0.06,-3.33,3.3,0.02,0.0,0.9372833082905084,4.936658789100175,0.05384500499466538,0.28,0,3,0.0
5.0047319410000455,296,596.26,-89.7,3.2,-84.3,-0.75,4.31,2.02,0.09,-0.91,-0.03,-3.29,4.04,0.27,0.0,0.9149316914393119,4.818609758011122,0.07467268940894467,0.28,0,3,0.0
5.013543342000048,297,596.27,-89.8,3.0,-83.9,-1.04,4.02,2.06,0.07,-0.91,-0.02,-3.24,4.78,0.07,0.0,0.9129074432821763,4.635256195724245,0.07516299881475863,0.28,0,3,0.0
5.024594240999704,298,596.28,-90.0,2.8,-83.5,-1.36,3.73,2.07,0.06,-0.93,-0.02,-3.19,5.47,0.06,0.0,0.9321480569094162,4.477432299879028,0.05480393748376844,0.28,0,3,0.0
5.033475563999673,299,596.29,-90.1,2.6,-83.2,-1.63,3.43,2.06,0.06,-0.96,-0.01,-3.13,5.92,0.06,0.0,0.9619251530134764,4.320347208269261,0.02452630455211402,0.28,0,3,0.0
5.044497742999738,300,596.3,-90.3,2.5,-82.8,-1.6,3.19,2.14,0.07,-0.95,-0.03,-3.07,6.29,-0.04,0.0,0.9530477427705287,4.161213765237253,0.032735640499160445,0.28,0,3,0.0
5.053416276000007,301,596.31,-90.4,2.3,-82.5,-1.34,3.05,2.39,0.09,-0.93,-0.04,-3.01,6.46,0.07,0.0,0.9352005132590552,4.100024390171356,0.0495712126104213,0.28,0,3,0.0
5.064486447000036,302,596.32,-90.5,2.0,-82.2,-0.89,3.08,2.71,0.12,-0.93,-0.09,-2.94,6.68,-0.03,0.0,0.942019108086455,4.197928060365018,0.041897565427361116,0.28,0,3,0.0
5.073534641999686,303,596.33,-90.6,1.7,-81.9,-0.64,3.23,2.98,0.13,-0.92,-0.1,-2.87,6.95,0.12,0.0,0.9345052166788584,4.441047173809348,0.048423227698258464,0.28,0,3,0.0
5.084761402999902,304,596.34,-90.6,1.4,-81.6,-0.56,3.47,3.21,0.16,-0.88,-0.14,-2.8,7.07,-0.1,0.0,0.905317623820502,4.760105040857817,0.0760586041454826,0.28,0,3,0.0
5.093408542999896,305,596.35,-90.7,1.1,-81.2,-0.8,3.88,3.44,0.14,-0.88,-0.16,-2.74,6.36,-0.19,0.0,0.905317623820502,5.246713256887592,0.0745374320625729,0.28,0,3,0.0
5.104584000999694,306,596.36,-90.9,0.8,-80.7,-2.5,4.38,3.17,0.01,-1.05,0.01,-2.68,5.21,-0.2,0.0,1.0500952337764418,5.956786046182958,0.06883537433549958,0.28,0,3,0.0
5.113204653999674,307,596.37,-91.1,0.5,-80.3,-3.23,4.31,2.86,0.13,-0.98,-0.04,-2.64,4.08,-0.17,0.0,0.9893937537704591,6.098245649365069,0.007971216442926643,0.28,0,3,0.0
5.124094503999913,308,596.38,-91.5,0.3,-79.8,-4.81,4.75,2.34,0.08,-1.36,0.15,-2.6,2.94,-0.03,0.0,1.3705838172107536,7.1536144710209255,0.3813780542855567,0.28,1,4,1.0
5.134186236999994,309,596.39,-92.1,0.1,-79.3,-6.51,5.16,1.14,-0.06,-1.63,0.11,-2.58,1.73,0.19,0.0,1.6348088573285868,8.384825579581248,0.6326910325153221,0.28,0,4,1.0
5.144541871999991,310,596.4,-92.8,0.1,-78.8,-7.71,5.33,-0.25,-0.25,-1.85,0.18,-2.58,-0.16,0.68,1.19,1.8754732736032258,9.37632657281091,0.8558883398141619,0.28,0,4,1.0
5.153535745999761,311,596.41,-93.4,0.2,-78.3,-4.6,4.05,-1.14,-0.3,-1.68,0.22,-2.6,-2.73,0.84,1.19,1.7206975329789949,6.23394738508435,0.6870903472061323,0.28,0,4,1.0
5.164547670000047,312,596.42,-93.6,0.3,-78.0,1.09,2.47,-0.9,-0.24,-1.24,0.07,-2.64,-5.18,0.89,1.19,1.2649505919204909,2.8458742066366884,0.22671653802467562,0.28,0,4,1.0
5.173427224000079,313,596.43,-93.2,0.4,-77.9,5.18,1.12,0.06,-0.13,-0.86,0.16,-2.71,-7.24,1.03,1.19,0.8843641783790205,5.300037735714718,0.15079247800645879,0.28,0,4,1.0
5.184474890999809,314,596.44,-92.6,0.3,-77.8,7.26,0.25,1.07,0.07,-0.58,0.03,-2.78,-7.82,1.41,1.19,0.5849786320883866,7.34268343318708,0.4411744638111509,0.28,0,4,1.0
5.19349251299991,315,596.45,-91.9,0.2,-77.8,6.86,0.67,1.79,0.25,-0.48,-0.11,-2.85,-6.21,1.59,1.19,0.552268050859363,7.1212779751951825,0.4644073441393709,0.28,0,4,1.0
5.204600584999753,316,596.46,-91.3,0.0,-77.6,4.51,1.94,1.89,0.34,-0.54,-0.25,-2.9,-3.3,1.65,1.19,0.6853466276272177,5.260779409935376,0.3247021920240859,0.28,0,4,1.0
5.213452189999771,317,596.47,-91.0,-0.1,-77.3,0.79,4.1,1.28,0.25,-0.73,-0.34,-2.91,-0.81,1.43,1.19,0.8432081593533117,4.367207345661527,0.16350384709203192,0.28,0,4,1.0
5.224485893999827,318,596.48,-91.2,-0.1,-76.8,-3.19,5.28,0.29,0.08,-0.83,-0.1,-2.91,0.24,1.17,1.19,0.8398214095865858,6.17564571522687,0.16355278492158265,0.28,0,4,1.0
5.23345448200007,319,596.49,-91.6,-0.1,-76.3,-4.88,5.86,-0.15,-0.01,-0.85,-0.01,-2.91,-0.06,1.08,1.19,0.8501176389182852,7.627352096238904,0.15019142447808553,0.28,0,4,1.0
5.244775502999801,320,596.5,-92.1,-0.1,-75.7,-4.1,5.33,-0.11,-0.07,-0.95,0.14,-2.91,0.03,1.01,1.19,0.9628083921528727,6.725399616379684,0.036750657818628074,0.28,0,4,1.0
5.253424426000038,321,596.51,-92.4,0.0,-75.2,-2.73,4.23,0.13,-0.07,-1.03,0.14,-2.91,0.01,0.93,1.19,1.0418253212511202,5.036139394417117,0.04142094585402689,0.28,0,4,1.0
5.264400849999674,322,596.52,-92.6,0.0,-74.8,-1.65,3.73,0.14,-0.09,-1.15,0.02,-2.91,0.0,1.01,1.19,1.1536897329871665,4.081053785482372,0.1502196504382718,0.28,0,4,1.0
5.273615914999937,323,596.53,-92.8,-0.1,-74.5,-1.34,3.74,-0.06,-0.15,-1.16,-0.03,-2.91,0.0,1.0,1.19,1.1700427342623003,3.9732606257329763,0.16324119867913756,0.28,0,4,1.0
5.284688575000018,324,596.54,-92.9,-0.1,-74.1,-1.65,3.87,-0.05,-0.22,-1.14,-0.03,-2.91,0.0,1.25,1.19,1.1614215427655885,4.207362594310122,0.1515276070387772,0.28,0,4,1.0
5.2976409089997105,325,596.55,-93.1,0.0,-73.7,-1.66,3.75,0.07,-0.25,-1.15,0.01,-2.91,-0.03,1.01,1.19,1.1769027147559818,4.101585059461769,0.16366860344858725,0.28,0,4,1.0
5.305717447000006,326,596.56,-93.2,0.0,-73.4,-0.71,2.96,0.07,-0.23,-1.17,0.06,-2.91,0.0,0.94,1.19,1.193901168438996,3.0447660008611495,0.17705371598896935,0.28,0,4,0.0
5.313659829999779,327,596.57,-93.2,0.0,-73.1,0.52,2.38,0.0,-0.16,-1.1,0.0,-2.91,0.02,1.25,1.19,1.1115754585272204,2.436144494893519,0.09283344595564991,0.28,0,4,0.0
5.324571278999883,328,596.58,-93.1,0.0,-72.9,1.15,2.03,-0.06,-0.11,-1.03,-0.01,-2.91,0.31,0.29,0.0,1.035905401086412,2.3338808881346105,0.016820120744544642,0.28,0,4,0.0
5.3335456429999795,329,596.59,-93.0,0.0,-72.7,1.08,1.86,-0.07,-0.08,-0.94,-0.02,-2.9,1.56,0.2,0.0,0.9436100889668358,2.1519526017085044,0.07396568754753086,0.28,0,4,0.0
5.344659203999981,330,596.6,-92.9,-0.1,-72.5,0.34,1.83,-0.04,-0.1,-0.92,0.0,-2.88,2.31,0.01,0.0,0.9254188241007419,1.861746491872618,0.09031381336535227,0.28,0,4,0.0
5.353540632999739,331,596.61,-92.9,0.0,-72.3,-0.34,1.69,-0.09,-0.12,-0.93,0.02,-2.85,2.73,0.07,0.0,0.9379232377972091,1.726209720746584,0.07625321167550747,0.28,0,4,0.0
5.364662902999953,332,596.62,-93.0,0.0,-72.2,-0.83,1.39,-0.11,-0.14,-0.95,0.05,-2.82,2.91,0.08,0.0,0.9615612304996494,1.6226829634897877,0.05156291459360596,0.28,0,4,0.0
5.373421573000087,333,596.63,-93.1,0.0,-72.1,-1.04,1.01,-0.09,-0.15,-1.0,0.05,-2.79,2.86,-0.03,0.0,1.0124228365658292,1.4525150601628887,0.0006872823568775388,0.28,0,4,0.0
5.384707484000046,334,596.64,-93.2,0.0,-72.0,-1.25,0.63,-0.07,-0.18,-1.02,0.03,-2.76,2.67,-0.13,0.0,1.0361949623502325,1.4015348729161183,0.022623146558975238,0.28,0,4,0.0
5.3934275689998685,335,596.65,-93.3,0.0,-71.9,-1.49,0.35,0.04,-0.19,-1.03,0.02,-2.74,2.38,-0.09,0.0,1.0475686135046238,1.5310780515702,0.033316861759099314,0.28,0,4,0.0
5.4048437349997585,336,596.66,-93.5,0.0,-71.9,-1.44,0.04,0.17,-0.19,-1.05,0.0,-2.72,2.02,0.02,0.0,1.0670520137275408,1.450551619212498,0.05174425674237604,0.28,0,4,0.0
5.413533625999662,337,596.67,-93.6,0.0,-71.9,-1.07,-0.27,0.3,-0.17,-1.05,-0.02,-2.7,1.56,0.01,0.0,1.0638608931622593,1.1435908359199107,0.04758207345355259,0.28,0,4,0.0
5.424655425999845,338,596.68,-93.7,-0.1,-72.0,-0.58,-0.51,0.37,-0.15,-1.05,-0.05,-2.69,1.05,0.04,0.0,1.061838029079765,0.8563877626402657,0.0446480251836372,0.28,0,4,0.0
5.433435336999992,339,596.69,-93.7,-0.2,-72.0,0.0,-0.71,0.31,-0.13,-1.02,-0.07,-2.68,0.64,-0.04,0.0,1.0306308747558457,0.7747257579298625,0.01317205344252348,0.28,0,4,0.0
5.444353097999738,340,596.7,-93.7,-0.3,-72.1,0.4,-0.89,0.16,-0.12,-0.98,-0.06,-2.68,0.27,-0.21,0.0,0.9891410415102591,0.9887871358386495,0.02775142420700183,0.28,0,4,0.0
5.4534148130001086,341,596.71,-93.6,-0.3,-72.2,0.58,-0.99,0.0,-0.12,-0.95,-0.07,-2.68,0.07,0.06,0.0,0.9601041610158764,1.1473883387938018,0.05565253860735686,0.28,0,4,0.0
5.464653666999766,342,596.72,-93.6,-0.4,-72.3,0.45,-1.0,-0.12,-0.12,-0.92,-0.08,-2.68,-0.03,-0.06,0.0,0.9312357381458253,1.1031319050775388,0.0828305422478598,0.28,0,4,0.0
5.473548962999757,343,596.73,-93.5,-0.3,-72.4,0.12,-0.99,-0.28,-0.13,-0.92,-0.08,-2.68,-0.01,0.02,0.0,0.9325770745627409,1.0358088626768938,0.07985942171432536,0.28,0,4,0.0
5.484561529000075,344,596.74,-93.6,-0.3,-72.5,-0.23,-1.02,-0.48,-0.14,-0.92,-0.07,-2.68,0.01,-0.06,0.0,0.9332202312423366,1.1505216208311775,0.07763193973403504,0.28,0,4,0.0
5.49342205899984,345,596.75,-93.6,-0.3,-72.6,-0.58,-1.11,-0.66,-0.15,-0.93,-0.07,-2.68,0.0,0.02,0.0,0.9446163242290492,1.415662389130968,0.06491112981237601,0.28,0,4,0.0
5.504690623999977,346,596.76,-93.7,-0.2,-72.7,-0.89,-1.24,-0.81,-0.15,-0.93,-0.06,-2.68,0.0,-0.11,0.0,0.9439279633531364,1.727946758439044,0.06428750087452306,0.28,0,4,0.0
5.513668000000052,347,596.77,-93.8,-0.1,-72.9,-1.02,-1.45,-0.99,-0.15,-0.95,-0.07,-2.68,0.0,-0.19,0.0,0.9643132271207318,2.0305171754998774,0.04302419236478916,0.28,0,4,0.0
5.5246673689998715,348,596.78,-93.9,0.0,-73.0,-0.99,-1.64,-1.17,-0.14,-0.96,-0.07,-2.68,0.04,0.06,0.0,0.9726767191621274,2.2446826056260156,0.03396748631692559,0.28,0,4,0.0
5.533540657999765,349,596.79,-94.0,0.0,-73.2,-1.0,-1.78,-1.33,-0.14,-0.95,-0.09,-2.68,0.08,0.06,0.0,0.9644687656943588,2.436657546722559,0.04133193098900023,0.28,0,4,0.0
5.544600849999824,350,596.8,-94.1,0.1,-73.4,-1.05,-1.86,-1.46,-0.13,-0.97,-0.09,-2.68,0.08,0.05,0.0,0.9828021163998376,2.5872185837304125,0.02253860867785107,0.28,0,4,0.0
5.553415069000039,351,596.81,-94.2,0.3,-73.6,-1.15,-1.96,-1.64,-0.13,-0.97,-0.09,-2.67,0.2,0.01,0.0,0.9828021163998376,2.802445360751927,0.022087836504294134,0.28,0,4,0.0
5.564672165000047,352,596.82,-94.3,0.4,-73.8,-1.3,-2.02,-1.76,-0.13,-0.96,-0.1,-2.67,0.27,-0.07,0.0,0.973909646733207,2.9779187362988937,0.03036070004750624,0.28,0,4,0.0
5.573406064999745,353,596.83,-94.5,0.6,-74.0,-1.58,-2.14,-1.84,-0.13,-0.97,-0.09,-2.67,0.19,-0.06,0.0,0.9828021163998376,3.2344396732664533,0.021038865773258197,0.28,0,4,0.0
5.584588497999903,354,596.84,-94.6,0.8,-74.3,-1.62,-2.23,-1.95,-0.13,-0.98,-0.1,-2.67,0.27,0.07,0.0,0.9936297097007516,3.3763589856530363,0.01000704702289723,0.28,0,4,0.0
5.593417310999939,355,596.85,-94.8,0.9,-74.5,-1.7,-2.29,-2.07,-0.16,-0.97,-0.06,-2.66,0.37,-0.04,0.0,0.9849365461794988,3.5240601583968454,0.01832620633326698,0.28,0,4,0.0
5.604664885999682,356,596.86,-95.0,1.1,-74.8,-2.25,-2.51,-2.03,-0.16,-1.0,0.0,-2.66,0.39,-0.1,0.0,1.012719112093773,3.934907876939433,0.009267232389387203,0.28,0,4,0.0
5.617660489999707,357,596.87,-95.3,1.3,-75.1,-3.02,-2.79,-1.86,-0.11,-1.11,0.05,-2.66,0.35,0.05,0.0,1.1165572085656874,4.512659969463686,0.1108432222840754,0.28,0,4,0.0
5.6255971199998385,358,596.88,-95.6,1.4,-75.4,-4.12,-3.08,-1.55,0.01,-1.26,0.02,-2.65,0.48,-0.03,0.0,1.260198397078809,5.372457538222149,0.24939472258125317,0.28,0,4,0.0
5.633429743999841,359,596.89,-96.0,1.5,-75.7,-4.07,-2.92,-1.11,0.17,-1.43,-0.05,-2.65,0.57,0.18,0.0,1.4409371950227392,5.130633489151218,0.4215308501146797,0.28,1,5,1.0
5.644459626999833,360,596.9,-96.3,1.6,-76.0,-1.95,-2.53,-0.74,0.3,-1.51,-0.09,-2.64,0.73,0.0,0.0,1.5421413683576484,3.278871757175019,0.512280322980597,0.28,0,5,1.0
5.653529354000057,361,596.91,-96.4,1.6,-76.2,1.39,-2.33,-0.33,0.34,-1.45,-0.05,-2.64,-0.01,0.95,1.19,1.4901677757890217,2.7331117796387328,0.45110059580373085,0.28,0,5,1.0
5.664650140000049,362,596.92,-96.0,1.6,-76.4,5.51,-1.99,-0.11,0.33,-1.3,-0.12,-2.64,-0.68,1.0,1.19,1.3465882815471104,5.859377099999623,0.30137067953058305,0.28,0,5,1.0
5.673533552999743,363,596.93,-95.3,1.6,-76.6,8.14,-1.5,-0.35,0.21,-1.07,-0.07,-2.65,-0.53,1.42,1.19,1.0926573113286708,8.284449287671452,0.046490915125900534,0.28,0,5,1.0
5.684654258999672,364,596.94,-94.5,1.7,-76.8,8.43,-1.57,-0.97,0.06,-0.86,0.05,-2.65,-0.42,1.18,1.19,0.8635392289873112,8.629640780472846,0.17897462387115004,0.28,0,5,1.0
5.693423573000018,365,596.95,-93.7,1.8,-76.9,6.47,-1.91,-1.4,-0.07,-0.67,0.11,-2.66,-0.48,1.06,1.19,0.6825686778632609,6.889775032611732,0.35274627149529625,0.28,0,5,1.0
5.704750576999686,366,596.96,-93.2,1.9,-77.2,3.39,-2.53,-1.53,-0.18,-0.57,0.09,-2.66,-0.63,1.01,1.19,0.6044832503882965,4.498210755400418,0.4222150649908555,0.28,0,5,1.0
5.7135338039997805,367,596.97,-93.1,2.1,-77.5,0.62,-3.23,-1.46,-0.21,-0.59,0.04,-2.67,-0.8,1.11,1.19,0.6275348595894892,3.5984580030896565,0.39118018667386956,0.28,0,5,1.0
5.724578759999986,368,596.98,-93.1,2.2,-77.8,-0.69,-3.85,-1.38,-0.22,-0.67,0.0,-2.68,-0.8,1.33,1.19,0.7051950084905594,4.147649937012525,0.3072496370173434,0.28,0,5,1.0
5.733607182000014,369,596.99,-93.2,2.3,-78.3,-0.85,-4.42,-1.24,-0.19,-0.76,-0.03,-2.68,-0.61,1.25,1.19,0.7839642849007855,4.6686721881065925,0.2239107533949749,0.28,0,5,1.0
5.744583034999778,370,597.0,-93.3,2.4,-78.7,-0.51,-4.86,-0.89,-0.14,-0.84,-0.04,-2.69,-0.35,1.38,1.19,0.8525256594378845,4.967071571862037,0.15224239128071848,0.28,0,5,1.0
5.753415048000079,371,597.01,-93.3,2.4,-79.3,0.0,-5.29,-0.51,-0.04,-0.92,-0.05,-2.69,-0.16,1.21,1.19,0.9222255689363639,5.31452726025561,0.08089163214659423,0.28,0,5,1.0
5.764760646000013,372,597.02,-93.3,2.4,-79.8,0.34,-5.48,-0.18,0.05,-1.06,-0.05,-2.69,-0.26,1.18,1.19,1.0623558725775464,5.4934870528654205,0.05805389806469652,0.28,0,5,1.0
5.773425278000104,373,597.03,-93.3,2.4,-80.4,0.35,-5.49,-0.21,0.14,-1.19,-0.04,-2.7,-0.89,1.13,1.19,1.1988744721612852,5.5051521323211405,0.19068104769546657,0.28,0,5,1.0
5.7848424879998674,374,597.04,-93.3,2.4,-80.9,0.48,-5.54,-0.49,0.23,-1.26,-0.06,-2.71,-1.67,1.33,1.19,1.2822246293064254,5.582302392382555,0.2685505807437947,0.28,0,5,1.0
5.793423349000022,375,597.05,-93.2,2.5,-81.5,1.0,-5.43,-0.85,0.32,-1.27,-0.1,-2.73,-2.17,1.02,1.19,1.3135067567393781,5.586358384493425,0.29383605401321233,0.28,0,5,1.0
5.8050598849999915,376,597.06,-93.1,2.5,-82.0,1.73,-5.23,-1.16,0.39,-1.23,-0.13,-2.76,-2.67,1.11,1.19,1.2968808734806756,5.629511524102247,0.2716659673394197,0.28,0,5,1.0
5.813537686000018,377,597.07,-92.9,2.6,-82.5,2.27,-4.76,-1.32,0.4,-1.16,-0.19,-2.79,-2.92,1.33,1.19,1.2416521251944925,5.436257904110143,0.21210847467217198,0.28,0,5,0.0
5.824827198000094,378,597.08,-92.7,2.8,-83.0,2.43,-4.12,-1.49,0.35,-1.1,-0.19,-2.82,-3.12,0.86,1.19,1.1698717878468565,5.0099301392334805,0.13752157457804515,0.28,0,5,0.0
5.833518628000093,379,597.09,-92.5,2.9,-83.3,2.07,-3.38,-1.73,0.28,-1.05,-0.16,-2.85,-2.6,0.31,0.0,1.0984079387914127,4.324604028116331,0.06473657101214925,0.28,0,5,0.0
5.844778860999668,380,597.1,-92.3,3.1,-83.6,1.47,-2.8,-2.04,0.18,-1.03,-0.09,-2.87,-1.4,0.14,0.0,1.0494760597555335,3.763309713536742,0.015488598136744525,0.28,0,5,0.0
5.853429251999842,381,597.11,-92.3,3.3,-83.9,0.79,-2.57,-2.38,0.09,-1.02,-0.04,-2.87,-0.6,0.22,0.0,1.0247438704378768,3.5907380856865627,0.009058719357293965,0.28,0,5,0.0
5.864828376999867,382,597.12,-92.2,3.6,-84.2,0.4,-2.52,-2.64,0.04,-1.01,-0.03,-2.88,-0.17,-0.07,0.0,1.011236866416568,3.671511950137164,0.02211440891103078,0.28,0,5,0.0
5.8734433380000155,383,597.13,-92.2,3.8,-84.5,0.11,-2.67,-2.68,0.03,-0.98,-0.01,-2.88,0.03,0.15,0.0,0.9805100713404222,3.78462679798154,0.05178437990743312,0.28,0,5,0.0
5.8848712609997165,384,597.14,-92.2,4.1,-84.7,0.05,-2.97,-2.69,0.04,-0.98,-0.01,-2.88,-0.06,-0.04,0.0,0.9808669634563089,4.007430598276157,0.0503989380357156,0.28,0,5,0.0
5.893390187000023,385,597.15,-92.2,4.3,-85.1,0.1,-3.26,-2.69,0.06,-0.97,-0.01,-2.88,-0.24,-0.04,0.0,0.9719053451854249,4.227729887303587,0.05817334518046757,0.28,0,5,0.0
5.9047822269999415,386,597.16,-92.2,4.6,-85.4,0.06,-3.42,-2.6,0.11,-0.96,-0.06,-2.88,-0.38,-0.02,0.0,0.9681425514871248,4.296510211788167,0.06069741610119228,0.28,0,5,0.0
5.913554853999813,387,597.17,-92.3,4.8,-85.8,0.24,-3.61,-2.5,0.14,-0.97,-0.06,-2.89,-0.6,0.0,0.0,0.9818859404228171,4.397692576795245,0.04601494662218997,0.28,0,5,0.0
5.924444097000105,388,597.18,-92.3,5.1,-86.2,0.61,-3.73,-2.38,0.17,-0.96,-0.08,-2.9,-0.95,-0.04,0.0,0.9782126558167197,4.466475120271017,0.048694466603721676,0.28,0,5,0.0
5.933789609000087,389,597.19,-92.2,5.3,-86.6,1.0,-3.73,-2.22,0.2,-0.96,-0.11,-2.91,-1.28,0.0,0.0,0.9867623827447011,4.454357417181518,0.039341844882225474,0.28,0,5,0.0
5.944982921999781,390,597.2,-92.1,5.5,-86.9,1.38,-3.68,-2.06,0.22,-0.95,-0.13,-2.92,-1.8,-0.03,0.0,0.9837682653958706,4.437386618269812,0.04148924298643486,0.28,0,5,0.0
5.953686323000056,391,597.21,-92.0,5.7,-87.3,1.54,-3.43,-1.94,0.24,-0.94,-0.15,-2.95,-2.15,0.0,0.0,0.9816822296446034,4.230850978231212,0.04270377316294793,0.28,0,5,0.0
5.964845564999905,392,597.22,-91.9,5.9,-87.6,1.53,-3.12,-1.88,0.25,-0.93,-0.15,-2.97,-2.61,-0.35,0.0,0.9746281342132496,3.9509112872855043,0.04876271122241571,0.28,0,5,0.0
5.973741005999727,393,597.23,-91.8,6.1,-87.9,1.32,-2.77,-1.82,0.25,-0.91,-0.16,-3.0,-3.04,-0.08,0.0,0.957183368012629,3.567590223105787,0.0648833278745754,0.28,0,5,0.0
5.9849694290001025,394,597.24,-91.7,6.3,-88.2,0.94,-2.36,-1.76,0.25,-0.91,-0.17,-3.03,-3.51,0.02,0.0,0.9589056262218927,3.0904368623222185,0.06189784827200562,0.28,0,5,0.0
5.993487213999742,395,597.25,-91.7,6.4,-88.4,0.58,-1.97,-1.69,0.24,-0.91,-0.16,-3.07,-3.99,-0.09,0.0,0.9546203433826455,2.6595864340156345,0.0648594684890278,0.28,0,5,0.0
6.004865871999755,396,597.26,-91.6,6.6,-88.6,0.38,-1.61,-1.6,0.23,-0.92,-0.15,-3.11,-4.33,0.03,0.0,0.9601041610158764,2.30141260968128,0.05818813783868093,0.28,0,5,0.0
6.013760409000042,397,597.27,-91.6,6.7,-88.8,0.36,-1.28,-1.47,0.23,-0.92,-0.14,-3.16,-4.6,0.02,0.0,0.9585927185202274,1.982145302443794,0.05850558872764333,0.28,0,5,0.0
6.024611547999939,398,597.28,-91.6,6.9,-88.9,0.43,-1.01,-1.29,0.22,-0.93,-0.12,-3.2,-4.64,0.07,0.0,0.9631718434422801,1.6938417871808453,0.05284793452947889,0.28,0,5,0.0
6.033733499999926,399,597.29,-91.6,7.0,-89.0,0.52,-0.83,-1.08,0.22,-0.93,-0.11,-3.25,-4.51,0.02,0.0,0.9619771307052991,1.4579780519610026,0.052961794321130684,0.28,0,5,0.0
6.044822597999882,400,597.3,-91.5,7.1,-89.0,0.64,-0.58,-0.84,0.22,-0.92,-0.13,-3.29,-4.3,0.34,0.0,0.954829827770373,1.2048236385463227,0.058906915310935726,0.28,0,5,0.0
6.053653063999718,401,597.31,-91.4,7.1,-89.1,0.73,-0.36,-0.67,0.22,-0.93,-0.12,-3.33,-3.89,-0.14,0.0,0.9631718434422801,1.054229576515476,0.049553601646248,0.28,0,5,0.0
6.064844034000089,402,597.32,-91.4,7.2,-89.1,0.79,-0.11,-0.48,0.22,-0.91,-0.12,-3.37,-3.4,0.03,0.0,0.9438749917229505,0.9309135298189624,0.06747344429826607,0.28,0,5,0.0
6.073752969999987,403,597.33,-91.3,7.2,-89.1,0.91,0.06,-0.29,0.22,-0.92,-0.11,-3.4,-2.77,0.05,0.0,0.9523129737644027,0.9569743988216195,0.05785475301167753,0.28,0,5,0.0
6.084786966999673,404,597.34,-91.2,7.3,-89.1,0.98,0.23,-0.15,0.21,-0.9,-0.11,-3.42,-2.22,0.13,0.0,0.9306986622962343,1.0177426000713539,0.07787968319024907,0.28,0,5,0.0
6.093672169999991,405,597.35,-91.1,7.3,-89.1,0.92,0.39,-0.01,0.2,-0.9,-0.09,-3.44,-1.59,-0.02,0.0,0.9263368717696603,0.9992997548283498,0.08059664424248658,0.28,0,5,0.0
6.104899385999943,406,597.36,-91.0,7.3,-89.0,0.78,0.5,0.11,0.2,-0.89,-0.08,-3.45,-0.96,0.15,0.0,0.9156964562561111,0.9330058949438638,0.08941231856091514,0.28,0,5,0.0
6.113754177999908,407,597.37,-90.9,7.3,-89.0,0.66,0.58,0.24,0.2,-0.89,-0.08,-3.46,-0.43,0.1,0.0,0.9156964562561111,0.910823802938856,0.08762407218969692,0.28,0,5,0.0
6.124874622999869,408,597.38,-90.8,7.2,-88.9,0.55,0.7,0.38,0.2,-0.89,-0.09,-3.46,-0.06,0.09,0.0,0.916624241442479,0.9679359482941007,0.0849623612632624,0.28,0,5,0.0
6.133645575999708,409,597.39,-90.8,7.2,-88.8,0.5,0.85,0.51,0.21,-0.9,-0.11,-3.46,0.09,-0.04,0.0,0.9306986622962343,1.1102252023801298,0.06947018160131702,0.28,0,5,0.0
6.144816226999865,410,597.4,-90.7,7.1,-88.7,0.42,1.08,0.67,0.22,-0.89,-0.12,-3.46,-0.01,-0.05,0.0,0.9246080250571049,1.3385439850822982,0.07404960246363745,0.28,0,5,0.0
6.15370183999994,411,597.41,-90.7,7.0,-88.6,0.27,1.39,0.76,0.23,-0.9,-0.14,-3.46,0.0,0.01,0.0,0.9394147114027968,1.6070469812671937,0.058058057795586704,0.28,0,5,0.0
6.164866287999757,412,597.42,-90.6,7.0,-88.4,0.0,1.76,0.81,0.23,-0.91,-0.15,-3.46,0.0,-0.06,0.0,0.9505261700763424,1.937446773462435,0.04600766713960025,0.28,0,5,0.0
6.173503157999676,413,597.43,-90.6,6.9,-88.2,-0.25,2.18,0.86,0.23,-0.92,-0.14,-3.46,0.0,-0.06,0.0,0.9585927185202274,2.356798676170708,0.03718229632180092,0.28,0,5,0.0
6.18487848399991,414,597.44,-90.6,6.8,-88.0,-0.29,2.51,0.89,0.23,-0.94,-0.13,-3.46,0.01,-0.05,0.0,0.9764220398987314,2.6788616985578035,0.018965915444430936,0.28,0,5,0.0
6.19371393199981,415,597.45,-90.6,6.7,-87.7,-0.24,2.73,0.98,0.22,-0.93,-0.11,-3.46,0.0,0.0,0.0,0.9619771307052991,2.9104810598937076,0.03274260814510599,0.28,0,5,0.0
6.204827358999864,416,597.46,-90.6,6.6,-87.4,-0.3,2.79,1.04,0.2,-0.94,-0.08,-3.46,0.03,0.09,0.0,0.9643650760992954,2.992607558635111,0.029747569496087478,0.28,0,5,0.0
6.213551933999952,417,597.47,-90.6,6.5,-87.2,-0.27,2.89,1.1,0.2,-0.94,-0.09,-3.46,0.1,-0.06,0.0,0.9652460826131334,3.1040296390337514,0.028289231722604558,0.28,0,5,0.0
6.224982678999822,418,597.48,-90.6,6.4,-86.9,-0.41,2.93,1.16,0.19,-0.94,-0.08,-3.46,0.14,0.01,0.0,0.9623408959407264,3.1778294479093745,0.030570530027111298,0.28,0,5,0.0
6.233542039999975,419,597.49,-90.6,6.3,-86.6,-0.62,2.88,1.27,0.19,-0.94,-0.09,-3.45,0.32,0.01,0.0,0.9632237538599222,3.2080679543924875,0.029093918665757168,0.28,0,5,0.0
6.244806907000111,420,597.5,-90.7,6.1,-86.3,-0.58,2.94,1.4,0.19,-0.95,-0.1,-3.45,0.61,0.17,0.0,0.9739609848448756,3.307567081708245,0.017989553927187707,0.28,0,5,0.0
6.253548710999894,421,597.51,-90.7,6.0,-86.0,-0.4,3.0,1.52,0.2,-0.95,-0.12,-3.44,0.93,0.16,0.0,0.9782126558167197,3.3867978977199096,0.013463125296236722,0.28,0,5,0.0
6.2646105849999,422,597.52,-90.7,5.8,-85.7,-0.37,3.03,1.61,0.19,-0.96,-0.09,-3.43,1.41,0.17,0.0,0.9827512401416749,3.4510722971273724,0.008746050151855811,0.28,0,5,0.0
6.273536067999885,423,597.53,-90.7,5.7,-85.4,-0.44,3.01,1.64,0.17,-0.98,-0.07,-3.41,1.86,0.07,0.0,0.9970957827611147,3.455907984886171,0.005486522618232237,0.28,0,5,0.0
6.284704754999893,424,597.54,-90.8,5.6,-85.1,-0.61,2.9,1.65,0.14,-0.98,-0.05,-3.39,2.3,0.19,0.0,0.9912113800799504,3.391843156751208,0.0003899224616734642,0.28,0,5,0.0
6.293425913999727,425,597.55,-90.8,5.4,-84.8,-0.66,2.75,1.68,0.14,-0.97,-0.05,-3.36,2.73,0.12,0.0,0.9813256340277675,3.2894528420392346,0.01007015514357923,0.28,0,5,0.0
6.30491324400009,426,597.56,-90.9,5.3,-84.5,-0.6,2.61,1.77,0.13,-0.98,-0.04,-3.33,3.26,-0.15,0.0,0.9893937537704591,3.2101401838549046,0.0019619946928698395,0.28,0,5,0.0
6.313536804999785,427,597.57,-90.9,5.1,-84.3,-0.5,2.49,1.88,0.13,-0.96,-0.04,-3.29,3.76,0.0,0.0,0.9695875411740809,3.1598259445735297,0.021332843143463176,0.28,0,5,0.0
6.3246043559997815,428,597.58,-91.0,5.0,-84.0,-0.35,2.41,2.04,0.12,-0.95,-0.05,-3.25,4.2,0.18,0.0,0.9588534820294495,3.176822311681911,0.03142556424233256,0.28,0,5,0.0
6.3335467779998,429,597.59,-91.0,4.8,-83.8,-0.31,2.3,2.21,0.13,-0.93,-0.06,-3.21,4.51,0.11,0.0,0.9409569596958196,3.2047152759644653,0.04833564484444319,0.28,0,5,0.0
6.344516869000017,430,597.6,-91.1,4.6,-83.5,-0.48,2.27,2.33,0.14,-0.92,-0.07,-3.16,4.69,0.02,0.0,0.9332202312423366,3.2881909920197763,0.0549509258319677,0.28,0,5,0.0
6.353420124999957,431,597.61,-91.1,4.4,-83.3,-0.7,2.31,2.39,0.15,-0.92,-0.08,-3.12,4.77,0.0,0.0,0.9355746896961247,3.3967926047964716,0.05154453803061598,0.28,0,5,0.0
6.364799208000022,432,597.62,-91.2,4.2,-83.1,-0.93,2.44,2.45,0.17,-0.92,-0.1,-3.07,4.76,0.03,0.0,0.9409038208021052,3.580642400463917,0.04529109878614268,0.28,0,5,0.0
6.373432847000004,433,597.63,-91.3,3.9,-82.8,-1.12,2.61,2.5,0.18,-0.93,-0.1,-3.02,4.65,0.05,0.0,0.9525229656024048,3.783715105554328,0.032998514906126264,0.28,0,5,0.0
6.3848114389998045,434,597.64,-91.4,3.7,-82.5,-1.15,2.88,2.58,0.18,-0.94,-0.11,-2.97,4.55,0.1,0.0,0.9633794683301071,4.034017848250055,0.021699171934855488,0.28,0,5,0.0
6.393423144999815,435,597.65,-91.5,3.4,-82.2,-1.12,3.11,2.69,0.18,-0.94,-0.1,-2.93,4.48,-0.28,0.0,0.9622889378975527,4.261760199729684,0.02233390832006177,0.28,0,5,0.0
6.404864586999793,436,597.66,-91.6,3.1,-81.9,-1.11,3.32,2.81,0.19,-0.94,-0.12,-2.89,4.43,-0.1,0.0,0.9664884893261791,4.488941968883091,0.017771669753606556,0.28,0,5,0.0
6.413531652000074,437,597.67,-91.6,2.9,-81.5,-1.17,3.57,2.92,0.2,-0.94,-0.13,-2.84,4.38,0.0,0.0,0.9697937925146768,4.758171917869299,0.014177039233806754,0.28,0,5,0.0
6.42478294600005,438,597.68,-91.8,2.6,-81.1,-1.22,3.89,2.98,0.2,-0.93,-0.14,-2.8,4.46,0.06,0.0,0.9615092303249096,5.049841581673627,0.022012369395102427,0.28,0,5,0.0
6.4335471310000685,439,597.69,-91.9,2.3,-80.7,-1.29,4.21,3.07,0.2,-0.92,-0.14,-2.75,4.6,-0.22,0.0,0.9518403227432635,5.367783527676949,0.031047651437213664,0.28,0,5,0.0
6.444811643999856,440,597.7,-92.0,2.0,-80.3,-1.71,4.59,3.1,0.11,-0.98,-0.1,-2.71,4.13,-0.11,0.0,0.9912113800799505,5.796740463398374,0.008156937781483853,0.28,0,5,0.0
6.453423586000099,441,597.71,-92.2,1.7,-79.8,-2.78,4.76,2.82,0.03,-1.1,0.0,-2.67,3.14,-0.08,0.0,1.100409014866745,6.191801030394952,0.11500748111691272,0.28,0,5,0.0
6.464670258999831,442,597.72,-92.5,1.5,-79.3,-3.82,4.92,2.33,0.05,-1.24,0.06,-2.65,2.09,-0.33,0.0,1.2424572427250766,6.650390965950799,0.2519145947957395,0.28,0,5,0.0
6.473421656000028,443,597.73,-92.9,1.3,-78.8,-5.08,5.1,1.41,-0.06,-1.54,0.16,-2.63,1.08,-0.08,0.0,1.549451515859725,7.335155076751957,0.5477306905717803,0.28,1,6,1.0
6.484781908000059,444,597.74,-93.4,1.3,-78.3,-6.04,4.78,0.29,-0.18,-1.69,0.2,-2.63,0.03,-0.15,0.0,1.711286066091815,7.708054229181318,0.6953739359877928,0.28,0,6,1.0
6.49342197399983,445,597.75,-94.0,1.3,-77.9,-5.26,3.48,-0.69,-0.24,-1.74,0.23,-2.64,-1.28,0.9,1.19,1.7714683175264525,6.344611887263081,0.7404450636739817,0.28,0,6,1.0
6.504903760999696,446,597.76,-94.4,1.5,-77.6,-1.59,2.02,-1.3,-0.21,-1.49,0.13,-2.67,-3.26,0.86,1.19,1.5103310895297097,2.880711717614243,0.4697216789636942,0.28,0,6,1.0
6.513540889000069,447,597.77,-94.3,1.6,-77.5,2.29,1.0,-1.2,-0.09,-1.13,0.09,-2.71,-4.36,1.2,1.19,1.137145549171257,2.772020923441957,0.09460541583313664,0.28,0,6,1.0
6.524813217999963,448,597.78,-93.9,1.7,-77.4,4.17,-0.19,-0.74,0.04,-0.82,0.11,-2.75,-4.3,1.48,1.19,0.8283115355951527,4.239410336355753,0.20994402578810822,0.28,0,6,1.0
6.533497462000014,449,597.79,-93.5,1.8,-77.5,4.51,-0.52,-0.18,0.16,-0.67,0.0,-2.79,-3.01,1.39,1.19,0.688839603971781,4.543445828883623,0.3424276382632503,0.28,0,6,1.0
6.544743801000095,450,597.8,-93.1,1.7,-77.5,3.6,0.06,0.18,0.26,-0.6,-0.12,-2.8,-0.9,1.51,1.19,0.6648308055437865,3.6049965325919526,0.35910770795742,0.28,0,6,1.0
6.553436392000094,451,597.81,-92.8,1.7,-77.5,1.26,1.04,0.52,0.24,-0.62,-0.11,-2.8,0.33,1.2,1.19,0.6738694235532579,1.7145261736118234,0.3430677081489897,0.28,0,6,1.0
6.564699724000093,452,597.82,-92.8,1.6,-77.3,-1.04,1.73,0.86,0.22,-0.69,-0.07,-2.8,0.41,1.42,1.19,0.7275987905432498,2.1941057403871858,0.2835515743358178,0.28,0,6,1.0
6.573419988999831,453,597.83,-93.0,1.6,-77.1,-1.85,2.07,1.16,0.2,-0.8,-0.06,-2.79,0.41,1.27,1.19,0.8268010643437756,3.0088203668547577,0.18066231452458614,0.28,0,6,1.0
6.5846730640000715,454,597.84,-93.2,1.4,-76.9,-1.48,2.19,1.45,0.16,-0.85,-0.05,-2.79,0.41,1.14,1.19,0.8663717446916189,3.014796842243271,0.1382698014932081,0.28,0,6,1.0
6.593417034999675,455,597.85,-93.3,1.3,-76.6,-0.84,2.36,1.72,0.14,-0.85,-0.11,-2.78,0.38,1.15,1.19,0.8684468895678077,3.038683925649392,0.133470763484679,0.28,0,6,1.0
6.604870803999802,456,597.86,-93.3,1.1,-76.4,-0.86,2.93,1.83,0.14,-0.87,-0.16,-2.78,0.08,0.96,1.19,0.8956003573022958,3.559971910001538,0.10419094983518706,0.28,0,6,1.0
6.617741284999738,457,597.87,-93.5,1.0,-76.0,-1.44,3.57,1.7,0.13,-0.93,-0.13,-2.78,-0.02,1.33,1.19,0.9479978902930112,4.20814686055513,0.050757548507582295,0.28,0,6,1.0
6.625443525999799,458,597.88,-93.6,0.9,-75.6,-2.09,4.09,1.38,0.1,-1.0,-0.09,-2.78,0.02,1.21,1.19,1.0090094152187083,4.795894077228978,0.010048896889752523,0.28,0,6,1.0
6.633227226999679,459,597.89,-93.9,0.8,-75.2,-2.42,4.48,1.08,0.06,-1.08,-0.06,-2.78,0.0,1.03,1.19,1.0833282051160673,5.205112871014422,0.08268033305136924,0.28,0,6,1.0
6.644474962999993,460,597.9,-94.1,0.8,-74.7,-2.03,4.61,0.8,0.04,-1.13,-0.03,-2.78,-0.01,1.3,1.19,1.1311056537742175,5.100294109166647,0.1278486260753291,0.28,0,6,1.0
6.653126701000019,461,597.91,-94.2,0.7,-74.3,-1.16,4.59,0.61,0.04,-1.14,-0.02,-2.78,0.0,1.15,1.19,1.1408768557561328,4.773447391560946,0.1348674314960996,0.28,0,6,1.0
6.664609848000055,462,597.92,-94.2,0.7,-73.8,-0.21,4.64,0.49,0.03,-1.13,-0.05,-2.78,0.0,1.24,1.19,1.1315034246523514,4.670524595802917,0.1229841203844717,0.28,0,6,0.0
6.673360519999733,463,597.93,-94.2,0.7,-73.3,0.45,4.69,0.37,0.0,-1.09,-0.04,-2.78,0.0,1.18,1.19,1.0907336980216575,4.726044858018172,0.08057010587870228,0.28,0,6,0.0
6.684659858000032,464,597.94,-94.1,0.7,-72.9,0.78,4.8,0.3,-0.02,-1.04,-0.03,-2.78,0.35,0.08,0.0,1.0406248123122954,4.87220689215883,0.02985199576595332,0.28,0,6,0.0
6.693530411999745,465,597.95,-94.0,0.7,-72.4,0.81,4.9,0.26,-0.05,-0.99,-0.01,-2.77,0.91,0.03,0.0,0.991312261600753,4.9732987040796175,0.01907134384667719,0.28,0,6,0.0
6.705047418000049,466,597.96,-93.9,0.7,-71.9,0.57,4.85,0.24,-0.06,-0.96,0.0,-2.76,1.19,-0.01,0.0,0.9618731725128838,4.889273974732854,0.04754022427585547,0.28,0,6,0.0
6.71753818399975,467,597.97,-93.8,0.7,-71.4,0.52,4.73,0.23,-0.03,-0.93,0.01,-2.75,1.29,0.06,0.0,0.9305374790947435,4.764052896431777,0.07729839934011584,0.28,0,6,0.0
6.725343442999929,468,597.98,-93.7,0.7,-70.9,0.6,4.64,0.21,0.0,-0.91,0.0,-2.74,1.18,0.03,0.0,0.91,4.6833428232406815,0.0958791608661621,0.28,0,6,0.0
6.733546082999965,469,597.99,-93.6,0.7,-70.5,0.36,4.48,0.17,0.03,-0.92,-0.01,-2.73,1.01,-0.07,0.0,0.9205433178292046,4.497654944523869,0.08362912617621832,0.28,0,6,0.0
6.74465334999968,470,598.0,-93.6,0.7,-70.0,0.0,4.35,0.1,0.03,-0.95,-0.02,-2.72,0.79,-0.26,0.0,0.9506839643120104,4.351149273467873,0.05241871009954435,0.28,0,6,0.0
6.753411013999994,471,598.01,-93.5,0.7,-69.6,-0.27,4.17,0.0,0.0,-1.0,-0.02,-2.71,0.54,-0.07,0.0,1.000199980003999,4.178731865051884,0.0028446405194046953,0.28,0,6,0.0
6.764668487000108,472,598.02,-93.5,0.7,-69.2,-0.15,3.92,-0.09,-0.02,-1.04,-0.03,-2.71,-0.02,-0.09,0.0,1.0406248123122954,3.923901120058965,0.036828587953114056,0.28,0,6,0.0
6.773429589999978,473,598.03,-93.5,0.7,-68.8,0.2,3.66,-0.13,-0.06,-1.08,-0.04,-2.71,-0.17,0.04,0.0,1.0824047302187847,3.6677649870186615,0.07703633574241131,0.28,0,6,0.0
6.784678024999721,474,598.04,-93.5,0.7,-68.5,0.54,3.3,-0.13,-0.1,-1.08,-0.04,-2.71,-0.12,-0.05,0.0,1.0853570840972109,3.3464159932680215,0.07838891582842078,0.28,0,6,0.0
6.793591254999683,475,598.05,-93.4,0.7,-68.2,0.84,2.9,-0.17,-0.15,-1.08,-0.04,-2.71,-0.12,-0.06,0.0,1.0911003620199198,3.0239874338363246,0.08244954987610709,0.28,0,6,0.0
6.804591204999724,476,598.06,-93.3,0.8,-67.9,1.0,2.53,-0.21,-0.17,-1.06,-0.05,-2.71,-0.1,-0.07,0.0,1.074709263010234,2.7285527299284507,0.06473728184909278,0.28,0,6,0.0
6.8135279479997735,477,598.07,-93.2,0.8,-67.7,0.95,2.1,-0.21,-0.18,-1.03,-0.06,-2.72,-0.11,0.0,0.0,1.047329938462565,2.314432975914403,0.03661079815539536,0.28,0,6,0.0
6.8246960679998665,478,598.08,-93.1,0.8,-67.5,0.79,1.69,-0.22,-0.18,-1.03,-0.05,-2.72,-0.25,-0.03,0.0,1.0468046618161384,1.8784568134508708,0.0353638110787895,0.28,0,6,0.0
6.833554246999938,479,598.09,-93.0,0.9,-67.3,0.73,1.27,-0.23,-0.17,-1.02,-0.05,-2.72,-0.48,-0.03,0.0,1.0352777405121776,1.4828014027508876,0.023360151979332056,0.28,0,6,0.0
6.84465281499979,480,598.1,-92.9,0.9,-67.2,0.66,0.74,-0.12,-0.15,-1.0,-0.04,-2.73,-0.63,0.02,0.0,1.0119782606360672,0.9987992791347018,5.94586611573078e-05,0.28,0,6,0.0
6.853405906999797,481,598.11,-92.9,0.9,-67.2,0.55,0.29,0.03,-0.13,-1.0,-0.06,-2.73,-0.68,0.05,0.0,1.010198000393982,0.6224949798994367,0.0016863855493092217,0.28,0,6,0.0
6.86481832499976,482,598.12,-92.8,0.9,-67.2,0.44,-0.08,0.27,-0.11,-0.98,-0.07,-2.74,-0.64,0.04,0.0,0.9886354231970448,0.522398315464359,0.022783983491321602,0.28,0,6,0.0
6.873424396999781,483,598.13,-92.8,0.8,-67.2,0.28,-0.33,0.54,-0.09,-0.99,-0.08,-2.75,-0.57,-0.14,0.0,0.9972963451251589,0.6920260110718383,0.013840600331943342,0.28,0,6,0.0
6.884650947999944,484,598.14,-92.8,0.7,-67.2,0.07,-0.45,0.78,-0.07,-1.0,-0.1,-2.75,-0.35,0.03,0.0,1.007422453591342,0.903216474606171,0.00364020202844495,0.28,0,6,0.0
6.893501167000068,485,598.15,-92.8,0.6,-67.3,-0.06,-0.46,0.95,-0.05,-1.02,-0.11,-2.75,-0.1,0.05,0.0,1.0271319292087069,1.0572133181151284,0.015747888117141562,0.28,0,6,0.0
6.90498317599986,486,598.16,-92.9,0.5,-67.3,-0.02,-0.44,1.04,-0.05,-1.01,-0.12,-2.75,0.05,-0.19,0.0,1.0183319694480772,1.12942463227964,0.006808969789381614,0.28,0,6,0.0
6.913551981999717,487,598.17,-92.9,0.3,-67.4,0.07,-0.34,1.13,-0.04,-1.0,-0.14,-2.75,0.01,0.01,0.0,1.0105444077327825,1.1821167455035901,0.0009590200873947907,0.28,0,6,0.0
6.924672375999762,488,598.18,-92.9,0.2,-67.4,0.28,-0.13,1.11,-0.04,-0.99,-0.15,-2.75,-0.01,0.08,0.0,1.0020977996183806,1.152128465059344,0.009217515637760743,0.28,0,6,0.0
6.933543198999814,489,598.19,-92.9,0.0,-67.4,0.17,-0.16,1.01,-0.05,-0.98,-0.1,-2.75,0.04,-0.14,0.0,0.9863569333664157,1.0366291525902598,0.024459214251931094,0.28,0,6,0.0
6.944799616999717,490,598.2,-93.0,0.0,-67.4,-0.01,-0.16,0.87,-0.07,-0.96,-0.1,-2.75,0.03,-0.05,0.0,0.9677293009927931,0.8846468221838588,0.04222510969304272,0.28,0,6,0.0
6.953409215999727,491,598.21,-93.0,-0.1,-67.4,-0.21,-0.2,0.69,-0.09,-0.97,-0.1,-2.75,0.02,0.12,0.0,0.9792854537876073,0.7484650960465691,0.030055577760263907,0.28,0,6,0.0
6.964837810000063,492,598.22,-93.0,-0.2,-67.4,-0.34,-0.23,0.5,-0.11,-0.96,-0.1,-2.75,0.02,0.0,0.0,0.9714422267947795,0.6469157595854348,0.03714082865802992,0.28,0,6,0.0
6.973546553999768,493,598.23,-93.1,-0.2,-67.5,-0.4,-0.3,0.29,-0.12,-0.96,-0.08,-2.75,0.05,-0.22,0.0,0.9707728879609278,0.578013840664737,0.037053964142044093,0.28,0,6,0.0
6.984640110999862,494,598.24,-93.1,-0.2,-67.5,-0.42,-0.43,0.08,-0.14,-0.97,-0.06,-2.75,0.0,0.0,0.0,0.9818859404228171,0.6063827174318213,0.025422093446551663,0.28,0,6,0.0
6.993673293000029,495,598.25,-93.2,-0.2,-67.5,-0.46,-0.61,-0.09,-0.15,-0.97,-0.05,-2.75,0.03,0.0,0.0,0.9828021163998376,0.7692853826766761,0.024015799120140513,0.28,0,6,0.0
7.004846640999858,496,598.26,-93.2,-0.2,-67.6,-0.55,-0.87,-0.29,-0.15,-0.97,-0.04,-2.75,0.02,-0.17,0.0,0.982344135219425,1.069345594277173,0.023984304694542158,0.28,0,6,0.0
7.013661005999893,497,598.27,-93.3,-0.2,-67.7,-0.69,-1.16,-0.49,-0.16,-0.97,-0.04,-2.75,0.0,0.13,0.0,0.9839207285142436,1.4358969322343438,0.02195955717172915,0.28,0,6,0.0
7.024811640999815,498,598.28,-93.4,-0.1,-67.9,-0.78,-1.41,-0.69,-0.15,-0.97,-0.05,-2.75,0.0,0.02,0.0,0.9828021163998376,1.7528833389589848,0.022616605900412368,0.28,0,6,0.0
7.033715155999744,499,598.29,-93.4,-0.1,-68.0,-0.87,-1.66,-0.91,-0.14,-0.97,-0.04,-2.75,0.0,-0.07,0.0,0.9808669634563089,2.0834106652314133,0.024060723667062356,0.28,0,6,0.0
7.044761382999695,500,598.3,-93.5,0.0,-68.2,-0.88,-1.9,-1.14,-0.13,-0.95,-0.03,-2.75,0.0,-0.01,0.0,0.9593226777263216,2.384114091229696,0.04469290920910851,0.28,0,6,0.0
7.053589301000102,501,598.31,-93.6,0.0,-68.4,-1.04,-2.09,-1.36,-0.12,-0.94,-0.01,-2.75,0.02,-0.01,0.0,0.9476813810558905,2.7017216733038953,0.055207521761948875,0.28,0,6,0.0
7.064653720000024,502,598.32,-93.8,0.2,-68.7,-1.7,-2.34,-1.41,-0.1,-0.95,0.04,-2.75,0.05,0.07,0.0,0.9560857702110204,3.217716581677137,0.04586706995468259,0.28,0,6,0.0
7.073655754999891,503,598.33,-94.0,0.3,-68.9,-2.96,-2.48,-1.13,-0.02,-1.04,0.04,-2.75,0.07,0.02,0.0,1.0409610943738483,4.023543214630608,0.038228089123982345,0.28,0,6,0.0
7.084720170999844,504,598.34,-94.3,0.4,-69.2,-3.82,-2.41,-0.69,0.07,-1.18,-0.02,-2.75,0.09,0.04,0.0,1.1822436297142818,4.56909181347891,0.17592041197512742,0.28,0,6,0.0
7.093655654000031,505,598.35,-94.7,0.4,-69.4,-4.11,-1.98,-0.03,0.18,-1.31,-0.05,-2.75,0.18,0.04,0.0,1.3232535660258014,4.5621705360497,0.31059174132091405,0.28,1,7,1.0
7.105745899999874,506,598.36,-95.0,0.4,-69.6,-2.53,-1.59,0.58,0.26,-1.36,-0.12,-2.74,0.34,0.09,0.0,1.3898201322473351,3.0439119566768023,0.3696151413915989,0.28,0,7,1.0
7.113413094999942,507,598.37,-95.1,0.3,-69.7,1.08,-1.04,1.0,0.27,-1.31,-0.11,-2.74,-0.21,0.99,1.19,1.342050669684271,1.8022208521710097,0.31540876525196393,0.28,0,7,1.0
7.124643415999799,508,598.38,-94.8,0.1,-69.7,5.01,-0.34,1.14,0.25,-1.13,-0.12,-2.75,-0.7,1.28,1.19,1.1635291143757425,5.149300923426402,0.13414946574456676,0.28,0,7,1.0
7.133116830999825,509,598.39,-94.2,0.0,-69.7,6.02,0.47,1.12,0.18,-0.91,-0.08,-2.75,-0.59,1.16,1.19,0.931074647920348,6.141310934971457,0.09633890069661111,0.28,0,7,1.0
7.144349482000052,510,598.4,-93.6,0.0,-69.6,4.9,0.66,0.49,0.06,-0.85,0.02,-2.76,-0.28,0.94,1.19,0.8523496934944014,4.9684705896281605,0.17156257802010655,0.28,0,7,1.0
7.153718755999762,511,598.41,-93.2,0.0,-69.6,2.97,0.69,-0.48,-0.03,-0.77,0.03,-2.76,-0.25,1.0,1.19,0.771167945391923,3.086648668054076,0.24768943960013312,0.28,0,7,1.0
7.164860282000063,512,598.42,-93.0,0.1,-69.5,1.01,0.29,-1.38,-0.15,-0.75,0.09,-2.76,-0.27,1.3,1.19,0.7701298591796061,1.7345316370709412,0.243752975296201,0.28,0,7,1.0
7.177710382999976,513,598.43,-93.0,0.2,-69.5,-1.05,-0.48,-1.84,-0.26,-0.71,0.09,-2.77,-0.48,1.07,1.19,0.7614459928320589,2.172210855326895,0.24738810481087325,0.28,0,7,1.0
7.1856488789999275,514,598.44,-93.2,0.4,-69.7,-3.02,-1.5,-1.75,-0.33,-0.76,0.13,-2.77,-0.61,1.1,1.19,0.8386894538504702,3.7990656746100084,0.1667417509166128,0.28,0,7,1.0
7.197576841999762,515,598.45,-93.6,0.5,-69.9,-3.66,-2.65,-1.43,-0.36,-0.87,0.12,-2.78,-0.76,1.36,1.19,0.9491575211733825,4.739514743093432,0.05514820992182656,0.28,0,7,1.0
7.205715858000076,516,598.46,-93.9,0.6,-70.2,-2.66,-3.78,-1.03,-0.36,-0.98,0.07,-2.79,-0.67,1.24,1.19,1.046374693883601,4.735493638471073,0.041227583532624124,0.28,0,7,1.0
7.217644730999837,517,598.47,-94.1,0.7,-70.7,-0.95,-4.81,-0.54,-0.3,-1.0,0.02,-2.79,-0.41,1.44,1.19,1.044222198576529,4.932565255523742,0.038293586461041196,0.28,0,7,1.0
7.225678180999694,518,598.48,-94.1,0.7,-71.2,0.66,-5.6,-0.05,-0.21,-1.01,0.0,-2.79,-0.1,1.34,1.19,1.0316006979447039,5.63898040429296,0.02515864411263169,0.28,0,7,1.0
7.233522544999687,519,598.49,-94.0,0.6,-71.8,1.7,-6.11,0.23,-0.1,-0.99,-0.01,-2.79,0.0,1.01,1.19,0.9950879358127099,6.346258740391854,0.011127035658975104,0.28,0,7,1.0
7.244796725000015,520,598.5,-93.8,0.5,-72.4,1.83,-6.41,0.41,0.01,-0.96,-0.02,-2.79,-0.03,1.01,1.19,0.9602603813549739,6.678704964287613,0.04503549831437681,0.28,0,7,1.0
7.253423809999731,521,598.51,-93.6,0.5,-73.0,1.74,-6.51,0.4,0.14,-0.98,-0.05,-2.79,-0.01,1.01,1.19,0.9912113800799504,6.750385174195618,0.013802809597612486,0.28,0,7,1.0
7.2647198029999345,522,598.52,-93.4,0.4,-73.7,1.74,-6.31,0.3,0.24,-0.98,-0.09,-2.79,0.0,1.22,1.19,1.0129659421717987,6.552381246539307,0.0077927174443510605,0.28,0,7,1.0
7.273394841000027,523,598.53,-93.3,0.3,-74.3,1.5,-5.92,0.21,0.3,-0.99,-0.13,-2.79,0.0,1.2,1.19,1.0425929215182692,6.110687359045626,0.036671302855005194,0.28,0,7,1.0
7.284792944999936,524,598.54,-93.2,0.3,-74.9,0.92,-5.34,0.03,0.3,-1.03,-0.15,-2.79,0.02,1.23,1.19,1.0832358930537707,5.418754469432989,0.07576798890269654,0.28,0,7,0.0
7.293551884999943,525,598.55,-93.1,0.3,-75.4,0.24,-4.75,-0.07,0.24,-1.07,-0.16,-2.79,-0.01,1.11,1.19,1.1081967334368028,4.756574397610112,0.09871425270001422,0.28,0,7,0.0
7.304782909000096,526,598.56,-93.1,0.3,-75.8,-0.13,-4.23,-0.18,0.17,-1.14,-0.12,-2.79,0.37,0.05,0.0,1.1588356225108027,4.235823414638529,0.14636607893853393,0.28,0,7,0.0
7.3137945079997735,527,598.57,-93.1,0.3,-76.2,-0.18,-3.86,-0.38,0.04,-1.2,-0.08,-2.78,1.18,0.07,0.0,1.2033287165193058,3.882834016539981,0.18704198948809636,0.28,0,7,0.0
7.324926850999873,528,598.58,-93.2,0.3,-76.6,-0.04,-3.79,-0.52,-0.05,-1.17,-0.05,-2.77,1.47,0.0,0.0,1.1721348045340176,3.8257156193318917,0.15273111595275202,0.28,0,7,0.0
7.333523395999691,529,598.59,-93.1,0.3,-77.0,0.26,-3.94,-0.55,-0.08,-1.13,-0.02,-2.75,1.42,0.18,0.0,1.1330048543585325,3.986690356674318,0.11132914246172154,0.28,0,7,0.0
7.34488373899967,530,598.6,-93.1,0.3,-77.4,0.84,-4.25,-0.61,-0.07,-1.07,-0.02,-2.74,1.22,0.0,0.0,1.0724737759031686,4.374951428301805,0.049782102726230404,0.28,0,7,0.0
7.353626055999939,531,598.61,-92.9,0.3,-77.8,1.16,-4.46,-0.61,-0.04,-1.01,-0.03,-2.73,0.97,0.0,0.0,1.011236866416568,4.648580428474912,0.011225710625162755,0.28,0,7,0.0
7.364680449999923,532,598.62,-92.8,0.3,-78.3,1.09,-4.51,-0.69,-0.02,-1.01,-0.05,-2.72,0.51,-0.2,0.0,1.0114346246792225,4.690874118967594,0.010807393315258151,0.28,0,7,0.0
7.373700985999676,533,598.63,-92.7,0.4,-78.7,0.6,-4.58,-0.94,0.0,-1.02,-0.03,-2.72,-0.16,0.03,0.0,1.0204410811016968,4.713809499757071,0.0017649181549281856,0.28,0,7,0.0
7.384755827999925,534,598.64,-92.7,0.5,-79.2,0.29,-4.57,-1.21,0.05,-1.04,-0.03,-2.73,-0.21,0.2,0.0,1.041633332799983,4.736359361366069,0.01903878687249083,0.28,0,7,0.0
7.393809970999882,535,598.65,-92.7,0.6,-79.7,0.3,-4.59,-1.45,0.09,-1.06,-0.05,-2.73,-0.08,-0.01,0.0,1.0649882628461218,4.8229244240398375,0.041545842580257064,0.28,0,7,0.0
7.4047776819998035,536,598.66,-92.7,0.8,-80.1,0.34,-4.53,-1.58,0.13,-1.06,-0.09,-2.73,-0.07,0.11,0.0,1.0717275773255068,4.809667348164528,0.04731945391844916,0.28,0,7,0.0
7.41378331199985,537,598.67,-92.6,0.9,-80.6,0.49,-4.33,-1.62,0.15,-1.04,-0.11,-2.73,-0.21,-0.1,0.0,1.0565036677645754,4.649021402402876,0.03145363347036745,0.28,0,7,0.0
7.424724709999737,538,598.68,-92.6,1.1,-81.0,0.62,-4.05,-1.74,0.15,-1.02,-0.13,-2.73,-0.38,-0.14,0.0,1.0391342550411857,4.451348110404307,0.013802536332038207,0.28,0,7,0.0
7.433681668999725,539,598.69,-92.5,1.2,-81.4,0.52,-3.76,-1.83,0.15,-0.98,-0.13,-2.74,-0.54,-0.08,0.0,0.9998999949994999,4.213893686366565,0.02492308923545472,0.28,0,7,0.0
7.444969846999811,540,598.7,-92.5,1.4,-81.8,0.15,-3.55,-1.85,0.13,-0.92,-0.13,-2.74,-0.73,0.02,0.0,0.9381897462667134,4.005933099790859,0.08490067120887634,0.28,0,7,0.0
7.453637925999828,541,598.71,-92.5,1.6,-82.1,-0.28,-3.37,-1.81,0.12,-0.91,-0.13,-2.75,-0.82,0.01,0.0,0.9270382947861432,3.835544289928093,0.09413108023565753,0.28,0,7,0.0
7.464637308999954,542,598.72,-92.6,1.7,-82.5,-0.5,-3.24,-1.78,0.11,-0.91,-0.14,-2.76,-0.88,-0.2,0.0,0.9272540105062905,3.7304155264527843,0.09203705722520006,0.28,0,7,0.0
7.473596004999763,543,598.73,-92.6,1.9,-82.8,-0.66,-3.11,-1.72,0.11,-0.92,-0.14,-2.77,-1.0,-0.14,0.0,0.9370699013414101,3.6147060738046184,0.0805767430622788,0.28,0,7,0.0
7.4846404410000105,544,598.74,-92.7,2.1,-83.1,-0.71,-2.99,-1.63,0.12,-0.94,-0.14,-2.78,-1.07,0.0,0.0,0.9579144011862437,3.4786635364748917,0.05853759835309624,0.28,0,7,0.0
7.493653831999836,545,598.75,-92.8,2.2,-83.4,-0.62,-2.88,-1.51,0.12,-0.96,-0.13,-2.79,-1.06,0.14,0.0,0.9761659694949419,3.3104229337049973,0.03948030944351,0.28,0,7,0.0
7.504647734999708,546,598.76,-92.9,2.3,-83.7,-0.47,-2.82,-1.36,0.13,-0.97,-0.12,-2.8,-1.02,-0.01,0.0,0.9860020283954795,3.1658963975468306,0.02905136553211307,0.28,0,7,0.0
7.5137794150000445,547,598.77,-92.9,2.4,-84.0,-0.25,-2.79,-1.22,0.12,-0.98,-0.11,-2.81,-1.08,0.01,0.0,0.9934284070832683,3.055323223490438,0.021192487107437707,0.28,0,7,0.0
7.524844276999829,548,598.78,-92.9,2.5,-84.3,-0.01,-2.76,-1.07,0.12,-0.96,-0.11,-2.82,-1.09,-0.18,0.0,0.9737042672187485,2.9601689140993286,0.040098294432518444,0.28,0,7,0.0
7.533762796999781,549,598.79,-92.9,2.6,-84.6,0.12,-2.71,-0.91,0.12,-0.95,-0.11,-2.84,-1.18,0.11,0.0,0.9638464608017192,2.861223514512629,0.048956978832556786,0.28,0,7,0.0
7.544872841999677,550,598.8,-92.9,2.7,-84.8,0.2,-2.62,-0.78,0.13,-0.96,-0.12,-2.85,-1.23,0.07,0.0,0.9761659694949419,2.740948740855983,0.03590472073654738,0.28,0,7,0.0
7.55385218299989,551,598.81,-92.9,2.8,-85.1,0.19,-2.43,-0.71,0.14,-0.96,-0.12,-2.86,-1.24,-0.03,0.0,0.9775479527879949,2.5387201499968444,0.03383228269462446,0.28,0,7,0.0
7.564761369999815,552,598.82,-92.9,2.8,-85.3,0.04,-2.18,-0.63,0.14,-0.97,-0.12,-2.87,-1.18,0.22,0.0,0.9873702446397703,2.2695594286116414,0.023529791025992175,0.28,0,7,0.0
7.57363863899991,553,598.83,-92.9,2.9,-85.5,0.0,-1.92,-0.58,0.15,-0.98,-0.11,-2.88,-1.11,-0.04,0.0,0.9974968671630001,2.0056919005669838,0.013135105132707214,0.28,0,7,0.0
7.58472736099975,554,598.84,-92.9,2.9,-85.7,0.0,-1.68,-0.55,0.15,-0.98,-0.1,-2.9,-1.07,-0.09,0.0,0.9964436762808021,1.7677386684688434,0.013904530094607126,0.28,0,7,0.0
7.59353145599971,555,598.85,-93.0,3.0,-85.9,0.08,-1.46,-0.5,0.15,-0.99,-0.1,-2.91,-1.04,0.14,0.0,1.0062802790475425,1.5453155017665485,0.00398656878130943,0.28,0,7,0.0
7.604906276999827,556,598.86,-93.0,3.1,-86.0,0.28,-1.29,-0.51,0.14,-0.99,-0.09,-2.92,-1.0,0.03,0.0,1.0038924245156948,1.415132502630054,0.00624693484689387,0.28,0,7,0.0
7.613718390000031,557,598.87,-93.0,3.2,-86.1,0.38,-1.13,-0.52,0.12,-0.98,-0.09,-2.93,-0.96,0.05,0.0,0.9914131328563284,1.3006536818077286,0.018351701976135115,0.28,0,7,0.0
7.6246501259997785,558,598.88,-93.0,3.2,-86.2,0.37,-1.0,-0.52,0.11,-0.98,-0.1,-2.94,-0.89,-0.04,0.0,0.9912113800799505,1.1862967588255477,0.018182385657462774,0.28,0,7,0.0
7.6338059529998645,559,598.89,-93.0,3.3,-86.3,0.31,-0.89,-0.52,0.1,-0.98,-0.1,-2.94,-0.8,-0.02,0.0,0.990151503558925,1.0763828315241748,0.01885741693491849,0.28,0,7,0.0
7.644881982999777,560,598.9,-93.0,3.4,-86.4,0.25,-0.8,-0.51,0.09,-0.97,-0.1,-2.95,-0.85,0.0,0.0,0.9792854537876073,0.9811218069128829,0.029128997372111498,0.28,0,7,0.0
7.653569033999702,561,598.91,-93.0,3.4,-86.5,0.21,-0.72,-0.47,0.09,-0.98,-0.11,-2.96,-0.89,-0.02,0.0,0.9902524930541705,0.8850988645343525,0.01779871894343743,0.28,0,7,0.0
7.664704308999717,562,598.92,-93.0,3.5,-86.6,0.28,-0.71,-0.46,0.09,-0.99,-0.11,-2.97,-0.84,-0.11,0.0,1.0001499887516871,0.8911228871485684,0.007743198781002381,0.28,0,7,0.0
7.673626244999923,563,598.93,-93.0,3.6,-86.7,0.41,-0.72,-0.44,0.1,-0.99,-0.1,-2.98,-0.87,0.11,0.0,1.0000499987500624,0.9381364506296511,0.007686325006974526,0.28,0,7,0.0
7.684481314000095,564,598.94,-93.0,3.6,-86.7,0.49,-0.72,-0.42,0.12,-0.98,-0.1,-2.99,-0.9,-0.05,0.0,0.9923708984044222,0.966902270139025,0.015058116845562353,0.28,0,7,0.0
7.693715882000106,565,598.95,-93.0,3.7,-86.8,0.6,-0.72,-0.38,0.13,-0.99,-0.1,-3.0,-0.9,0.05,0.0,1.003493896344168,1.0113357503816425,0.0038564165277001905,0.28,0,7,0.0
7.704971356999977,566,598.96,-92.9,3.8,-86.9,0.66,-0.7,-0.31,0.13,-0.97,-0.1,-3.0,-0.81,0.03,0.0,0.9837682653958706,1.0107917688624102,0.023110406526477556,0.28,0,7,0.0
7.713627195999834,567,598.97,-92.9,3.9,-87.0,0.68,-0.65,-0.21,0.13,-0.97,-0.09,-3.01,-0.74,0.08,0.0,0.9828021163998376,0.9638464608017193,0.023595024412060295,0.28,0,7,0.0
7.724574109000059,568,598.98,-92.9,3.9,-87.0,0.65,-0.58,-0.09,0.12,-0.96,-0.09,-3.02,-0.67,-0.01,0.0,0.9716480844420988,0.8757853618324527,0.034054075242403115,0.28,0,7,0.0
7.733458144999986,569,598.99,-92.8,3.9,-87.1,0.62,-0.58,0.0,0.11,-0.95,-0.08,-3.03,-0.55,-0.08,0.0,0.9596874491208062,0.848999411071645,0.04509441635242195,0.28,0,7,0.0
7.74466791299983,570,599.0,-92.8,4.0,-87.2,0.54,-0.61,0.07,0.11,-0.94,-0.08,-3.03,-0.53,0.0,0.0,0.949789450352024,0.8176796438703852,0.053892566818780074,0.28,0,7,0.0
7.753577598999982,571,599.01,-92.8,4.0,-87.2,0.39,-0.64,0.11,0.11,-0.93,-0.09,-3.04,-0.42,0.0,0.0,0.9407975340103736,0.757495874576225,0.06162679349722189,0.28,0,7,0.0
7.764740709999842,572,599.02,-92.8,4.0,-87.3,0.19,-0.62,0.15,0.11,-0.94,-0.09,-3.04,-0.37,0.04,0.0,0.9506839643120104,0.6655824516917495,0.05070555593167336,0.28,0,7,0.0
7.7736262200000965,573,599.03,-92.8,4.0,-87.4,0.07,-0.56,0.17,0.11,-0.94,-0.1,-3.04,-0.29,-0.04,0.0,0.9516827202382104,0.5894064811316551,0.04871266400536378,0.28,0,7,0.0
7.784768814000017,574,599.04,-92.9,4.0,-87.4,-0.04,-0.45,0.2,0.12,-0.95,-0.11,-3.05,-0.22,-0.2,0.0,0.9638464608017192,0.49406477308142505,0.035817944973017934,0.28,0,7,0.0
7.809321538999939,576,599.06,-93.0,4.0,-87.5,-0.06,-0.25,0.32,0.13,-0.96,-0.1,-3.05,0.03,0.03,0.0,0.973909646733207,0.41048751503547587,0.025239663860699535,0.28,0,7,0.0
7.817738082999767,577,599.07,-93.0,4.0,-87.5,-0.03,-0.13,0.4,0.14,-0.96,-0.11,-3.05,0.0,0.22,0.0,0.9763708311906906,0.42166337284616034,0.022322909815151615,0.28,0,7,0.0
7.825723427999947,578,599.08,-93.0,4.0,-87.5,-0.02,0.02,0.48,0.14,-0.96,-0.11,-3.05,0.0,-0.05,0.0,0.9763708311906906,0.4808326112068523,0.021876451618848547,0.28,0,7,0.0
7.833701438999924,579,599.09,-93.0,4.0,-87.5,-0.02,0.22,0.52,0.15,-0.97,-0.12,-3.05,0.0,0.03,0.0,0.9888377015466188,0.5649778756730214,0.009221389637661948,0.28,0,7,0.0
7.844862023999667,580,599.1,-93.1,3.9,-87.4,-0.09,0.48,0.57,0.15,-0.96,-0.12,-3.05,-0.01,0.17,0.0,0.9790301323248431,0.7505997601918082,0.01864837968224886,0.28,0,7,0.0
7.853598604999661,581,599.11,-93.1,3.9,-87.4,-0.15,0.71,0.63,0.16,-0.96,-0.12,-3.05,0.0,-0.14,0.0,0.980612053770501,0.9609890738192605,0.01672512907185919,0.28,0,7,0.0
7.864764077000018,582,599.12,-93.1,3.8,-87.3,-0.2,0.94,0.66,0.16,-0.96,-0.12,-3.05,0.01,0.03,0.0,0.980612053770501,1.1658473313431736,0.016390626490422,0.28,0,7,0.0
7.873598067999865,583,599.13,-93.1,3.8,-87.2,-0.29,1.13,0.68,0.15,-0.96,-0.11,-3.05,0.0,-0.05,0.0,0.9778547949465708,1.3503332921912279,0.01876492760806514,0.28,0,7,0.0
7.884729725999932,584,599.14,-93.1,3.7,-87.1,-0.39,1.28,0.71,0.13,-0.96,-0.11,-3.05,0.0,0.12,0.0,0.9749871794028884,1.5147937153289222,0.021199892288712663,0.28,0,7,0.0
7.893650072999662,585,599.15,-93.2,3.7,-86.9,-0.49,1.41,0.76,0.12,-0.96,-0.11,-3.05,0.0,-0.05,0.0,0.9737042672187485,1.6750522379914006,0.02203314838339554,0.28,0,7,0.0
7.904604296999878,586,599.16,-93.3,3.6,-86.8,-0.49,1.48,0.8,0.1,-0.96,-0.1,-3.05,0.0,0.21,0.0,0.9703607576566563,1.7522842235208305,0.02486912478657799,0.28,0,7,0.0
7.913556298999993,587,599.17,-93.4,3.6,-86.6,-0.49,1.51,0.84,0.09,-0.96,-0.11,-3.05,0.0,0.12,0.0,0.9704638066409277,1.7960512242138307,0.024270754286260465,0.28,0,7,0.0
7.924700831999871,588,599.18,-93.4,3.5,-86.5,-0.46,1.56,0.9,0.09,-0.96,-0.11,-3.05,0.0,-0.01,0.0,0.9704638066409277,1.8588168279849415,0.02378533920053527,0.28,0,7,0.0
7.933673491999798,589,599.19,-93.5,3.5,-86.3,-0.52,1.55,0.96,0.1,-0.96,-0.11,-3.05,0.0,0.17,0.0,0.9714422267947795,1.8959166648352452,0.022350780665749692,0.28,0,7,0.0
7.944781495999905,590,599.2,-93.6,3.4,-86.1,-0.64,1.62,1.03,0.1,-0.96,-0.12,-3.05,0.01,-0.33,0.0,0.9726253132630263,2.023585926023405,0.020744340313552878,0.28,0,7,0.0
7.953522274000079,591,599.21,-93.7,3.4,-86.0,-0.71,1.72,1.07,0.12,-0.97,-0.12,-3.05,0.0,0.03,0.0,0.984733466477097,2.1464854996016163,0.008463463357492484,0.28,0,7,0.0
7.964799615999709,592,599.22,-93.8,3.3,-85.8,-0.68,1.84,1.11,0.12,-0.98,-0.12,-3.05,0.01,0.12,0.0,0.9945853407325084,2.2539077177204927,0.0013606426799604998,0.28,0,7,0.0
7.973672580999846,593,599.23,-93.9,3.2,-85.6,-0.62,1.97,1.17,0.13,-0.98,-0.12,-3.05,0.07,-0.11,0.0,0.9958413528268446,2.373646983020011,0.0025643216788108214,0.28,0,7,0.0
7.9848026340000615,594,599.24,-93.9,3.2,-85.4,-0.52,2.08,1.26,0.13,-0.97,-0.12,-3.05,0.01,0.0,0.0,0.9860020283954795,2.486845391253747,0.007129502697503232,0.28,0,7,0.0
7.9934116350000295,595,599.25,-94.0,3.1,-85.2,-0.47,2.21,1.37,0.13,-0.97,-0.11,-3.04,0.09,-0.15,0.0,0.9848350115628506,2.6423285185608547,0.008130589139529465,0.28,0,7,0.0
8.004825367999729,596,599.26,-94.1,3.0,-84.9,-0.37,2.35,1.45,0.12,-0.98,-0.11,-3.04,0.25,-0.22,0.0,0.9934284070832683,2.7860186646898115,0.0004535502532704294,0.28,0,7,0.0
8.013426843999696,597,599.27,-94.1,2.9,-84.7,-0.37,2.47,1.5,0.1,-0.98,-0.11,-3.04,0.51,0.12,0.0,0.9912113800799505,2.9133829133843703,0.0017282072150464067,0.28,0,7,0.0
8.024824272999922,598,599.28,-94.2,2.8,-84.4,-0.52,2.59,1.53,0.09,-0.99,-0.1,-3.03,0.8,0.04,0.0,0.9990995946350895,3.0527692346458157,0.006036807193290694,0.28,0,7,0.0
8.03341489200011,599,599.29,-94.2,2.7,-84.1,-0.63,2.68,1.5,0.07,-1.01,-0.1,-3.02,1.14,0.11,0.0,1.0173494974687902,3.13517144666763,0.023800975826451576,0.28,0,7,0.0
8.04481716500004,600,599.3,-94.3,2.6,-83.8,-0.58,2.67,1.45,0.05,-1.01,-0.08,-3.01,1.51,-0.05,0.0,1.0143963722332607,3.093186059712542,0.02043089357910366,0.28,0,7,0.0
8.053533251999852,601,599.31,-94.3,2.5,-83.6,-0.43,2.58,1.41,0.03,-1.0,-0.06,-2.99,1.89,0.11,0.0,1.0022474744293446,2.9714306318674173,0.008116355859683733,0.28,0,7,0.0
8.064891068999714,602,599.32,-94.3,2.3,-83.3,-0.29,2.39,1.42,0.02,-1.0,-0.04,-2.97,2.22,-0.17,0.0,1.000999500499376,2.795102860361314,0.006731014291120774,0.28,0,7,0.0
8.07341115600002,603,599.33,-94.3,2.2,-83.1,-0.25,2.17,1.46,0.02,-0.99,-0.05,-2.94,2.55,0.0,0.0,0.9914635646356349,2.627356085497358,0.0027488231411678665,0.28,0,7,0.0
8.084763674999977,604,599.34,-94.3,2.1,-82.9,-0.28,2.06,1.49,0.02,-0.99,-0.05,-2.91,2.88,-0.01,0.0,0.9914635646356349,2.557752920045249,0.0026938466783444914,0.28,0,7,0.0
8.093415843999992,605,599.35,-94.4,1.9,-82.6,-0.31,1.93,1.5,0.03,-0.98,-0.06,-2.88,3.11,-0.03,0.0,0.9822932352408826,2.4639399343328154,0.011626892551634849,0.28,0,7,0.0
8.104747724999925,606,599.36,-94.4,1.8,-82.4,-0.43,1.87,1.55,0.05,-0.96,-0.08,-2.85,3.3,-0.02,0.0,0.9646242791885346,2.466637387213613,0.028709931631903274,0.28,0,7,0.0
8.113470819999748,607,599.37,-94.4,1.7,-82.2,-0.56,1.88,1.6,0.06,-0.96,-0.1,-2.82,3.37,0.15,0.0,0.9670573922989266,2.5314027731674784,0.025751282151081023,0.28,0,7,0.0
8.124764885999866,608,599.38,-94.5,1.5,-82.0,-0.57,1.98,1.6,0.07,-0.97,-0.13,-2.78,3.44,-0.32,0.0,0.981172767661231,2.608696992753279,0.011403188653001162,0.28,0,7,0.0
8.133525533000011,609,599.39,-94.6,1.4,-81.8,-0.55,2.08,1.56,0.09,-0.98,-0.12,-2.75,3.45,-0.05,0.0,0.9914131328563284,2.6575364531836625,0.0011395669887456217,0.28,0,7,0.0
8.144722738999917,610,599.4,-94.7,1.3,-81.6,-0.55,2.15,1.53,0.09,-0.99,-0.09,-2.71,3.47,0.17,0.0,0.9981482855768475,2.6955333424018337,0.005483674017138118,0.28,0,7,0.0
8.153648833999796,611,599.41,-94.7,1.2,-81.4,-0.57,2.2,1.5,0.08,-0.99,-0.08,-2.68,3.52,-0.05,0.0,0.9964436762808021,2.7230313990110364,0.003703483426670817,0.28,0,7,0.0
8.16487594399996,612,599.42,-94.8,1.1,-81.1,-0.58,2.22,1.53,0.08,-0.98,-0.08,-2.64,3.56,-0.03,0.0,0.9865089964110818,2.7578433603089207,0.006106572514188446,0.28,0,7,0.0
8.173546622999766,613,599.43,-94.8,1.0,-80.9,-0.49,2.3,1.61,0.08,-0.97,-0.1,-2.61,3.63,0.12,0.0,0.978417088975862,2.849947367935064,0.013914510350420128,0.28,0,7,0.0
8.184845144000064,614,599.44,-94.9,0.9,-80.6,-0.39,2.38,1.74,0.09,-0.96,-0.11,-2.57,3.68,-0.03,0.0,0.9704638066409277,2.9739031591496046,0.02143043683164736,0.28,0,7,0.0
8.193600960999902,615,599.45,-94.9,0.8,-80.4,-0.54,2.61,1.8,0.04,-0.99,-0.11,-2.54,3.28,-0.14,0.0,0.9968951800465282,3.2161623093370144,0.004900917842474151,0.28,0,7,0.0
8.204757638000046,616,599.46,-95.0,0.7,-80.1,-1.02,2.71,1.69,0.01,-1.0,-0.06,-2.51,2.77,-0.19,0.0,1.0018482919085105,3.352700404151853,0.009656949110367297,0.28,0,7,0.0
8.213700281000001,617,599.47,-95.1,0.5,-79.8,-1.39,2.9,1.65,0.04,-1.02,-0.08,-2.48,2.34,-0.22,0.0,1.0239140588936164,3.6144985820995976,0.03108826177356372,0.28,0,7,0.0
8.224778717999925,618,599.48,-95.3,0.4,-79.5,-1.99,3.3,1.34,-0.01,-1.22,0.01,-2.46,1.93,0.0,0.0,1.2200819644597654,4.079914214784424,0.2227110439929184,0.28,0,7,0.0
8.233656678999978,619,599.49,-95.5,0.3,-79.1,-2.8,3.51,0.73,-0.09,-1.33,-0.02,-2.45,1.55,-0.17,0.0,1.3331916591398252,4.548955924165456,0.3291043238995186,0.28,1,8,1.0
8.24490052300007,620,599.5,-95.8,0.3,-78.8,-3.02,3.23,-0.06,-0.12,-1.46,0.06,-2.43,1.22,-0.03,0.0,1.4661514246489002,4.422318396497475,0.4528228076204217,0.28,0,8,1.0
8.2536978119997,621,599.51,-96.0,0.4,-78.5,-1.39,2.41,-0.74,-0.11,-1.39,0.05,-2.42,0.28,0.88,1.19,1.3952419145080182,2.878853938635998,0.3742750315299488,0.28,0,8,1.0
8.264857158999803,622,599.52,-96.0,0.5,-78.3,0.99,1.61,-0.96,-0.07,-1.17,0.02,-2.43,-0.98,1.26,1.19,1.1722627691776275,2.119858485842864,0.14826996847556706,0.28,0,8,1.0
8.273615355999937,623,599.53,-95.8,0.6,-78.2,2.44,0.85,-0.85,-0.02,-0.98,0.02,-2.44,-1.27,1.28,1.19,0.9804080783020914,2.7200367644574217,0.04271302795196963,0.28,0,8,1.0
8.284698692999882,624,599.54,-95.5,0.7,-78.2,2.73,0.17,-0.62,0.03,-0.83,0.02,-2.46,-1.44,1.22,1.19,0.8307827634225448,2.8046746691907067,0.18849157597488586,0.28,0,8,1.0
8.29365079199988,625,599.55,-95.3,0.8,-78.2,2.19,0.02,-0.37,0.08,-0.74,-0.05,-2.47,-1.32,1.12,1.19,0.7459892760623305,2.2211258406492864,0.26781936206839807,0.28,0,8,1.0
8.30477014600001,626,599.56,-95.1,0.8,-78.2,0.95,0.37,-0.11,0.11,-0.72,-0.11,-2.48,-1.1,1.38,1.19,0.7366138744281158,1.025426740435415,0.27165086842856045,0.28,0,8,1.0
8.313652725999873,627,599.57,-95.1,0.8,-78.1,-0.36,0.77,0.15,0.13,-0.76,-0.1,-2.49,-0.96,1.22,1.19,0.7774959806970065,0.8631338250816034,0.22615338691647624,0.28,0,8,1.0
8.324739343999681,628,599.58,-95.2,0.8,-78.0,-1.04,1.14,0.35,0.13,-0.87,-0.1,-2.5,-0.55,1.22,1.19,0.8853247991556545,1.582308440222702,0.11595807708867167,0.28,0,8,1.0
8.333775772000081,629,599.59,-95.3,0.8,-77.9,-1.05,1.46,0.44,0.12,-0.96,-0.13,-2.5,-0.03,1.2,1.19,0.9761659694949419,1.8514048719823548,0.02461456861439648,0.28,0,8,1.0
8.344827618999716,630,599.6,-95.4,0.8,-77.7,-0.88,1.85,0.45,0.08,-1.01,-0.16,-2.5,-0.02,1.13,1.19,1.0257192598367255,2.097474672075923,0.02443994729283938,0.28,0,8,1.0
8.353676322999945,631,599.61,-95.5,0.8,-77.5,-0.7,2.17,0.44,0.04,-1.01,-0.14,-2.5,-0.04,1.04,1.19,1.020441081101697,2.322175703946624,0.01877853318665479,0.28,0,8,1.0
8.364846551000028,632,599.62,-95.6,0.8,-77.3,-0.48,2.25,0.4,0.03,-0.98,-0.11,-2.5,-0.12,1.02,1.19,0.986610358753647,2.3351445351412408,0.014751145378167463,0.28,0,8,1.0
8.373615914999846,633,599.63,-95.6,0.8,-77.0,-0.34,2.25,0.38,0.04,-0.95,-0.1,-2.51,-0.14,1.19,1.19,0.9560857702110204,2.3070543990118653,0.04437021924237827,0.28,0,8,1.0
8.384599907999927,634,599.64,-95.7,0.8,-76.8,-0.4,2.27,0.36,0.05,-0.94,-0.11,-2.51,-0.09,1.2,1.19,0.9477341399358787,2.332916629457641,0.051667412527169554,0.28,0,8,1.0
8.393631090999861,635,599.65,-95.7,0.8,-76.6,-0.74,2.42,0.32,0.06,-0.97,-0.12,-2.51,-0.06,1.38,1.19,0.9792343948207701,2.5507645912549437,0.01976381448943265,0.28,0,8,1.0
8.404822993999915,636,599.66,-95.8,0.8,-76.3,-0.87,2.57,0.28,0.05,-0.99,-0.13,-2.51,-0.09,1.07,1.19,0.999749968742185,2.727673000929547,0.0007367242433425902,0.28,0,8,1.0
8.413675449000038,637,599.67,-95.9,0.8,-76.0,-0.98,2.76,0.35,0.03,-1.0,-0.13,-2.51,-0.13,1.09,1.19,1.008860743611327,2.949660997470726,0.009650549130234887,0.28,0,8,0.0
8.424659729999803,638,599.68,-96.0,0.8,-75.8,-0.91,2.84,0.44,0.0,-1.01,-0.11,-2.51,-0.18,1.42,1.19,1.0159724405711013,3.014514886345728,0.016427001168208943,0.28,0,8,0.0
8.43374407500005,639,599.69,-96.1,0.8,-75.5,-0.74,2.83,0.55,-0.02,-1.01,-0.1,-2.51,0.38,-0.06,0.0,1.0151354589413177,2.9764072302022115,0.015278219147656924,0.28,0,8,0.0
8.444841540999732,640,599.7,-96.2,0.7,-75.2,-0.73,2.78,0.64,-0.06,-0.99,-0.08,-2.5,0.8,-0.02,0.0,0.9950376877284598,2.9446391969136045,0.004723161023897027,0.28,0,8,0.0
8.453519608000079,641,599.71,-96.2,0.6,-74.9,-0.81,2.59,0.66,-0.09,-0.98,-0.07,-2.49,0.89,-0.03,0.0,0.986610358753647,2.792812202780559,0.012887480198735646,0.28,0,8,0.0
8.464858226999695,642,599.72,-96.3,0.6,-74.7,-0.92,2.41,0.65,-0.09,-0.98,-0.07,-2.49,0.86,-0.03,0.0,0.986610358753647,2.660263144878717,0.012629730594760913,0.28,0,8,0.0
8.473596728999837,643,599.73,-96.4,0.5,-74.4,-1.01,2.16,0.63,-0.07,-0.99,-0.07,-2.48,0.83,-0.07,0.0,0.9949371839468057,2.4662927644543746,0.004216847293570081,0.28,0,8,0.0
8.484509508999963,644,599.74,-96.5,0.4,-74.2,-0.95,1.91,0.61,-0.05,-1.01,-0.07,-2.47,0.78,-0.06,0.0,1.0136567466356645,2.218715844807532,0.01421266108738295,0.28,0,8,0.0
8.493651190000037,645,599.75,-96.5,0.3,-74.0,-0.8,1.71,0.56,-0.02,-1.02,-0.08,-2.46,0.82,-0.11,0.0,1.0233279044372825,1.9691876497682996,0.023406142511220862,0.28,0,8,0.0
8.504755383999964,646,599.76,-96.6,0.3,-73.9,-0.68,1.61,0.52,0.0,-1.02,-0.1,-2.45,0.74,0.0,0.0,1.0248902380255165,1.82343083225002,0.024469106577465816,0.28,0,8,0.0
8.513523435000025,647,599.77,-96.6,0.2,-73.7,-0.64,1.6,0.49,0.01,-1.02,-0.11,-2.45,0.7,0.0,0.0,1.0259629622944486,1.791563562924855,0.02503099422946997,0.28,0,8,0.0
8.524870403000023,648,599.78,-96.7,0.2,-73.5,-0.6,1.64,0.45,0.01,-1.02,-0.12,-2.44,0.61,0.16,0.0,1.0270832488167645,1.8033579788827285,0.025628255136750155,0.28,0,8,0.0
8.533743305999906,649,599.79,-96.8,0.2,-73.4,-0.51,1.67,0.41,0.0,-1.02,-0.11,-2.43,0.63,0.13,0.0,1.0259142264341596,1.7936276090649363,0.023970048099062335,0.28,0,8,0.0
8.544750695999937,650,599.8,-96.8,0.2,-73.2,-0.33,1.66,0.35,0.0,-1.01,-0.11,-2.43,0.51,0.03,0.0,1.0159724405711013,1.728293956478469,0.013747696991283975,0.28,0,8,0.0
8.553651636999803,651,599.81,-96.8,0.2,-73.0,-0.15,1.6,0.29,-0.01,-1.0,-0.1,-2.42,0.49,0.16,0.0,1.0050373127401788,1.6329727493133497,0.002756317777154349,0.28,0,8,0.0
8.564750317999824,652,599.82,-96.8,0.1,-72.9,-0.13,1.5,0.21,-0.02,-0.99,-0.1,-2.42,0.37,0.02,0.0,0.995238664843765,1.5201973556088038,0.006901483516874363,0.28,0,8,0.0
8.573624391000067,653,599.83,-96.8,0.1,-72.7,-0.24,1.42,0.13,-0.02,-0.99,-0.11,-2.42,0.31,0.05,0.0,0.9962931295557548,1.4459944674859582,0.005730078428786922,0.28,0,8,0.0
8.584770882999692,654,599.84,-96.9,0.1,-72.6,-0.36,1.41,0.06,-0.02,-0.98,-0.12,-2.41,0.19,-0.04,0.0,0.9875221516502807,1.4564683312726026,0.014211035207575828,0.28,0,8,0.0
8.59362621199989,655,599.85,-96.9,0.1,-72.4,-0.52,1.39,0.04,-0.02,-0.97,-0.12,-2.41,0.16,-0.05,0.0,0.9775990998359194,1.4846211637990345,0.02365140528149845,0.28,0,8,0.0
8.604694711999855,656,599.86,-97.0,0.1,-72.3,-0.67,1.39,0.04,-0.01,-0.97,-0.12,-2.41,0.16,0.1,0.0,0.977445650662992,1.5435672968808323,0.02332875736533735,0.28,0,8,0.0
8.61351200199988,657,599.87,-97.1,0.1,-72.2,-0.73,1.39,0.05,0.0,-0.98,-0.12,-2.41,0.07,-0.23,0.0,0.9873196037757985,1.5708278072405009,0.013185708167480215,0.28,0,8,0.0
8.624867730999995,658,599.88,-97.1,0.1,-72.0,-0.78,1.4,0.03,0.01,-0.98,-0.12,-2.41,0.02,0.03,0.0,0.9873702446397703,1.6029036153181513,0.012872365957438348,0.28,0,8,0.0
8.633739590999994,659,599.89,-97.2,0.1,-71.9,-0.8,1.42,0.0,0.01,-0.99,-0.13,-2.41,0.03,0.09,0.0,0.9985489472229191,1.6298466185503468,0.0016597901068037269,0.28,0,8,0.0
8.644874216000062,660,599.9,-97.3,0.2,-71.7,-0.82,1.42,-0.03,0.01,-0.98,-0.14,-2.41,0.09,0.69,0.0,0.9899999999999999,1.6400304875214973,0.01000456258312854,0.28,0,8,0.0
8.653695986999992,661,599.91,-97.4,0.2,-71.6,-0.88,1.46,-0.03,0.01,-0.97,-0.15,-2.4,0.3,0.0,0.0,0.981580358401695,1.7049633427144408,0.01805572009780476,0.28,0,8,0.0
8.664903000999857,662,599.92,-97.5,0.2,-71.4,-0.91,1.55,-0.01,0.01,-0.96,-0.15,-2.4,0.48,-0.12,0.0,0.9716995420396163,1.7974148102205012,0.027377805730685822,0.28,0,8,0.0
8.673604286999762,663,599.93,-97.6,0.3,-71.3,-0.96,1.63,0.01,0.02,-0.96,-0.14,-2.39,0.65,-0.09,0.0,0.9703607576566562,1.891718795170149,0.02814225831137296,0.28,0,8,0.0
8.684696373999941,664,599.94,-97.7,0.3,-71.1,-1.02,1.73,0.04,0.02,-0.96,-0.14,-2.39,0.83,-0.07,0.0,0.9703607576566562,2.008706051168264,0.02757941314514545,0.28,0,8,0.0
8.693642497999917,665,599.95,-97.8,0.3,-70.9,-1.09,1.82,0.06,0.03,-0.96,-0.14,-2.38,1.03,-0.03,0.0,0.9706183596038146,2.122286502807762,0.026775374974027266,0.28,0,8,0.0
8.704640345999906,666,599.96,-98.0,0.4,-70.8,-1.16,1.91,0.09,0.03,-0.96,-0.14,-2.37,1.1,-0.12,0.0,0.9706183596038146,2.2364704335179573,0.026239867474546763,0.28,0,8,0.0
8.713596757999767,667,599.97,-98.1,0.4,-70.6,-1.19,2.02,0.13,0.02,-0.96,-0.14,-2.35,1.22,0.06,0.0,0.9703607576566562,2.3480630315219395,0.025967520033271074,0.28,0,8,0.0
8.724737792999804,668,599.98,-98.2,0.4,-70.4,-1.19,2.08,0.16,0.02,-0.96,-0.14,-2.34,1.21,-0.01,0.0,0.9703607576566562,2.401686907155052,0.025448169632605655,0.28,0,8,0.0
8.73364602599986,669,599.99,-98.3,0.4,-70.1,-1.19,2.16,0.2,0.02,-0.95,-0.14,-2.33,1.22,-0.17,0.0,0.9604686356149272,2.474206943648813,0.03463348584084791,0.28,0,8,0.0
8.744750794000083,670,600.0,-98.4,0.5,-69.9,-1.24,2.23,0.25,0.01,-0.95,-0.14,-2.32,1.19,-0.09,0.0,0.9603124491539199,2.56378626254218,0.03409387885581816,0.28,0,8,0.0
8.753717154999777,671,600.01,-98.6,0.5,-69.7,-1.32,2.27,0.27,0.01,-0.95,-0.15,-2.3,1.18,0.05,0.0,0.9618211892030659,2.6397348351681083,0.031933436030538664,0.28,0,8,0.0
8.764921989999948,672,600.02,-98.7,0.5,-69.5,-1.37,2.34,0.31,0.0,-0.95,-0.15,-2.29,1.23,-0.03,0.0,0.9617692030835672,2.7292123405847333,0.03134571370703665,0.28,0,8,0.0
8.773575964999964,673,600.03,-98.8,0.5,-69.2,-1.4,2.42,0.33,0.0,-0.96,-0.15,-2.28,1.26,-0.09,0.0,0.9716480844420988,2.8151909349100994,0.021037495701534903,0.28,0,8,0.0
8.784876044999692,674,600.04,-99.0,0.5,-69.0,-1.41,2.46,0.33,0.0,-0.98,-0.15,-2.27,1.29,0.08,0.0,0.9914131328563284,2.854575274887667,0.00124699834155928,0.28,0,8,0.0
8.793646866000017,675,600.05,-99.1,0.5,-68.7,-1.4,2.52,0.33,0.0,-0.99,-0.15,-2.25,1.36,-0.12,0.0,1.0012991560967182,2.901603005236933,0.008466244400853862,0.28,0,8,0.0
8.804739414999858,676,600.06,-99.3,0.5,-68.5,-1.36,2.54,0.34,0.0,-1.0,-0.15,-2.24,1.41,0.03,0.0,1.0111874208078342,2.9011721768967798,0.017987418929730548,0.28,0,8,0.0
8.813688649999676,677,600.07,-99.4,0.5,-68.2,-1.27,2.57,0.33,0.0,-1.01,-0.15,-2.22,1.53,-0.22,0.0,1.021077861869505,2.8856021901849185,0.02732030279157338,0.28,0,8,0.0
8.824777193000045,678,600.08,-99.5,0.5,-67.9,-1.14,2.59,0.33,-0.01,-1.0,-0.15,-2.21,1.68,0.14,0.0,1.011236866416568,2.848964724246336,0.017129721191863623,0.28,0,8,0.0
8.8335813650001,679,600.09,-99.6,0.5,-67.7,-1.04,2.59,0.34,-0.01,-1.0,-0.14,-2.19,1.79,0.14,0.0,1.00980196078241,2.8116365341202973,0.015380919246551494,0.28,0,8,0.0
8.844927563000056,680,600.1,-99.7,0.5,-67.4,-0.98,2.55,0.33,-0.01,-1.0,-0.14,-2.17,1.94,0.02,0.0,1.00980196078241,2.7516903895605695,0.015073300861620509,0.28,0,8,0.0
8.85375760199986,681,600.11,-99.8,0.5,-67.2,-0.97,2.49,0.31,-0.01,-0.99,-0.13,-2.15,2.06,-0.03,0.0,0.9985489472229191,2.690185867184645,0.0037438815560869587,0.28,0,8,0.0
8.86482424399992,682,600.12,-99.8,0.5,-66.9,-1.0,2.43,0.29,-0.01,-0.98,-0.14,-2.13,2.22,0.08,0.0,0.9899999999999999,2.6436716891475007,0.004708964353495659,0.28,0,8,0.0
8.873623856999984,683,600.13,-99.9,0.5,-66.7,-1.07,2.36,0.28,-0.02,-0.98,-0.14,-2.11,2.29,-0.27,0.0,0.990151503558925,2.606319243684472,0.004466311578679161,0.28,0,8,0.0
8.884935636999671,684,600.14,-100.0,0.5,-66.4,-1.11,2.31,0.28,-0.02,-0.98,-0.15,-2.08,2.38,-0.13,0.0,0.9916148445843275,2.578100075637096,0.0029429111422111243,0.28,0,8,0.0
8.893616681999902,685,600.15,-100.1,0.5,-66.2,-1.07,2.25,0.26,-0.02,-0.98,-0.15,-2.06,2.46,0.0,0.0,0.9916148445843275,2.5049950099750697,0.0028840529193668862,0.28,0,8,0.0
8.904859410999961,686,600.16,-100.2,0.5,-66.0,-1.0,2.18,0.25,-0.02,-0.99,-0.15,-2.03,2.52,0.16,0.0,1.0014988766843425,2.41141037569303,0.006859979597035104,0.28,0,8,0.0
8.91362141899981,687,600.17,-100.3,0.5,-65.8,-0.91,2.09,0.23,-0.02,-1.01,-0.16,-2.01,2.61,-0.22,0.0,1.0227903010881556,2.29109144295901,0.0275883759208313,0.28,0,8,0.0
8.924967173999903,688,600.18,-100.4,0.5,-65.6,-0.77,2.03,0.22,-0.02,-1.01,-0.17,-1.98,2.77,-0.13,0.0,1.0244022647378324,2.182246548857392,0.02861633277909792,0.28,0,8,0.0
8.933577400000104,689,600.19,-100.4,0.4,-65.4,-0.58,1.97,0.22,-0.02,-1.02,-0.17,-1.95,3.0,-0.07,0.0,1.0342630226397924,2.0653571119784586,0.03770754886743677,0.28,0,8,0.0
8.945043508999788,690,600.2,-100.4,0.4,-65.2,-0.35,1.9,0.22,-0.03,-1.03,-0.16,-1.92,3.26,-0.04,0.0,1.0427847332982967,1.9444536507718562,0.04530467433542218,0.28,0,8,0.0
8.953687824000099,691,600.21,-100.4,0.4,-65.0,-0.13,1.83,0.24,-0.03,-1.03,-0.16,-1.88,3.5,0.09,0.0,1.0427847332982967,1.85024322725419,0.04439858084871373,0.28,0,8,0.0
8.965070150999964,692,600.22,-100.4,0.4,-64.8,0.01,1.77,0.23,-0.03,-1.02,-0.16,-1.85,3.74,0.13,0.0,1.0329085148259742,1.7849089612638513,0.03383191512886341,0.28,0,8,0.0
8.973644452999906,693,600.23,-100.4,0.4,-64.6,0.12,1.72,0.22,-0.03,-1.02,-0.15,-1.81,3.97,0.13,0.0,1.031406806260265,1.7381599466102076,0.03168360243189117,0.28,0,8,0.0
8.98482947499997,694,600.24,-100.4,0.4,-64.5,0.14,1.65,0.21,-0.03,-1.01,-0.14,-1.77,4.13,0.08,0.0,1.0200980345045274,1.6691914210179728,0.019967334062630515,0.28,0,8,0.0
8.993573524000112,695,600.25,-100.3,0.4,-64.3,0.08,1.51,0.21,-0.03,-1.0,-0.12,-1.73,4.25,0.0,0.0,1.0076209604806758,1.526630276131061,0.007340454838003385,0.28,0,8,0.0
9.00493418699989,696,600.26,-100.3,0.4,-64.2,0.04,1.35,0.22,-0.01,-1.0,-0.14,-1.68,4.45,0.11,0.0,1.00980196078241,1.368393218340401,0.009331026036942802,0.28,0,8,0.0
9.013659752999956,697,600.27,-100.3,0.3,-64.0,0.06,1.22,0.23,-0.01,-0.99,-0.15,-1.64,4.63,0.07,0.0,1.0013490899781154,1.2429400629153442,0.0008605921279951634,0.28,0,8,0.0
9.02485700599982,698,600.28,-100.3,0.3,-63.9,0.09,1.15,0.25,-0.01,-0.98,-0.15,-1.59,4.74,0.0,0.0,0.9914635646356349,1.1802965729002182,0.008844434550195679,0.28,0,8,0.0
9.033616445999996,699,600.29,-100.2,0.3,-63.8,0.07,1.1,0.24,-0.01,-0.97,-0.14,-1.54,4.8,0.11,0.0,0.9801020355044672,1.1280514172678477,0.019801844407736136,0.28,0,8,0.0
9.04500552699983,700,600.3,-100.2,0.3,-63.7,0.02,1.04,0.24,0.0,-0.97,-0.14,-1.49,4.8,-0.1,0.0,0.9800510190801293,1.0675204916066015,0.019455803615432532,0.28,0,8,0.0
9.053627912999673,701,600.31,-100.2,0.3,-63.6,-0.02,1.01,0.24,0.0,-0.96,-0.15,-1.45,4.73,0.13,0.0,0.9716480844420988,1.038315944209661,0.027301563488393743,0.28,0,8,0.0
9.064940796999963,702,600.32,-100.2,0.3,-63.5,-0.08,0.99,0.25,0.0,-0.95,-0.15,-1.4,4.61,-0.06,0.0,0.9617692030835672,1.0242070103255494,0.03643683594998692,0.28,0,8,0.0
9.073634945999856,703,600.33,-100.2,0.3,-63.4,-0.2,1.0,0.26,0.01,-0.96,-0.15,-1.35,4.4,0.07,0.0,0.9716995420396163,1.0524257693538297,0.025976367054059035,0.28,0,8,0.0
9.085054856999704,704,600.34,-100.2,0.3,-63.3,-0.32,1.01,0.25,0.01,-0.96,-0.16,-1.31,4.05,-0.09,0.0,0.9732933781753578,1.088577052853862,0.023894880299951238,0.28,0,8,0.0
9.093758325999715,705,600.35,-100.2,0.3,-63.2,-0.44,1.05,0.26,0.02,-0.95,-0.16,-1.27,3.63,-0.22,0.0,0.9635870484808313,1.1677756633874505,0.032929185794588145,0.28,0,8,0.0
9.105738944999757,706,600.36,-100.3,0.3,-63.0,-0.5,1.13,0.28,0.03,-0.95,-0.16,-1.24,3.07,-0.04,0.0,0.9638464608017192,1.2670043409554679,0.0320163780042263,0.28,0,8,0.0
9.113617142999829,707,600.37,-100.3,0.3,-62.9,-0.55,1.22,0.31,0.03,-0.96,-0.17,-1.21,2.51,-0.17,0.0,0.9753973549277238,1.3736811857195979,0.020056174200657195,0.28,0,8,0.0
9.1250337030001,708,600.38,-100.4,0.3,-62.8,-0.58,1.36,0.34,0.03,-0.96,-0.18,-1.19,1.89,0.01,0.0,0.9771898484941398,1.5171025014810307,0.01789840702155643,0.28,0,8,0.0
9.133691965999787,709,600.39,-100.5,0.3,-62.6,-0.61,1.47,0.35,0.03,-0.97,-0.18,-1.18,1.18,-0.12,0.0,0.9870157040290696,1.6295704955601031,0.007911100456894138,0.28,0,8,0.0
9.14459596200004,710,600.4,-100.5,0.3,-62.5,-0.62,1.55,0.34,0.02,-0.99,-0.18,-1.17,0.57,-0.13,0.0,1.006429331846007,1.7036725037400822,0.01127247681284238,0.28,0,8,0.0
