host_time_s,seq,device_time_s,roll,pitch,yaw,gyro_x,gyro_y,gyro_z,accel_x,accel_y,accel_z,belt_length,belt_velocity,belt_acceleration,motor_pos,motor_vel,motor_iq_meas,motor_iq_set,acc_mag,gyro_mag,acc_residual,threshold,heel_strike,hs_count,torque_cmd_nm
3.07112832599978,2,4997.13,-91.2,-1.9,-112.0,-0.29,3.32,1.35,0.0,-0.95,-0.2,-147.2,-40.9,-350.0,-0.51,1.55,0.07,0.0,0.9708243919473799,3.5956918666648843,0.0,0.28,0,0,0.0
3.0797336340001493,3,4997.14,-91.2,-2.1,-111.7,-0.52,3.52,1.31,-0.08,-1.05,-0.26,-148.0,-73.9,-324.0,-0.48,2.4,0.14,0.0,1.084665847162157,3.7916882783266876,0.11156462611048168,0.28,0,0,0.0
3.0876395659997797,4,4997.15,-91.3,-2.2,-111.3,-1.33,3.81,0.8,-0.17,-1.24,-0.25,-149.0,-106.0,-333.0,-0.45,3.32,0.18,0.0,1.2763228431709588,4.1140004861448425,0.29715718967689775,0.28,1,1,3.0
3.0983517960003155,5,4997.16,-91.5,-2.2,-110.9,-1.85,3.77,-0.28,-0.18,-1.41,-0.11,-150.3,-144.4,-377.0,-0.41,4.41,0.03,0.0,1.425692814038143,4.208776544317837,0.43759661733320043,0.28,0,1,3.0
3.1076901010001166,6,4997.17,-91.7,-2.1,-110.6,-2.16,3.42,-1.46,-0.26,-1.53,-0.01,-151.9,-159.2,90.0,-0.37,3.28,2.84,3.49,1.5519664944836922,4.3004185842775815,0.5525928918231745,0.28,0,1,3.0
3.1183779729999515,7,4997.18,-91.9,-1.9,-110.3,-1.32,2.57,-2.14,-0.17,-1.33,0.0,-152.8,-47.9,834.0,-0.36,-0.09,3.08,3.49,1.340820644232479,3.5953998386827575,0.33461810074052223,0.28,0,1,3.0
3.1276299829996788,8,4997.19,-92.0,-1.7,-110.1,-1.07,2.1,-2.47,-0.09,-1.33,-0.03,-152.6,33.5,580.0,-0.37,-1.14,3.4,3.49,1.3333791658789333,3.414059167618511,0.3206330899392371,0.28,0,1,3.0
3.1379438229996595,9,4997.2,-92.1,-1.5,-109.9,-1.34,1.97,-2.96,-0.15,-1.34,0.0,-152.2,37.1,127.0,-0.38,-0.77,3.73,3.49,1.348369385591352,3.7997499917757747,0.32891084345862276,0.28,0,1,3.0
3.1483202039999014,10,4997.21,-92.3,-1.2,-109.7,-1.98,1.55,-3.47,-0.23,-1.45,0.12,-152.0,12.6,-142.0,-0.39,0.01,3.47,3.49,1.4730241002780642,4.285300456210743,0.44449424698242823,0.28,0,1,3.0
3.158327967000332,11,4997.22,-92.5,-0.8,-109.6,-1.84,0.67,-4.19,-0.23,-1.7,0.27,-152.0,-1.1,-53.0,-0.39,-0.03,3.46,3.49,1.7366058850527946,4.624997297296508,0.6939145111220155,0.28,0,1,3.0
3.1674882739998793,12,4997.23,-92.7,-0.3,-109.6,-0.87,-0.27,-5.1,-0.25,-1.75,0.28,-152.0,-0.5,-29.0,-0.39,0.03,3.39,3.49,1.7898044585931727,5.180714236473577,0.7321708229691457,0.28,0,1,3.0
3.1784539270001915,13,4997.24,-92.7,0.1,-109.7,0.19,-1.2,-5.19,-0.22,-1.5,0.26,-152.0,-3.0,-28.0,-0.38,0.11,3.33,3.49,1.5381807436059003,5.330309559490893,0.47093616582223574,0.28,0,1,3.0
3.187597397999525,14,4997.25,-92.6,0.6,-109.9,1.47,-1.7,-4.44,-0.03,-1.19,0.14,-152.1,-7.2,-44.0,-0.38,0.25,3.5,3.49,1.19858249611781,4.97639427698409,0.12871115996746263,0.28,0,1,3.0
3.198077842999737,15,4997.26,-92.4,1.0,-110.1,2.27,-1.47,-3.32,0.21,-0.92,0.1,-152.2,-15.9,-80.0,-0.38,0.55,3.56,3.49,0.9489467845985886,4.282078934349529,0.11850606052072354,0.28,0,1,3.0
3.207649056000264,16,4997.27,-92.2,1.2,-110.2,1.99,-0.86,-2.2,0.43,-0.8,0.03,-152.4,-27.2,-122.0,-0.37,0.93,3.79,3.49,0.9087353850269065,3.0886404776211815,0.1555431108905575,0.28,0,1,3.0
3.2181005630000072,17,4997.28,-92.0,1.4,-110.3,1.02,0.15,-1.52,0.48,-0.83,0.01,-152.9,-52.5,-227.0,-0.36,1.73,3.58,3.49,0.9588534820294495,1.8366545674132628,0.10331651361025418,0.28,0,1,3.0
3.2273766489997797,18,4997.29,-92.0,1.6,-110.2,0.55,1.29,-1.05,0.44,-0.82,0.05,-153.5,-68.4,-134.0,-0.34,1.9,3.55,3.49,0.9319334740205439,1.7518846994023323,0.12763179118677648,0.28,0,1,3.0
3.2382020280001598,19,4997.3,-91.9,1.6,-110.0,0.76,2.44,-0.47,0.4,-0.83,0.07,-154.3,-81.1,-165.0,-0.31,2.43,3.31,3.49,0.9240129869217207,2.598480325113123,0.13284123271988768,0.28,0,1,3.0
3.247593394999967,20,4997.31,-91.8,1.7,-109.7,1.03,3.42,0.01,0.29,-0.87,0.08,-155.2,-91.1,-93.0,-0.29,2.57,3.42,3.49,0.9205433178292045,3.571750271225579,0.13358468377615573,0.28,0,1,3.0
3.2580348080000476,21,4997.32,-91.7,1.7,-109.3,1.33,4.12,0.22,0.14,-0.89,0.11,-156.1,-95.3,-6.0,-0.26,2.44,3.51,3.49,0.9076342875850383,4.334939445943853,0.1435638397399155,0.28,0,1,3.0
3.267603782999686,22,4997.33,-91.5,1.6,-108.9,1.67,4.35,0.26,0.03,-0.87,0.15,-157.0,-86.8,36.0,-0.24,2.28,3.34,3.49,0.8833459118601275,4.666797617210328,0.1644951711555298,0.28,0,1,3.0
3.278337738999653,23,4997.34,-91.3,1.6,-108.4,1.61,4.35,0.3,-0.05,-0.88,0.15,-157.8,-73.2,94.0,-0.22,1.9,3.51,3.49,0.8940917178902844,4.648074870309212,0.1506743778228653,0.28,0,1,0.0
3.287618018000103,24,4997.35,-91.2,1.6,-108.0,1.16,4.12,0.28,-0.1,-0.92,0.12,-158.5,-69.0,78.0,-0.2,1.71,3.61,3.49,0.9331666517830564,4.28933561288925,0.10936745505149159,0.28,0,1,0.0
3.2979104810001445,25,4997.36,-91.1,1.6,-107.6,0.83,3.82,0.29,-0.13,-0.93,0.13,-159.2,-69.2,-237.0,-0.18,2.92,0.42,0.0,0.9479978902930112,3.919872446904363,0.09264549221070595,0.28,0,1,0.0
3.30823331099964,26,4997.37,-91.0,1.6,-107.2,0.56,3.7,0.4,-0.18,-0.96,0.12,-160.7,-201.5,-1050.0,-0.12,7.21,0.46,0.0,0.9840731680114034,3.7634558586490687,0.05543881020246744,0.28,0,1,0.0
3.3183362629997646,27,4997.38,-90.9,1.5,-106.9,0.57,3.2,0.42,-0.23,-0.93,0.17,-163.6,-318.4,-981.0,-0.04,9.55,0.41,0.0,0.9729850975220536,3.2773922560474817,0.06519634307798083,0.28,0,1,0.0
3.327641480999773,28,4997.39,-90.9,1.5,-106.6,0.5,2.48,0.58,-0.17,-0.84,0.16,-167.3,-389.6,-719.0,0.06,11.19,0.23,0.0,0.8718371407550839,2.5955346270084707,0.16301741384805146,0.28,0,1,0.0
3.3379544110002826,29,4997.4,-90.8,1.4,-106.4,-0.03,1.75,0.88,-0.1,-0.77,0.14,-171.5,-440.1,-531.0,0.2,12.37,0.25,0.0,0.788986691902975,1.9590303724036542,0.24095050544615726,0.28,0,1,0.0
3.3482639049998397,30,4997.41,-90.9,1.3,-106.3,-1.01,1.22,1.14,-0.04,-0.79,0.09,-176.1,-460.7,-256.0,0.31,12.61,0.07,0.0,0.7961155694998058,1.95143536915779,0.2291451952923399,0.28,0,1,0.0
3.358234389000245,31,4997.42,-91.0,1.2,-106.2,-1.73,0.83,1.22,-0.02,-0.86,0.07,-180.3,-466.4,-120.0,0.45,12.58,0.04,0.0,0.863075894692929,2.273807379704798,0.1589411726972324,0.28,0,1,0.0
3.367683765000038,32,4997.43,-91.2,1.0,-106.1,-2.08,0.57,1.16,0.0,-0.96,0.04,-185.4,-447.8,131.0,0.56,11.88,-0.14,0.0,0.9608329719571451,2.448856876177128,0.05996041352435588,0.28,0,1,0.0
3.378119230000266,33,4997.44,-91.3,0.9,-106.0,-1.8,0.37,1.07,-0.01,-0.99,0.02,-189.6,-420.6,217.0,0.67,11.13,-0.01,0.0,0.9902524930541705,2.1264524448009645,0.029930074578783827,0.28,0,1,0.0
3.387706436999906,34,4997.45,-91.5,0.8,-106.0,-1.38,0.18,1.15,-0.01,-0.99,0.01,-193.6,-389.5,288.0,0.78,10.23,-0.4,0.0,0.990101004948485,1.8053531510482927,0.029479931430779982,0.28,0,1,0.0
3.398318579000261,35,4997.46,-91.6,0.7,-106.0,-0.96,0.04,1.29,0.0,-0.97,-0.02,-197.3,-356.9,304.0,0.87,9.34,-0.05,0.0,0.9702061636580134,1.6085086260259844,0.048387277266826456,0.28,0,1,0.0
3.4076143610000145,36,4997.47,-91.7,0.5,-106.0,-0.81,0.02,1.49,0.0,-0.94,-0.04,-200.5,-317.7,389.0,0.96,8.14,-0.12,0.0,0.940850678907126,1.6960542444155493,0.07618790677735943,0.28,0,1,0.0
3.4182283250002,37,4997.48,-91.7,0.4,-106.0,-0.62,0.15,1.42,0.0,-0.97,-0.07,-203.4,-270.8,421.0,1.03,6.89,-0.4,0.0,0.9725224933131367,1.5566952174398174,0.0436257705239218,0.28,0,1,0.0
3.4276305490002414,38,4997.49,-91.8,0.2,-105.9,-0.22,0.31,1.36,0.0,-0.94,-0.08,-205.8,-229.5,408.0,1.09,5.81,-0.35,0.0,0.9433981132056604,1.412126056696073,0.0712951476187702,0.28,0,1,0.0
3.438279459000114,39,4997.5,-91.9,0.1,-105.9,0.03,0.39,1.41,-0.01,-0.91,-0.07,-207.9,-187.5,401.0,1.14,4.66,-0.14,0.0,0.9127431182978045,1.4632498077908638,0.09991113967609344,0.28,0,1,0.0
3.447620451000148,40,4997.51,-91.9,0.0,-105.9,0.22,0.44,1.49,-0.02,-0.92,-0.06,-209.5,-142.6,429.0,1.18,3.41,0.02,0.0,0.9221713506718803,1.5691080268738669,0.08867324915597741,0.28,0,1,0.0
3.458072006999828,41,4997.52,-91.9,-0.1,-105.8,0.37,0.48,1.45,-0.04,-0.94,-0.06,-210.6,-99.2,419.0,1.21,2.23,-0.16,0.0,0.942761899951414,1.5715597347857957,0.0667210458789147,0.28,0,1,0.0
3.467700625999896,42,4997.53,-91.8,-0.3,-105.8,0.57,0.49,1.29,-0.06,-0.95,-0.07,-211.3,-55.0,444.0,1.22,0.93,-0.21,0.0,0.9544631999192007,1.4930170796075977,0.053919350992905346,0.28,0,1,0.0
3.4796423349998804,43,4997.54,-91.8,-0.5,-105.7,0.86,0.44,1.04,-0.09,-0.95,-0.07,-211.5,-12.8,413.0,1.22,-0.07,-0.02,0.0,0.9568176419778223,1.4194365079143203,0.050533610755598035,0.28,0,1,0.0
3.487644507999903,44,4997.55,-91.7,-0.6,-105.7,1.11,0.37,0.83,-0.11,-0.92,-0.08,-211.4,18.7,294.0,1.22,-0.73,-0.08,0.0,0.93,1.4345382532369082,0.07580422767875195,0.28,0,1,0.0
3.497955877000095,45,4997.56,-91.6,-0.6,-105.6,1.27,0.24,0.62,-0.12,-0.89,-0.09,-211.1,31.7,161.0,1.21,-0.94,-0.04,0.0,0.9025519375637061,1.4334922392534952,0.10118724431274506,0.28,0,1,0.0
3.507679803999963,46,4997.57,-91.4,-0.7,-105.6,1.4,0.11,0.38,-0.13,-0.87,-0.09,-210.8,33.7,37.0,1.2,-0.85,-0.05,0.0,0.8842510955605314,1.4548195764423848,0.11709832458960134,0.28,0,1,0.0
3.5180702469997414,47,4997.58,-91.3,-0.7,-105.6,1.47,-0.07,0.16,-0.14,-0.85,-0.08,-210.5,24.1,-80.0,1.19,-0.42,0.2,0.0,0.8651589449343975,1.4803377992877165,0.13346666571142052,0.28,0,1,0.0
3.5276968449998094,48,4997.59,-91.1,-0.7,-105.6,1.43,-0.42,-0.04,-0.15,-0.85,-0.07,-210.4,4.2,-156.0,1.19,0.1,-0.01,0.0,0.8659676668328904,1.49093930124603,0.13000478493666912,0.28,0,1,0.0
3.538295600999845,49,4997.6,-91.0,-0.7,-105.7,1.34,-0.82,-0.26,-0.15,-0.86,-0.09,-210.5,-8.9,-92.0,1.19,0.24,-0.07,0.0,0.8776103919165952,1.5923567439490436,0.115994818655905,0.28,0,1,0.0
3.5475855859995136,50,4997.61,-90.9,-0.7,-105.8,1.08,-1.22,-0.4,-0.15,-0.87,-0.1,-210.5,-5.8,-9.0,1.2,0.13,0.14,0.0,0.8884818512496471,1.677736570502056,0.10302089213639609,0.28,0,1,0.0
3.558108655000069,51,4997.62,-90.8,-0.6,-105.9,0.86,-1.64,-0.45,-0.14,-0.89,-0.09,-210.6,-5.9,-15.0,1.2,0.22,-0.06,0.0,0.9054280755532159,1.905701970403557,0.08435317447617074,0.28,0,1,0.0
3.567681253999581,52,4997.63,-90.7,-0.6,-106.1,0.82,-2.0,-0.49,-0.14,-0.9,-0.1,-210.7,-11.5,-52.0,1.2,0.39,0.26,0.0,0.9162968951164246,2.21641602593015,0.07201466781470278,0.28,0,1,0.0
3.578342091000195,53,4997.64,-90.6,-0.5,-106.4,0.83,-2.38,-0.51,-0.14,-0.89,-0.09,-210.8,-20.7,-92.0,1.21,0.73,-0.1,0.0,0.9054280755532159,2.5716531647949727,0.0812258176303533,0.28,0,1,0.0
3.5876094019995435,54,4997.65,-90.5,-0.5,-106.6,0.79,-2.67,-0.65,-0.14,-0.86,-0.1,-211.1,-32.2,-101.0,1.22,1.04,0.07,0.0,0.8770404779712279,2.859283126939338,0.10742114690809457,0.28,0,1,0.0
3.597931559999779,55,4997.66,-90.5,-0.4,-106.9,0.43,-2.85,-0.78,-0.14,-0.81,-0.12,-211.5,-44.2,-111.0,1.23,1.35,-0.06,0.0,0.8307225770376053,2.985933689819652,0.15066426688488277,0.28,0,1,0.0
3.6076460229996883,56,4997.67,-90.5,-0.3,-107.2,-0.44,-3.04,-0.78,-0.13,-0.77,-0.13,-212.1,-58.8,-143.0,1.25,1.86,0.17,0.0,0.7916438593205912,3.169163927599833,0.1859481249098589,0.28,0,1,0.0
3.6182009229996765,57,4997.68,-90.6,-0.3,-107.5,-1.36,-3.09,-0.66,-0.08,-0.77,-0.13,-212.8,-77.0,-179.0,1.27,2.35,0.26,0.0,0.7849840762716146,3.4399563950724725,0.1887557497996588,0.28,0,1,0.0
3.6275886080002238,58,4997.69,-90.7,-0.2,-107.8,-2.04,-2.85,-0.37,-0.02,-0.82,-0.17,-213.7,-97.7,-200.0,1.3,2.95,0.14,0.0,0.8376753547765386,3.5243439105739953,0.1333431818688401,0.28,0,1,0.0
3.6382684879999942,59,4997.7,-91.0,-0.2,-108.1,-2.4,-2.22,-0.02,0.04,-0.92,-0.22,-214.8,-118.8,-212.0,1.33,3.52,0.09,0.0,0.94678403028357,3.2693730285790275,0.023749816234572507,0.28,0,1,0.0
3.647624690000157,60,4997.71,-91.2,-0.2,-108.2,-2.0,-1.44,0.11,0.09,-1.03,-0.25,-216.2,-139.2,-192.0,1.37,4.02,-0.17,0.0,1.0637198879404295,2.466921158042956,0.09132232059384116,0.28,0,1,0.0
3.658416192999539,61,4997.72,-91.3,-0.2,-108.3,-1.14,-0.79,0.08,0.13,-1.07,-0.25,-217.6,-155.2,-156.0,1.41,4.39,-0.03,0.0,1.106480908104609,1.3892803892663281,0.13140167394286018,0.28,0,1,0.0
3.6676462799996443,62,4997.73,-91.4,-0.2,-108.4,-0.49,-0.5,-0.01,0.13,-1.06,-0.23,-219.3,-166.3,-118.0,1.46,4.63,-0.05,0.0,1.0924284873619874,0.7001428425685718,0.11500226813623382,0.28,0,1,0.0
3.678059664000102,63,4997.74,-91.5,-0.2,-108.5,-0.76,-0.54,-0.01,0.13,-1.04,-0.22,-221.0,-173.5,-78.0,1.5,4.78,0.18,0.0,1.0709341716464182,0.9323625904121207,0.09163779337225142,0.28,0,1,0.0
3.687648533999891,64,4997.75,-91.6,-0.2,-108.5,-1.29,-0.57,0.01,0.11,-1.08,-0.21,-222.8,-179.8,-80.0,1.56,5.04,0.17,0.0,1.1057124400132252,1.4103545653487282,0.1238877405042772,0.28,0,1,0.0
3.6982659730001615,65,4997.76,-91.7,-0.2,-108.6,-1.53,-0.57,0.3,0.07,-1.11,-0.17,-224.7,-190.9,-110.0,1.61,5.39,0.06,0.0,1.1251222155837115,1.6600602398708306,0.1404315657532682,0.28,0,1,0.0
3.7077259480001885,66,4997.77,-91.9,-0.3,-108.6,-1.53,-0.47,0.83,0.06,-1.17,-0.16,-226.7,-209.3,-164.0,1.67,6.01,0.05,0.0,1.1824127874815968,1.8029697723478337,0.1937676948981305,0.28,0,1,0.0
3.718456540000261,67,4997.78,-92.0,-0.4,-108.6,-0.81,-0.2,1.19,0.04,-1.28,-0.19,-229.0,-232.0,-215.0,1.73,6.66,-0.01,0.0,1.2946428078817724,1.4533409785731635,0.29987776099234,0.28,1,2,3.0
3.727685136999753,68,4997.79,-92.1,-0.5,-108.6,0.16,0.0,1.31,-0.01,-1.31,-0.18,-231.4,-254.6,-222.0,1.8,7.26,0.25,0.0,1.3223463993976767,1.3197348218486926,0.3210297254580794,0.28,0,2,3.0
3.7382164729997385,69,4997.8,-92.1,-0.7,-108.6,0.38,0.03,1.38,-0.02,-1.29,-0.09,-234.1,-272.2,-38.0,1.88,6.1,2.96,3.49,1.293290377293514,1.4316773379501402,0.2861342292868383,0.28,0,2,3.0
3.747649867000291,70,4997.81,-92.0,-0.8,-108.6,0.17,-0.11,1.51,0.02,-1.29,0.02,-236.2,-165.4,931.0,1.91,2.66,3.13,3.49,1.2903100402616419,1.5235156710713547,0.2774908144098669,0.28,0,2,3.0
3.7581436689997645,71,4997.82,-92.0,-1.0,-108.6,-0.29,-0.1,1.91,0.09,-1.37,0.06,-237.0,-52.8,921.0,1.92,0.41,3.16,3.49,1.3742634390829147,1.9344766734184209,0.35421532896651686,0.28,0,2,3.0
3.767622217999815,72,4997.83,-92.0,-1.2,-108.6,0.09,0.3,2.62,0.14,-1.44,0.07,-237.1,3.2,518.0,1.92,-0.19,3.38,3.49,1.4484819639885063,2.638654960391752,0.4198651767946662,0.28,0,2,3.0
3.778367332999551,73,4997.84,-92.0,-1.5,-108.6,1.4,0.63,3.31,0.13,-1.57,0.24,-237.0,1.3,119.0,1.92,0.06,3.48,3.49,1.5935494971917252,3.6486983980592314,0.5536340557979273,0.28,0,2,3.0
3.7876219890003995,74,4997.85,-91.7,-1.8,-108.5,3.9,0.27,3.37,-0.07,-1.48,0.35,-237.1,-3.3,24.0,1.92,0.12,3.52,3.49,1.5224322645030879,5.161375785582755,0.4728664866471042,0.28,0,2,3.0
3.7983827269999892,75,4997.86,-91.2,-2.1,-108.5,4.98,-0.73,2.94,-0.3,-1.22,0.46,-237.1,-8.2,-41.0,1.92,0.39,3.48,3.49,1.3379088160259651,5.828970749626387,0.2825761774065818,0.28,0,2,3.0
3.807621355000265,76,4997.87,-90.8,-2.4,-108.7,4.33,-2.36,2.3,-0.43,-1.03,0.51,-237.3,-17.3,-60.0,1.93,0.56,3.42,3.49,1.2271511724314978,5.441369312957907,0.16838216313587218,0.28,0,2,3.0
3.8182382200002394,77,4997.88,-90.4,-2.6,-109.0,2.97,-3.97,1.72,-0.48,-0.96,0.47,-237.5,-23.9,-61.0,1.93,0.71,3.46,3.49,1.1717081547894084,5.247875760724524,0.11068036258390701,0.28,0,2,3.0
3.8276439640003446,78,4997.89,-90.1,-2.8,-109.5,1.62,-5.17,1.27,-0.45,-0.91,0.4,-237.8,-28.4,-51.0,1.94,0.91,3.58,3.49,1.0911461863563472,5.564728205402309,0.0295160262678289,0.28,0,2,3.0
3.8379579989996273,79,4997.9,-90.0,-2.9,-110.0,0.74,-5.81,1.08,-0.35,-1.01,0.35,-238.1,-41.7,-140.0,1.95,1.44,3.48,3.49,1.1247666424641158,5.95567796308699,0.061873752728085485,0.28,0,2,3.0
3.848507783000059,80,4997.91,-89.9,-3.0,-110.6,0.84,-6.18,0.83,-0.19,-1.11,0.29,-238.7,-55.4,-74.0,1.97,1.41,3.42,3.49,1.1628843450661808,6.291812139598575,0.0979916262235474,0.28,0,2,3.0
3.858403231000011,81,4997.92,-89.8,-3.0,-111.3,1.13,-6.3,0.58,-0.02,-1.15,0.24,-239.1,-43.7,84.0,1.98,0.81,3.53,3.49,1.1749468073066116,6.426764349188478,0.10785300669469877,0.28,0,2,3.0
3.867580907000047,82,4997.93,-89.6,-3.1,-111.9,1.1,-6.0,0.25,0.01,-1.2,0.18,-239.4,-17.4,225.0,1.98,-0.03,3.17,3.49,1.2134661099511597,6.105120801425636,0.14344486315246185,0.28,0,2,3.0
3.8784235009998156,83,4997.94,-89.5,-3.1,-112.4,1.07,-5.51,-0.21,0.02,-1.19,0.11,-239.4,2.9,120.0,1.98,-0.03,3.53,3.49,1.195240561560726,5.616858552607498,0.12271492846678766,0.28,0,2,3.0
3.887605648999852,84,4997.95,-89.3,-3.0,-113.0,0.78,-4.69,-0.68,0.02,-1.12,0.13,-239.4,2.9,73.0,1.98,-0.27,3.38,3.49,1.12769676775275,4.802801265928042,0.05406771196563542,0.28,0,2,3.0
3.8982684519996837,85,4997.96,-89.3,-2.9,-113.4,0.05,-4.53,-1.16,0.0,-1.01,0.2,-239.2,20.0,178.0,1.97,-1.01,3.19,3.49,1.0296115772464878,4.67643026249724,0.043137128969814365,0.28,0,2,3.0
3.9076556230002097,86,4997.97,-89.3,-2.8,-113.9,-0.31,-4.54,-1.56,0.0,-0.91,0.15,-238.8,59.3,380.0,1.95,-2.41,3.35,3.49,0.9222797840135064,4.810540510171388,0.14745954375873982,0.28,0,2,0.0
3.918206413999542,87,4997.98,-89.3,-2.6,-114.3,-0.46,-4.56,-1.75,-0.01,-0.82,0.14,-237.9,108.7,419.0,1.92,-3.75,3.35,3.49,0.8319254774317227,4.905884222033781,0.23305757333371313,0.28,0,2,0.0
3.9276487249999263,88,4997.99,-89.3,-2.4,-114.8,-0.65,-4.64,-1.8,-0.01,-0.8,0.14,-236.5,142.8,100.0,1.88,-2.84,0.5,0.0,0.8122191822408531,5.019173238691806,0.24770859115409105,0.28,0,2,0.0
3.938229581000087,89,4998.0,-89.4,-2.2,-115.2,-1.09,-4.62,-1.99,-0.04,-0.86,0.1,-235.5,69.5,-459.0,1.87,-0.97,0.22,0.0,0.8667179472008181,5.147096268771355,0.1893456296702435,0.28,0,2,0.0
3.9475772400001006,90,4998.01,-89.4,-2.0,-115.7,-1.1,-4.73,-2.23,-0.07,-0.85,0.08,-235.2,33.6,-471.0,1.86,-0.37,0.03,0.0,0.8566212698736823,5.3437627192831085,0.19545346085743176,0.28,0,2,0.0
3.958456379999916,91,4998.02,-89.5,-1.8,-116.2,-0.74,-4.73,-2.2,-0.01,-0.8,0.03,-235.0,12.4,-190.0,1.86,-0.38,-0.08,0.0,0.8006247560499239,5.268823398065265,0.24642097518756623,0.28,0,2,0.0
3.9674830719995953,92,4998.03,-89.5,-1.5,-116.7,-0.18,-4.73,-1.93,0.06,-0.77,0.01,-234.9,17.2,-14.0,1.85,-0.64,-0.05,0.0,0.7723988606931007,5.1117707303829665,0.26915393313350156,0.28,0,2,0.0
3.978365357000257,93,4998.04,-89.5,-1.4,-117.1,0.18,-4.53,-1.53,0.13,-0.76,-0.03,-234.6,32.3,113.0,1.84,-1.16,-0.19,0.0,0.7716216689544171,4.78478839657513,0.2645325023747416,0.28,0,2,0.0
3.9875104829998236,94,4998.05,-89.4,-1.2,-117.6,0.14,-4.07,-1.15,0.19,-0.79,-0.07,-234.2,53.1,186.0,1.83,-1.82,-0.11,0.0,0.8155366331440913,4.231666338453447,0.21620518742136607,0.28,0,2,0.0
3.998203760999786,95,4998.06,-89.4,-1.1,-117.9,0.03,-3.53,-0.87,0.23,-0.82,-0.1,-233.4,78.6,234.0,1.81,-2.44,-0.04,0.0,0.857496355677387,3.6357530169141024,0.170760555590309,0.28,0,2,0.0
4.007645916000001,96,4998.07,-89.4,-1.0,-118.2,0.0,-2.92,-0.69,0.24,-0.84,-0.1,-232.5,104.5,256.0,1.78,-3.18,0.07,0.0,0.8793179174792243,3.0004166377354995,0.1459602139127023,0.28,0,2,0.0
4.018145699999877,97,4998.08,-89.4,-1.0,-118.5,0.01,-2.38,-0.55,0.24,-0.85,-0.1,-231.3,128.9,236.0,1.74,-3.76,-0.11,0.0,0.8888756943465155,2.4427443582986736,0.13367438830450284,0.28,0,2,0.0
4.027506112000083,98,4998.09,-89.4,-0.9,-118.7,-0.1,-1.91,-0.42,0.23,-0.86,-0.11,-229.8,153.4,247.0,1.7,-4.47,-0.04,0.0,0.8969949832635632,1.9581879378650047,0.12304399739970606,0.28,0,2,0.0
4.038449185999525,99,4998.1,-89.4,-0.9,-118.9,-0.28,-1.5,-0.4,0.22,-0.85,-0.11,-228.1,177.9,241.0,1.65,-5.12,-0.25,0.0,0.8848728722251575,1.5774663229368797,0.1324627862693495,0.28,0,2,0.0
4.047549930999594,100,4998.11,-89.5,-0.8,-119.0,-0.41,-1.09,-0.43,0.19,-0.83,-0.1,-226.1,203.0,257.0,1.59,-5.85,-0.08,0.0,0.8573214099741123,1.2414104881142256,0.1568139635499869,0.28,0,2,0.0
4.058551318999889,101,4998.12,-89.5,-0.8,-119.1,-0.71,-0.69,-0.52,0.15,-0.83,-0.1,-223.9,228.0,246.0,1.53,-6.49,0.0,0.0,0.8493526947034429,1.1183022847155415,0.1614870252442433,0.28,0,2,0.0
4.06748881600015,102,4998.13,-89.6,-0.7,-119.2,-1.07,-0.41,-0.45,0.11,-0.78,-0.09,-221.5,253.2,255.0,1.46,-7.2,-0.17,0.0,0.792842985716592,1.2310564568694646,0.2136367995464723,0.28,0,2,0.0
4.078347787999519,103,4998.14,-89.7,-0.7,-119.2,-1.48,-0.22,-0.26,0.08,-0.79,-0.1,-218.8,280.0,265.0,1.38,-7.94,-0.11,0.0,0.800312438988674,1.5186836405255704,0.2020439993489025,0.28,0,2,0.0
4.08764822699959,104,4998.15,-89.9,-0.7,-119.2,-1.58,-0.01,-0.04,0.07,-0.82,-0.1,-215.8,304.3,234.0,1.3,-8.52,-0.25,0.0,0.8290355842785037,1.5805378831271335,0.16985443697789138,0.28,0,2,0.0
4.098395693999919,105,4998.16,-90.0,-0.7,-119.2,-1.4,0.2,0.18,0.06,-0.85,-0.12,-212.6,325.3,230.0,1.21,-9.14,-0.14,0.0,0.8605230967266363,1.425622670975739,0.13559958603916356,0.28,0,2,0.0
4.107683614000052,106,4998.17,-90.2,-0.7,-119.2,-1.14,0.46,0.44,0.07,-0.87,-0.13,-209.2,351.7,256.0,1.11,-9.88,-0.13,0.0,0.8824397996464122,1.305679899515957,0.11140922545699994,0.28,0,2,0.0
4.1179462330001115,107,4998.18,-90.3,-0.8,-119.1,-0.8,0.67,0.66,0.07,-0.88,-0.13,-205.5,374.2,206.0,1.01,-10.36,0.02,0.0,0.8923003978481686,1.2347064428438042,0.09951765471013863,0.28,0,2,0.0
4.127575907999926,108,4998.19,-90.3,-0.9,-119.0,-0.34,0.89,0.84,0.08,-0.86,-0.16,-201.6,395.2,248.0,0.9,-11.13,-0.15,0.0,0.8784076502399099,1.2701574705523722,0.11114219427202943,0.28,0,2,0.0
4.138483636999808,109,4998.2,-90.3,-1.0,-118.9,-0.03,1.25,1.08,0.1,-0.83,-0.2,-197.5,424.6,254.0,0.79,-11.81,-0.11,0.0,0.8595929269136642,1.6522106403240477,0.12735777924630964,0.28,0,2,0.0
4.147616512999775,110,4998.21,-90.3,-1.1,-118.8,-0.12,1.54,1.2,0.12,-0.85,-0.19,-193.1,443.8,210.0,0.67,-12.32,-0.23,0.0,0.8792041856133306,1.9560163598497842,0.1055915901357104,0.28,0,2,0.0
4.158535186000336,111,4998.22,-90.4,-1.2,-118.6,-0.14,1.67,1.16,0.11,-0.85,-0.17,-188.5,466.0,219.0,0.54,-12.92,-0.03,0.0,0.8737848705488096,2.038160935745752,0.10879068709622675,0.28,0,2,0.0
4.167497280000134,112,4998.23,-90.4,-1.3,-118.4,-0.05,1.82,1.23,0.13,-0.85,-0.19,-183.7,488.9,251.0,0.4,-13.67,-0.11,0.0,0.8806247782114696,2.1972255232451676,0.09991176384489542,0.28,0,2,0.0
4.178391827999803,113,4998.24,-90.4,-1.4,-118.2,-0.07,2.14,1.38,0.13,-0.85,-0.2,-178.6,513.0,197.0,0.26,-14.09,-0.29,0.0,0.8828363381737296,2.547331937537784,0.09574619980498267,0.28,0,2,0.0
4.1876871200001915,114,4998.25,-90.4,-1.6,-118.0,-0.27,2.45,1.39,0.1,-0.86,-0.19,-173.3,532.0,240.0,0.12,-14.84,-0.1,0.0,0.8863972021616494,2.8297526393662045,0.09034162910072163,0.28,0,2,0.0
4.198198977999709,115,4998.26,-90.5,-1.7,-117.7,-0.57,2.67,1.33,0.07,-0.85,-0.18,-168.4,552.7,180.0,-0.02,-15.22,-0.15,0.0,0.8716650732936361,3.036889856415606,0.10297228280936033,0.28,0,2,0.0
4.207677794000119,116,4998.27,-90.5,-1.8,-117.5,-0.96,2.81,1.16,0.06,-0.86,-0.18,-162.2,577.7,247.0,-0.18,-16.02,-0.41,0.0,0.8806815542521599,3.1879930991142373,0.09207668581381978,0.28,0,2,0.0
4.218187647000377,117,4998.28,-90.7,-1.9,-117.2,-1.54,2.8,0.88,0.06,-0.88,-0.16,-156.3,589.3,99.0,-0.34,-16.02,0.09,0.0,0.8964373932405988,3.3145135389676716,0.0747944298888733,0.28,0,2,0.0
4.227665213000364,118,4998.29,-90.9,-2.0,-116.9,-2.13,2.63,0.57,0.06,-0.92,-0.13,-150.4,589.8,2.0,-0.5,-15.88,0.06,0.0,0.9310746479203481,3.432011072243211,0.03935403170494156,0.28,0,2,0.0
4.238221661999887,119,4998.3,-91.1,-2.0,-116.7,-2.49,2.29,0.36,0.1,-0.93,-0.13,-144.6,561.4,-362.0,-0.65,-14.24,0.58,0.0,0.944351629426243,3.402028806462403,0.025555509195065773,0.28,0,2,0.0
4.247659286000271,120,4998.31,-91.4,-2.1,-116.4,-2.02,2.2,0.54,0.27,-0.91,-0.2,-139.9,423.5,-1342.0,-0.76,-8.96,0.96,0.0,0.970051545022222,3.035127674415032,0.00014151827289499153,0.28,0,2,0.0
4.258255230000032,121,4998.32,-91.6,-2.1,-116.2,-2.09,2.74,0.82,0.18,-1.12,-0.27,-137.1,210.6,-1854.0,-0.81,-3.17,0.64,0.0,1.166061747936189,3.5423297418506934,0.19222868676312477,0.28,0,2,0.0
4.267719182999826,122,4998.33,-91.8,-2.2,-115.9,-2.86,3.05,0.31,-0.15,-1.32,-0.26,-136.3,23.7,-1670.0,-0.81,0.94,0.28,0.0,1.3536986370680884,4.192636402074474,0.3722682643771237,0.28,1,3,3.0
4.278300152000156,123,4998.34,-92.1,-2.2,-115.6,-2.69,3.04,-0.12,-0.31,-1.27,-0.17,-136.8,-73.1,-1071.0,-0.79,2.88,0.35,0.0,1.3182943525631898,4.06104666311531,0.33012670027478064,0.28,0,3,3.0
4.287620340000103,124,4998.35,-92.3,-2.2,-115.3,-1.08,2.28,-0.05,-0.18,-1.19,-0.15,-138.0,-130.3,-456.0,-0.75,3.05,3.12,3.49,1.212847888236608,2.523350946658035,0.22018663122923487,0.28,0,3,3.0
4.298370362999776,125,4998.36,-92.4,-2.2,-115.1,-0.4,1.73,0.08,-0.17,-1.27,-0.1,-138.9,-52.3,519.0,-0.74,0.14,3.24,3.49,1.2852237159343116,1.7774419821755085,0.2867112097483997,0.28,0,3,3.0
4.307693447999554,126,4998.37,-92.5,-2.2,-115.0,-0.52,1.55,-0.07,0.02,-1.21,-0.18,-138.8,14.9,332.0,-0.75,-0.3,3.63,3.49,1.2234786471369248,1.636398484477421,0.22046681813199265,0.28,0,3,3.0
4.318154476000018,127,4998.38,-92.6,-2.1,-114.8,-1.03,1.57,-0.5,0.12,-1.28,-0.14,-138.8,-3.1,-24.0,-0.74,0.3,3.56,3.49,1.293213052826177,1.9431417858715303,0.28439719934482,0.28,0,3,3.0
4.327659980000135,128,4998.39,-92.7,-2.1,-114.6,-1.65,1.55,-0.99,0.03,-1.27,-0.15,-138.9,-16.1,-62.0,-0.74,0.5,3.47,3.49,1.2791794244749248,2.470850056154764,0.2649562995736965,0.28,0,3,3.0
4.33842439,129,4998.4,-93.0,-1.9,-114.5,-2.11,1.71,-1.35,-0.11,-1.33,-0.07,-139.1,-22.5,-67.0,-0.73,0.7,3.68,3.49,1.3363756956784272,3.0329358713958987,0.3157095193616548,0.28,0,3,3.0
4.347628055000314,130,4998.41,-93.2,-1.8,-114.3,-2.15,1.52,-1.8,-0.14,-1.37,0.0,-139.5,-42.0,-222.0,-0.72,1.6,3.74,3.49,1.3771347065556079,3.1894983931646683,0.3493391596340587,0.28,0,3,3.0
4.35839889700037,131,4998.42,-93.4,-1.6,-114.2,-2.19,1.32,-2.22,-0.12,-1.4,0.06,-140.2,-80.9,-298.0,-0.7,2.49,3.5,3.49,1.406413879339933,3.386281146036165,0.37104596577001625,0.28,0,3,3.0
4.367705753000337,132,4998.43,-93.6,-1.4,-114.1,-2.1,0.82,-2.64,-0.17,-1.39,0.15,-141.1,-98.8,-203.0,-0.67,2.89,3.44,3.49,1.4083678496756449,3.4715990551905613,0.36553993738361346,0.28,0,3,3.0
4.378338653000355,133,4998.44,-93.8,-1.1,-114.1,-2.03,0.06,-3.0,-0.1,-1.36,0.2,-142.2,-109.3,-134.0,-0.64,3.14,3.49,3.49,1.3782597723216043,3.6227751793342073,0.32872322282898137,0.28,0,3,3.0
4.387704695000139,134,4998.45,-94.0,-0.8,-114.1,-1.95,-0.18,-3.15,-0.05,-1.36,0.14,-143.4,-121.9,-137.0,-0.61,3.52,3.53,3.49,1.3681008734738827,3.7090969251288106,0.3121930375016344,0.28,0,3,3.0
4.398258107000402,135,4998.46,-94.1,-0.5,-114.2,-1.81,-0.28,-2.82,0.02,-1.25,0.03,-144.7,-146.0,-237.0,-0.56,4.34,3.38,3.49,1.2505198918849711,3.3625734192728043,0.19071981479446842,0.28,0,3,3.0
4.407613495000078,136,4998.47,-94.3,-0.2,-114.2,-1.3,0.43,-2.07,0.16,-1.17,-0.02,-146.4,-169.8,-209.0,-0.52,4.82,3.51,3.49,1.181058846967415,2.481894437722926,0.11883359447937414,0.28,0,3,3.0
4.418227586999819,137,4998.48,-94.4,0.0,-114.1,-0.4,1.35,-1.33,0.28,-1.07,-0.04,-148.2,-184.3,-136.0,-0.47,5.08,3.38,3.49,1.1067520047418031,1.9368531178176627,0.043636217208687045,0.28,0,3,3.0
4.427649704000032,138,4998.49,-94.4,0.0,-113.9,0.16,2.55,-0.68,0.33,-0.97,-0.04,-150.1,-187.6,-39.0,-0.42,5.04,3.3,3.49,1.0253779790886872,2.6439553702738627,0.03698305227554033,0.28,0,3,3.0
4.438264409999647,139,4998.5,-94.3,0.0,-113.6,0.39,3.71,-0.28,0.35,-0.91,0.01,-151.9,-177.1,73.0,-0.37,4.61,3.53,3.49,0.9750384607798812,3.7409357118239814,0.08557611917265939,0.28,0,3,3.0
4.447597503999532,140,4998.51,-94.3,0.1,-113.2,0.57,4.77,-0.12,0.32,-0.89,0.06,-153.5,-155.9,205.0,-0.33,3.86,3.26,3.49,0.9476813810558906,4.805434423649957,0.11067453491871704,0.28,0,3,3.0
4.458454716999768,141,4998.52,-94.2,0.1,-112.6,0.62,5.41,-0.15,0.24,-0.93,0.13,-154.9,-127.5,270.0,-0.29,3.06,3.71,3.49,0.9692264957170744,5.447476479985939,0.08734683185238268,0.28,0,3,0.0
4.467689017999874,142,4998.53,-94.2,0.2,-112.1,0.6,5.65,-0.38,0.13,-0.98,0.13,-155.9,-98.5,295.0,-0.27,2.22,3.42,3.49,0.9970957827611147,5.694462222194472,0.05828799391217565,0.28,0,3,0.0
4.478251223999905,143,4998.54,-94.1,0.3,-111.5,0.51,5.63,-0.63,0.0,-1.01,0.12,-156.7,-74.1,36.0,-0.25,2.7,0.45,0.0,1.0171037311896953,5.688048874614212,0.037514444573923056,0.28,0,3,0.0
4.487693377999676,144,4998.55,-94.0,0.4,-111.0,0.67,5.46,-0.92,-0.16,-1.06,0.14,-158.0,-169.8,-760.0,-0.2,6.01,0.16,0.0,1.0811105401391665,5.57735600441643,0.025962517088037096,0.28,0,3,0.0
4.498199716999807,145,4998.56,-93.9,0.6,-110.5,1.05,4.83,-0.97,-0.32,-0.98,0.23,-160.4,-267.0,-787.0,-0.12,8.11,0.33,0.0,1.0562670116973265,5.037092415272922,0.0010966088732731194,0.28,0,3,0.0
4.507691394999711,146,4998.57,-93.8,0.7,-110.0,1.28,3.99,-0.62,-0.29,-0.84,0.19,-163.6,-324.9,-561.0,-0.03,9.26,0.0,0.0,0.9087353850269064,4.235906042395181,0.14350631744120412,0.28,0,3,0.0
4.518300038000234,147,4998.58,-93.7,0.7,-109.7,1.09,3.13,-0.19,-0.21,-0.77,0.13,-167.0,-351.4,-320.0,0.06,9.74,0.0,0.0,0.8086408349817612,3.319804211094383,0.23872885013662237,0.28,0,3,0.0
4.527676441999574,148,4998.59,-93.6,0.8,-109.4,0.01,2.44,0.23,-0.13,-0.75,0.08,-170.3,-364.4,-191.0,0.16,9.98,-0.18,0.0,0.7653757247260982,2.4508365918600123,0.2763540811844396,0.28,0,3,0.0
4.538404709000133,149,4998.6,-93.7,0.7,-109.2,-0.98,1.98,0.43,-0.06,-0.82,0.04,-174.3,-361.7,14.0,0.25,9.65,0.14,0.0,0.8231646250902671,2.250710998773499,0.21419387720386518,0.28,0,3,0.0
4.54765487900022,150,4998.61,-93.8,0.7,-109.0,-1.54,1.61,0.56,-0.03,-0.9,0.0,-177.8,-345.4,112.0,0.35,9.2,-0.21,0.0,0.9004998611882181,2.2972374713990718,0.13412146828379579,0.28,0,3,0.0
4.558106163999582,151,4998.62,-93.9,0.6,-108.9,-1.6,1.42,0.64,-0.01,-0.99,-0.01,-181.1,-325.7,194.0,0.43,8.52,0.06,0.0,0.990101004948485,2.2329352879114075,0.04362991803305827,0.28,0,3,0.0
4.567657620999853,152,4998.63,-94.0,0.5,-108.7,-1.14,1.37,0.65,0.0,-1.03,-0.03,-184.2,-294.7,291.0,0.51,7.57,-0.21,0.0,1.0304368005850721,1.8971030546599201,0.0032282399485417113,0.28,0,3,0.0
4.578498740999748,153,4998.64,-94.1,0.5,-108.6,-0.55,1.37,0.61,0.01,-1.03,-0.05,-186.9,-260.4,315.0,0.58,6.69,-0.31,0.0,1.0312613635737546,1.5973415414368963,0.002355603420661989,0.28,0,3,0.0
4.587693905000378,154,4998.65,-94.1,0.4,-108.4,-0.05,1.45,0.51,0.0,-0.99,-0.08,-189.2,-228.4,318.0,0.64,5.82,-0.13,0.0,0.9932270636667125,1.5378881623837282,0.039582105261149914,0.28,0,3,0.0
4.598230435000005,155,4998.66,-94.1,0.4,-108.3,0.14,1.53,0.38,-0.01,-0.96,-0.08,-191.3,-195.0,331.0,0.69,4.89,-0.24,0.0,0.9633794683301071,1.5826875876179733,0.0680411065858002,0.28,0,3,0.0
4.607582466000167,156,4998.67,-94.1,0.4,-108.1,0.27,1.64,0.28,-0.04,-0.92,-0.08,-193.0,-161.8,333.0,0.74,3.98,-0.08,0.0,0.9243376006633075,1.6854969593564977,0.10494131476754776,0.28,0,3,0.0
4.618407723999553,157,4998.68,-94.1,0.3,-108.0,0.32,1.68,0.28,-0.07,-0.89,-0.07,-194.4,-128.6,329.0,0.77,3.09,-0.08,0.0,0.895488693395958,1.7329743217947573,0.13111441759419917,0.28,0,3,0.0
4.627694836000046,158,4998.69,-94.1,0.2,-107.8,0.39,1.67,0.34,-0.1,-0.88,-0.06,-195.5,-97.0,317.0,0.8,2.26,0.02,0.0,0.8876936408468858,1.7483134730362286,0.13613128074040604,0.28,0,3,0.0
4.638219225999819,159,4998.7,-94.0,0.1,-107.6,0.47,1.55,0.47,-0.11,-0.86,-0.07,-196.2,-66.7,302.0,0.81,1.46,0.0,0.0,0.8698275691193054,1.6865052623694952,0.15091740541862686,0.28,0,3,0.0
4.647583983999539,160,4998.71,-94.0,0.1,-107.5,0.51,1.47,0.52,-0.12,-0.89,-0.07,-196.7,-39.3,279.0,0.82,0.74,-0.18,0.0,0.9007774419910837,1.6405486887014356,0.11756818189591156,0.28,0,3,0.0
4.658504394999909,161,4998.72,-93.9,0.0,-107.3,0.64,1.34,0.52,-0.12,-0.9,-0.08,-196.9,-15.6,242.0,0.83,0.15,-0.09,0.0,0.9114823092084673,1.573403953217355,0.10472604838495736,0.28,0,3,0.0
4.667538742000033,162,4998.73,-93.8,0.0,-107.2,0.76,1.17,0.61,-0.12,-0.9,-0.08,-196.9,2.6,164.0,0.83,-0.15,-0.05,0.0,0.9114823092084673,1.522694979304785,0.10263152741725812,0.28,0,3,0.0
4.678462085999854,163,4998.74,-93.7,0.0,-107.1,0.89,1.08,0.68,-0.11,-0.92,-0.1,-196.9,4.6,42.0,0.82,-0.07,0.03,0.0,0.931933474020544,1.5559241626763176,0.0805367553530778,0.28,0,3,0.0
4.687660769999638,164,4998.75,-93.6,0.0,-107.0,1.07,0.94,0.75,-0.11,-0.91,-0.11,-196.9,-0.2,-17.0,0.82,0.06,0.0,0.0,0.9232009532057471,1.6096583488430085,0.08748389064451734,0.28,0,3,0.0
4.698069633000159,165,4998.76,-93.5,-0.1,-106.9,1.16,0.82,0.76,-0.1,-0.9,-0.13,-196.9,-2.0,1.0,0.82,0.01,0.0,0.0,0.9148223871331528,1.6110865898517062,0.09394520758276947,0.28,0,3,0.0
4.70765867099999,166,4998.77,-93.4,-0.2,-106.8,1.21,0.74,0.68,-0.11,-0.9,-0.13,-196.9,0.7,8.0,0.82,-0.01,0.09,0.0,0.9159694318043589,1.5729272074701994,0.09094219965333206,0.28,0,3,0.0
4.718463403999522,167,4998.78,-93.3,-0.2,-106.7,1.23,0.6,0.51,-0.12,-0.9,-0.12,-196.9,-1.2,-16.0,0.83,0.06,-0.05,0.0,0.9158602513484249,1.4604793733565702,0.08923035250708078,0.28,0,3,0.0
4.727581670000291,168,4998.79,-93.2,-0.3,-106.7,1.31,0.4,0.24,-0.12,-0.9,-0.14,-196.9,-4.5,-25.0,0.83,0.16,0.03,0.0,0.9186947262284682,1.3905754204644925,0.08466796007449684,0.28,0,3,0.0
4.7383398789997955,169,4998.8,-93.0,-0.3,-106.6,1.37,0.22,-0.05,-0.12,-0.89,-0.15,-197.0,-8.9,-53.0,0.83,0.35,0.01,0.0,0.910494371207203,1.3884523758487362,0.09101094879384675,0.28,0,3,0.0
4.747662155999933,170,4998.81,-92.9,-0.2,-106.6,1.35,0.04,-0.37,-0.11,-0.89,-0.15,-197.2,-19.0,-83.0,0.83,0.63,0.08,0.0,0.9092304438369846,1.4003570973148243,0.09042937864078382,0.28,0,3,0.0
4.758263157999863,171,4998.82,-92.8,-0.2,-106.6,1.42,-0.22,-0.72,-0.1,-0.88,-0.14,-197.4,-31.8,-129.0,0.84,1.06,0.0,0.0,0.8966604708583957,1.6072336482291552,0.10093936458698527,0.28,0,3,0.0
4.767607922000025,172,4998.83,-92.6,-0.1,-106.7,1.43,-0.51,-1.04,-0.09,-0.87,-0.14,-197.9,-48.0,-144.0,0.86,1.48,0.01,0.0,0.8857764955111419,1.8402717190675946,0.10958687313555426,0.28,0,3,0.0
4.778439693999644,173,4998.84,-92.5,0.0,-106.8,1.19,-0.87,-1.27,-0.09,-0.84,-0.15,-198.5,-62.3,-142.0,0.88,1.86,0.09,0.0,0.8580209787645054,1.9457389341841314,0.13459554208454694,0.28,0,3,0.0
4.787667667000278,174,4998.85,-92.4,0.0,-106.9,0.67,-1.21,-1.36,-0.08,-0.83,-0.16,-199.2,-76.9,-148.0,0.9,2.28,0.0,0.0,0.8490583018850942,1.9397422509189206,0.140687054584679,0.28,0,3,0.0
4.79811952900036,175,4998.86,-92.4,0.2,-107.0,0.07,-1.48,-1.37,-0.07,-0.85,-0.16,-200.1,-92.0,-148.0,0.92,2.67,0.03,0.0,0.8677557259966654,2.017969276277516,0.1195498378636457,0.28,0,3,0.0
4.807588951999605,176,4998.87,-92.4,0.3,-107.2,-0.28,-1.71,-1.34,-0.07,-0.89,-0.14,-201.1,-105.6,-131.0,0.95,3.01,0.14,0.0,0.9036592278065886,2.190456573411123,0.08197340933264807,0.28,0,3,0.0
4.8184490780004126,177,4998.88,-92.4,0.4,-107.4,-0.32,-1.93,-1.34,-0.06,-0.91,-0.13,-202.2,-116.8,-116.0,0.98,3.31,0.24,0.0,0.9211948762341224,2.371265484925718,0.06314900568701198,0.28,0,3,0.0
4.827597456999683,178,4998.89,-92.4,0.6,-107.6,-0.34,-2.02,-1.31,-0.05,-0.93,-0.16,-203.4,-127.3,-103.0,1.02,3.57,0.15,0.0,0.944986772394196,2.4314810301542553,0.03856996733639961,0.28,0,3,0.0
4.838101323000046,179,4998.9,-92.5,0.7,-107.8,-0.36,-2.07,-1.25,-0.02,-0.93,-0.16,-204.8,-137.0,-104.0,1.06,3.86,-0.08,0.0,0.9438749917229505,2.4447903795622232,0.03888811304749218,0.28,0,3,0.0
4.8471527399997285,180,4998.91,-92.5,0.8,-108.0,-0.21,-2.11,-1.13,0.0,-0.92,-0.16,-206.2,-147.7,-98.0,1.1,4.11,1.7,0.0,0.9338094023943002,2.4027276166889995,0.04797462832861965,0.28,0,3,0.0
4.858421730000373,181,4998.92,-92.5,0.9,-108.2,-0.3,-2.08,-0.89,0.02,-0.9,-0.19,-207.8,-158.2,-102.0,1.14,4.41,0.08,0.0,0.9200543462209175,2.2822138374832455,0.06049509081196225,0.28,0,3,0.0
4.87171935599963,182,4998.93,-92.6,0.9,-108.4,-0.58,-1.99,-0.56,0.05,-0.92,-0.24,-209.4,-165.9,-75.0,1.19,4.57,-0.07,0.0,0.9521029356114811,2.1471143425537447,0.027877571392970757,0.28,0,3,0.0
4.879675397999563,183,4998.94,-92.7,1.0,-108.6,-0.76,-1.8,-0.33,0.07,-0.98,-0.27,-211.1,-171.8,-70.0,1.23,4.75,-0.24,0.0,1.018920997918877,1.9815398053029367,0.0381616810961366,0.28,0,3,0.0
4.887546797999676,184,4998.95,-92.7,1.0,-108.8,-0.85,-1.66,-0.15,0.04,-1.0,-0.25,-212.9,-177.9,-61.0,1.28,4.91,-0.03,0.0,1.0315522284402279,1.8709890432602752,0.049777053385137826,0.28,0,3,0.0
4.898314316999858,185,4998.96,-92.8,1.0,-109.0,-1.17,-1.64,0.13,0.04,-1.07,-0.27,-214.7,-184.7,-71.0,1.33,5.11,0.0,0.0,1.1042644610780517,2.0187619968683777,0.12003950030250232,0.28,0,3,0.0
4.907708333000301,186,4998.97,-93.0,1.0,-109.1,-0.98,-1.61,0.24,0.05,-1.17,-0.25,-216.6,-193.0,-77.0,1.38,5.34,0.18,0.0,1.1974556359214314,1.900026315607234,0.2089660616429645,0.28,0,3,0.0
4.919517067000015,187,4998.98,-93.1,0.9,-109.3,-0.67,-1.76,0.45,0.03,-1.2,-0.18,-218.6,-201.6,-87.0,1.44,5.59,0.05,0.0,1.2137956994486345,1.9362334569984065,0.22080000266676425,0.28,0,3,0.0
4.927736437000021,188,4998.99,-93.2,0.8,-109.5,-0.44,-1.87,0.87,0.05,-1.21,-0.17,-220.7,-210.6,-93.0,1.5,5.85,-0.07,0.0,1.222906374175881,2.1088859618291362,0.22531246384613046,0.28,0,3,0.0
4.938407947999622,189,4999.0,-93.3,0.7,-109.6,-0.02,-1.77,1.33,0.1,-1.27,-0.19,-222.9,-221.3,-101.0,1.56,6.14,0.23,0.0,1.288021738946979,2.2140912356991977,0.2846192720448839,0.28,1,4,3.0
4.947639103999791,190,4999.01,-93.2,0.6,-109.8,0.56,-1.58,1.6,0.11,-1.32,-0.18,-224.6,-230.3,-148.0,1.62,6.48,0.23,0.0,1.3367497896016294,2.317326045251294,0.32668037624554347,0.28,0,4,3.0
4.958420986999954,191,4999.02,-93.2,0.4,-109.9,1.04,-1.43,1.83,0.11,-1.31,-0.14,-227.5,-233.9,150.0,1.68,5.44,3.06,3.49,1.3220438721918424,2.5446807265352565,0.30573496965904146,0.28,0,4,3.0
4.967736556000091,192,4999.03,-93.1,0.3,-110.1,1.44,-1.22,2.31,0.16,-1.3,-0.11,-229.1,-114.2,992.0,1.71,1.4,3.01,3.49,1.31442002419318,2.982968320314515,0.29214889922717147,0.28,0,4,3.0
4.978421894000348,193,4999.04,-92.9,0.0,-110.1,1.93,-0.67,2.79,0.23,-1.4,-0.05,-229.4,5.0,937.0,1.7,-0.94,3.5,3.49,1.4196478436570106,3.4580196644900676,0.389429184317182,0.28,0,4,3.0
4.987623035999604,194,4999.05,-92.6,-0.2,-110.2,3.17,-0.15,3.27,0.21,-1.4,-0.02,-229.1,30.5,265.0,1.7,-0.51,3.64,3.49,1.4158036587041296,4.556786148153104,0.3778732993770151,0.28,0,4,3.0
4.998418483999558,195,4999.06,-92.3,-0.6,-110.1,4.42,0.48,3.83,0.09,-1.37,0.06,-229.0,5.7,-65.0,1.7,0.16,3.49,3.49,1.3742634390829147,5.8681939299924295,0.32960641816068414,0.28,0,4,3.0
5.007644168999832,196,4999.07,-91.8,-1.0,-110.1,4.94,0.47,3.93,-0.11,-1.29,0.21,-229.0,-5.2,-36.0,1.7,0.16,3.42,3.49,1.3116020738013494,6.330039494347567,0.26160615182153646,0.28,0,4,3.0
5.018401164000352,197,4999.08,-91.3,-1.3,-110.0,4.67,-0.34,3.39,-0.36,-1.15,0.39,-229.1,-9.1,-66.0,1.7,0.42,3.67,3.49,1.2665701717630964,5.780709299039349,0.21224276478761772,0.28,0,4,3.0
5.027705010999853,198,4999.09,-90.9,-1.6,-110.2,3.33,-2.09,2.6,-0.52,-1.04,0.42,-229.3,-21.6,-114.0,1.71,0.79,3.46,3.49,1.2362847568420472,4.71349127505292,0.17831820286923716,0.28,0,4,3.0
5.038438401000349,199,4999.1,-90.6,-1.9,-110.4,1.58,-3.37,1.88,-0.53,-1.0,0.32,-229.5,-33.1,-98.0,1.72,1.01,3.5,3.49,1.1761377470347596,4.169856112625471,0.11580776920071068,0.28,0,4,3.0
5.0475152540002455,200,4999.11,-90.5,-2.0,-110.8,0.63,-4.21,1.41,-0.39,-1.04,0.32,-229.9,-42.9,-127.0,1.73,1.48,3.61,3.49,1.1558979193683152,4.4843171163511615,0.0936565827035809,0.28,0,4,3.0
5.0584132329995555,201,4999.12,-90.4,-2.2,-111.3,1.03,-4.92,1.2,-0.24,-1.07,0.34,-230.5,-67.4,-216.0,1.75,2.16,3.51,3.49,1.1480853626799707,5.167910602941967,0.08412714549493172,0.28,0,4,3.0
5.0676156729996364,202,4999.13,-90.3,-2.3,-111.8,2.03,-5.44,1.2,-0.1,-1.03,0.29,-231.3,-82.0,-141.0,1.77,2.43,3.71,3.49,1.074709263010234,5.929123038021728,0.010536024908690989,0.28,0,4,3.0
5.078326556999855,203,4999.14,-90.0,-2.4,-112.4,2.63,-5.76,1.22,-0.01,-0.97,0.24,-232.3,-95.7,-105.0,1.8,2.61,3.86,3.49,0.9992997548283498,6.448480441158211,0.06357601360772924,0.28,0,4,3.0
5.087615051999819,204,4999.15,-89.7,-2.5,-113.0,2.63,-5.81,1.17,0.0,-0.9,0.19,-233.2,-96.4,-18.0,1.83,2.45,3.53,3.49,0.9198369420718001,6.483972547751879,0.14017804983699322,0.28,0,4,3.0
5.098466323000139,205,4999.16,-89.4,-2.6,-113.5,2.1,-5.52,1.09,-0.02,-0.88,0.14,-234.1,-75.1,186.0,1.84,1.57,3.2,3.49,0.8912911982062877,6.005705620491233,0.16534931782845552,0.28,0,4,3.0
5.107641949000026,206,4999.17,-89.2,-2.7,-114.1,1.34,-5.19,0.74,-0.07,-0.95,0.12,-234.6,-39.0,353.0,1.85,0.27,3.24,3.49,0.9601041610158764,5.411035021139671,0.09460562791848959,0.28,0,4,3.0
5.118323714000326,207,4999.18,-89.0,-2.8,-114.6,0.97,-4.73,0.14,-0.03,-0.98,0.1,-234.6,5.4,299.0,1.85,-0.22,3.52,3.49,0.9855455342093535,4.830465816047145,0.06778096963051228,0.28,0,4,3.0
5.127699933999793,208,4999.19,-88.9,-2.7,-115.0,0.54,-4.38,-0.45,-0.02,-1.0,0.15,-234.5,7.1,97.0,1.85,-0.25,3.34,3.49,1.0113851887386922,4.436045536285668,0.04110248879915024,0.28,0,4,0.0
5.138243096999759,209,4999.2,-88.8,-2.6,-115.5,0.26,-4.28,-0.97,-0.02,-0.97,0.16,-234.4,15.3,126.0,1.84,-0.7,3.34,3.49,0.9833107342035883,4.39623702727685,0.06779340446756899,0.28,0,4,0.0
5.147633343000052,210,4999.21,-88.8,-2.5,-115.9,0.21,-4.06,-1.3,0.0,-0.91,0.11,-234.2,25.5,-83.0,1.84,0.22,0.62,0.0,0.916624241442479,4.268219769412067,0.13179029928410468,0.28,0,4,0.0
5.15848166700016,211,4999.22,-88.7,-2.3,-116.3,-0.29,-3.7,-1.6,-0.01,-0.93,0.09,-234.3,-36.9,-373.0,1.85,1.5,0.09,0.0,0.9343982020530648,4.041546733615733,0.11173601190004856,0.28,0,4,0.0
5.1677004840003065,212,4999.23,-88.7,-2.1,-116.6,-0.88,-3.57,-1.93,-0.02,-0.9,0.14,-234.9,-56.1,-161.0,1.86,1.48,0.0,0.0,0.9110433579144299,4.152613634808805,0.13238903891790965,0.28,0,4,0.0
5.17828648700015,213,4999.24,-88.8,-1.9,-117.0,-1.27,-3.58,-2.08,0.03,-0.87,0.14,-235.4,-46.6,46.0,1.88,0.9,-0.38,0.0,0.8817028978062849,4.330785148215044,0.15849490904553365,0.28,0,4,0.0
5.1876271589999305,214,4999.25,-88.9,-1.7,-117.3,-1.12,-3.64,-2.11,0.05,-0.85,0.13,-235.7,-21.1,216.0,1.88,0.08,-0.04,0.0,0.8613361713059541,4.3538603560518565,0.17528440283494706,0.28,0,4,0.0
5.198424043999694,215,4999.26,-89.0,-1.5,-117.7,-0.73,-3.64,-1.95,0.07,-0.8,0.1,-235.7,11.4,249.0,1.88,-0.63,-0.02,0.0,0.8092589202474076,4.193447269252351,0.22281442081562353,0.28,0,4,0.0
5.207548405000125,216,4999.27,-89.0,-1.3,-118.0,-0.52,-3.45,-1.62,0.1,-0.77,0.04,-235.4,30.2,206.0,1.87,-1.08,-0.24,0.0,0.7774959806970065,3.84672588053789,0.2494858131587041,0.28,0,4,0.0
5.218426145999729,217,4999.28,-89.1,-1.2,-118.4,-0.38,-3.1,-1.26,0.13,-0.78,-0.01,-235.0,50.0,200.0,1.85,-1.7,-0.14,0.0,0.7908223567907018,3.3677885919398207,0.23143624832370868,0.28,0,4,0.0
5.2276950919995215,218,4999.29,-89.1,-1.1,-118.7,-0.4,-2.56,-0.96,0.18,-0.82,-0.06,-234.3,71.8,217.0,1.83,-2.22,-0.17,0.0,0.8416650165000324,2.763186566267287,0.17698171684209052,0.28,0,4,0.0
5.238154814999689,219,4999.3,-89.1,-1.0,-118.9,-0.4,-1.91,-0.83,0.21,-0.86,-0.08,-233.5,93.9,216.0,1.8,-2.96,-0.09,0.0,0.8888756943465155,2.1206131188880257,0.12717561821569534,0.28,0,4,0.0
5.247752792000028,220,4999.31,-89.2,-0.9,-119.0,-0.41,-1.31,-0.76,0.23,-0.9,-0.08,-232.3,120.4,257.0,1.77,-3.6,-0.05,0.0,0.9323625904121207,1.5690124282490563,0.08201494770708839,0.28,0,4,0.0
5.258269164999547,221,4999.32,-89.2,-0.8,-119.1,-0.45,-0.77,-0.76,0.22,-0.9,-0.09,-231.0,143.6,227.0,1.73,-4.28,-0.24,0.0,0.9308598175880191,1.1717508267545622,0.0818473661205662,0.28,0,4,0.0
5.267736089999744,222,4999.33,-89.3,-0.7,-119.2,-0.57,-0.25,-0.73,0.19,-0.91,-0.11,-229.3,167.8,244.0,1.68,-4.95,-0.16,0.0,0.9361089680160104,0.9593226777263216,0.07506625137872325,0.28,0,4,0.0
5.278371450999657,223,4999.34,-89.3,-0.7,-119.2,-0.69,0.21,-0.68,0.16,-0.91,-0.11,-227.5,191.9,238.0,1.62,-5.61,-0.13,0.0,0.9304837451562493,0.9912618221237011,0.0790776447537147,0.28,0,4,0.0
5.287696391000281,224,4999.35,-89.4,-0.6,-119.1,-0.86,0.5,-0.6,0.12,-0.91,-0.09,-225.4,217.4,248.0,1.56,-6.28,0.03,0.0,0.9222797840135064,1.1617228585166084,0.0855359737785284,0.28,0,4,0.0
5.298184348000177,225,4999.36,-89.5,-0.5,-119.1,-0.94,0.64,-0.64,0.09,-0.93,-0.1,-223.0,241.6,247.0,1.5,-6.97,-0.03,0.0,0.9396807968666807,1.3049137902558927,0.06677226170684691,0.28,0,4,0.0
5.30770038799983,226,4999.37,-89.6,-0.5,-119.0,-0.87,0.7,-0.73,0.05,-0.92,-0.12,-220.4,268.8,275.0,1.42,-7.75,-0.14,0.0,0.9291393867445292,1.3340914511381894,0.07576739839241853,0.28,0,4,0.0
5.318320403000143,227,4999.38,-89.7,-0.4,-118.9,-0.72,0.73,-0.74,0.01,-0.89,-0.13,-217.6,296.2,265.0,1.35,-8.37,-0.16,0.0,0.899499861033897,1.2644761761298628,0.10329878562098982,0.28,0,4,0.0
5.32771179700012,228,4999.39,-89.7,-0.3,-118.9,-0.56,0.74,-0.68,0.0,-0.87,-0.14,-214.5,319.0,228.0,1.25,-9.0,0.0,0.0,0.8811923740024081,1.1504781614615724,0.1191741471994292,0.28,0,4,0.0
5.3383585809997385,229,4999.4,-89.8,-0.3,-118.8,-0.52,0.7,-0.61,0.0,-0.88,-0.15,-211.1,342.1,250.0,1.17,-9.63,-0.02,0.0,0.8926925562588723,1.064189832689638,0.10552048564410565,0.28,0,4,0.0
5.347449095999764,230,4999.41,-89.9,-0.2,-118.7,-0.46,0.63,-0.58,-0.01,-0.87,-0.15,-207.5,367.8,240.0,1.05,-10.31,0.05,0.0,0.8828929719960398,0.97205966895042,0.11301366850879946,0.28,0,4,0.0
5.358506120999664,231,4999.42,-89.9,-0.1,-118.7,-0.27,0.54,-0.49,-0.01,-0.87,-0.15,-203.7,386.6,212.0,0.95,-10.9,-0.21,0.0,0.8828929719960398,0.7775602870517501,0.11075339513862348,0.28,0,4,0.0
5.367567002999749,232,4999.43,-89.9,-0.1,-118.6,0.03,0.38,-0.4,0.0,-0.87,-0.14,-199.5,415.1,273.0,0.83,-11.71,-0.01,0.0,0.8811923740024081,0.5525395913416522,0.11020491326961002,0.28,0,4,0.0
5.378450612999586,233,4999.44,-89.9,-0.1,-118.6,0.45,0.25,-0.24,0.03,-0.85,-0.16,-195.2,439.6,231.0,0.71,-12.26,0.08,0.0,0.8654478609367522,0.567978872846517,0.12343043780856067,0.28,0,4,0.0
5.387606577999577,234,4999.45,-89.8,-0.1,-118.6,0.67,0.27,-0.03,0.06,-0.84,-0.18,-190.7,461.5,236.0,0.58,-12.92,-0.13,0.0,0.8611620056644393,0.7229799443968,0.125161967219256,0.28,0,4,0.0
5.39830501599954,235,4999.46,-89.8,-0.1,-118.5,0.61,0.4,0.22,0.08,-0.84,-0.18,-185.9,486.0,244.0,0.45,-13.63,-0.14,0.0,0.8627861844049195,0.7619055059520177,0.12106703270920027,0.28,0,4,0.0
5.407616298999528,236,4999.47,-89.7,-0.1,-118.5,0.43,0.5,0.39,0.11,-0.87,-0.17,-180.9,514.7,259.0,0.31,-14.26,-0.24,0.0,0.8932524839036273,0.7661592523751182,0.08878871854628256,0.28,0,4,0.0
5.418543191000026,237,4999.48,-89.7,-0.1,-118.4,0.44,0.63,0.54,0.15,-0.84,-0.18,-175.6,526.0,138.0,0.17,-14.49,0.0,0.0,0.8720665112249179,0.9392017887546851,0.10777519740049224,0.28,0,4,0.0
5.427647235000222,238,4999.49,-89.6,-0.2,-118.3,0.23,0.87,0.67,0.16,-0.84,-0.19,-170.2,540.4,132.0,0.02,-14.77,-0.01,0.0,0.875956619930462,1.121918000568669,0.10180738692104907,0.28,0,4,0.0
5.4383486300002915,239,4999.5,-89.6,-0.3,-118.2,-0.29,1.16,0.73,0.14,-0.83,-0.18,-164.7,549.9,145.0,-0.12,-15.29,-0.07,0.0,0.8607554821202128,1.4009282636880447,0.11466835423667232,0.28,0,4,0.0
5.447567725999761,240,4999.51,-89.7,-0.4,-118.1,-0.68,1.44,0.81,0.15,-0.8,-0.16,-159.1,560.5,22.0,-0.27,-14.96,0.05,0.0,0.8295179322956195,1.786644900364927,0.14298778598004025,0.28,0,4,0.0
5.458403708999867,241,4999.52,-89.8,-0.4,-118.0,-0.98,1.64,0.88,0.17,-0.79,-0.15,-153.7,536.4,-194.0,-0.42,-14.0,-0.18,0.0,0.8218880702382777,2.1034257771549725,0.14760529507663445,0.28,0,4,0.0
5.467451821000395,242,4999.53,-89.9,-0.5,-117.8,-1.58,1.89,0.91,0.19,-0.81,-0.17,-148.6,485.7,-486.0,-0.55,-12.08,0.27,0.0,0.8491760712596653,2.6261378486286664,0.11791094817414194,0.28,0,4,0.0
5.478516557000148,243,4999.54,-90.1,-0.6,-117.6,-2.24,2.14,0.9,0.2,-0.85,-0.19,-144.4,399.3,-835.0,-0.65,-9.13,0.59,0.0,0.8936442245099556,3.226019218789622,0.07197393902537463,0.28,0,4,0.0
5.487656332999904,244,4999.55,-90.4,-0.7,-117.3,-3.09,2.25,0.65,0.11,-0.98,-0.17,-141.2,279.1,-1105.0,-0.71,-5.72,0.61,0.0,1.00069975517135,3.877254183052744,0.03437995980329922,0.28,0,4,0.0
5.498239339000065,245,4999.56,-90.7,-0.7,-117.1,-3.59,2.13,0.26,-0.01,-1.06,-0.21,-139.2,155.3,-1182.0,-0.75,-2.42,0.41,0.0,1.0806479537758817,4.182415569978669,0.11204159523967439,0.28,0,4,0.0
5.507413864999762,246,4999.57,-91.1,-0.7,-116.9,-3.44,1.87,-0.02,-0.1,-1.09,-0.22,-138.5,40.2,-1116.0,-0.75,0.35,0.24,0.0,1.1164676439557037,3.915469320528511,0.14490405971110643,0.28,0,4,0.0
5.518431655999848,247,4999.58,-91.4,-0.7,-116.8,-2.69,1.28,0.02,-0.14,-1.05,-0.19,-138.7,-36.5,-748.0,-0.74,1.64,0.07,0.0,1.0761970079869205,2.979077038278802,0.10254075526747675,0.28,0,4,0.0
5.527537586000108,248,4999.59,-91.6,-0.8,-116.7,-1.69,0.72,0.38,-0.07,-1.07,-0.21,-139.4,-82.1,-596.0,-0.71,3.16,0.25,0.0,1.0926573113286708,1.8758731300383829,0.11662103743704255,0.28,0,4,0.0
5.538295694999761,249,4999.6,-91.7,-0.8,-116.6,-0.78,0.61,0.69,0.06,-1.11,-0.29,-140.6,-152.0,-711.0,-0.67,5.3,0.18,0.0,1.148825487182453,1.206896847290604,0.16933342902500825,0.28,0,4,0.0
5.547630367000238,250,4999.61,-91.8,-0.9,-116.5,-1.21,0.93,0.55,-0.06,-1.31,-0.3,-142.7,-223.6,-654.0,-0.6,6.87,-0.07,0.0,1.345250905965129,1.6221898779119541,0.3584436708515305,0.28,1,5,3.0
5.558288684999752,251,4999.62,-92.0,-0.9,-116.4,-2.15,1.22,-0.25,-0.17,-1.42,-0.22,-145.3,-269.8,-475.0,-0.53,7.83,0.03,0.0,1.4469623353771168,2.4846327696462507,0.45095199825824794,0.28,0,5,3.0
5.5676621650000016,252,4999.63,-92.2,-0.8,-116.3,-2.39,1.14,-1.04,-0.1,-1.37,-0.1,-148.1,-284.0,39.0,-0.45,6.33,2.79,3.49,1.3772799279739758,2.8448725806264155,0.37364419903800483,0.28,0,5,3.0
5.578441139999995,253,4999.64,-92.5,-0.7,-116.2,-2.21,0.58,-1.47,0.04,-1.26,-0.06,-150.3,-171.3,866.0,-0.42,2.77,2.98,3.49,1.2620618051426802,2.7168732027829345,0.25325755468257505,0.28,0,5,3.0
5.587596094999753,254,4999.65,-92.7,-0.5,-116.2,-2.69,0.58,-1.78,0.18,-1.29,-0.19,-151.1,-52.5,991.0,-0.41,0.04,3.18,3.49,1.316282644419503,3.2773312313527296,0.30132882608021005,0.28,0,5,3.0
5.598330339000313,255,4999.66,-93.0,-0.3,-116.1,-3.28,1.05,-2.41,0.15,-1.45,-0.26,-151.1,18.7,629.0,-0.42,-0.82,3.54,3.49,1.4807430567117308,4.203450963196787,0.45647345360498903,0.28,0,5,3.0
5.611544761999539,256,4999.67,-93.4,0.0,-116.0,-3.69,1.72,-3.4,0.0,-1.64,-0.07,-150.8,26.2,166.0,-0.42,-0.42,3.63,3.49,1.6414932226482082,5.304196451867144,0.6048791471506372,0.28,0,5,3.0
5.619609675999527,257,4999.68,-93.7,0.3,-115.8,-3.32,1.73,-4.4,-0.09,-1.82,0.11,-150.7,2.9,-99.0,-0.42,0.13,3.4,3.49,1.8255410156991818,5.777135968626669,0.7731484013975787,0.28,0,5,3.0
5.627442375000101,258,4999.69,-94.0,0.8,-115.7,-1.62,1.19,-4.94,-0.11,-1.73,0.25,-150.7,-0.1,-4.0,-0.42,0.0,3.48,3.49,1.7514279888136994,5.333301041568909,0.6850546670218545,0.28,0,5,3.0
5.638499575999958,259,4999.7,-94.0,1.3,-115.6,0.5,0.86,-4.1,0.01,-1.39,0.19,-150.7,-2.6,-34.0,-0.42,0.12,3.52,3.49,1.4029611541307905,4.218957217133163,0.3298560756921667,0.28,0,5,3.0
5.647579086000405,260,4999.71,-93.9,1.6,-115.6,1.81,1.23,-2.28,0.2,-1.01,0.05,-150.8,-6.5,-38.0,-0.42,0.28,3.49,3.49,1.030824912388132,3.160284797292801,0.041434562729482094,0.28,0,5,3.0
5.65866503199959,261,4999.72,-93.7,1.7,-115.4,2.02,2.24,-0.87,0.36,-0.87,-0.01,-150.9,-16.4,-110.0,-0.41,0.72,3.46,3.49,0.9415943925066674,3.139251503145296,0.1280517809587276,0.28,0,5,3.0
5.667521245999524,262,4999.73,-93.5,1.8,-115.1,1.29,3.63,-0.18,0.36,-0.89,-0.03,-151.2,-39.4,-231.0,-0.4,1.57,3.52,3.49,0.9605206921248495,3.856604724365721,0.10694297171373468,0.28,0,5,3.0
5.6783247169996685,263,4999.74,-93.4,1.8,-114.7,0.82,4.77,-0.1,0.26,-0.92,0.05,-151.8,-71.8,-252.0,-0.38,2.2,3.65,3.49,0.9573400649716902,4.841001962404064,0.10792112688955602,0.28,0,5,3.0
5.6875304289997075,264,4999.75,-93.3,1.9,-114.2,1.13,5.5,-0.09,0.18,-0.91,0.18,-152.6,-80.9,-119.0,-0.36,2.33,3.39,3.49,0.9449338601193208,5.6156032623396746,0.11792078510708703,0.28,0,5,3.0
5.698192281000047,265,4999.76,-93.1,1.9,-113.6,1.43,5.67,-0.02,0.14,-0.91,0.23,-153.5,-85.7,-34.0,-0.33,2.23,3.49,3.49,0.9489994731294639,5.847580696322197,0.11157806865500508,0.28,0,5,3.0
5.707647903000179,266,4999.77,-93.0,1.9,-113.0,1.41,5.7,-0.07,0.07,-0.96,0.2,-154.3,-85.8,-38.0,-0.31,2.36,3.35,3.49,0.9831073186585481,5.872222747818751,0.0759208186634025,0.28,0,5,3.0
5.718286848999924,267,4999.78,-92.8,2.0,-112.5,1.47,5.48,-0.33,-0.01,-0.98,0.22,-155.2,-81.1,36.0,-0.29,2.16,3.47,3.49,1.0044401425669924,5.683326490709469,0.05349623485985888,0.28,0,5,3.0
5.727707721000115,268,4999.79,-92.6,2.1,-111.9,1.59,5.21,-0.43,-0.08,-0.95,0.18,-156.0,-78.9,50.0,-0.27,1.94,3.46,3.49,0.9702061636580134,5.464165078033422,0.08597560949346128,0.28,0,5,0.0
5.738333201000387,269,4999.8,-92.4,2.1,-111.4,1.43,4.92,-0.25,-0.14,-0.93,0.14,-156.7,-67.7,58.0,-0.25,1.83,3.37,3.49,0.9508417323613851,5.12969784685219,0.10323323997428768,0.28,0,5,0.0
5.747707331999663,270,4999.81,-92.3,2.1,-111.0,1.37,4.69,0.04,-0.15,-0.92,0.11,-157.4,-80.2,-320.0,-0.22,3.81,0.63,0.0,0.9386160024205852,4.886164139690766,0.11314979051678598,0.28,0,5,0.0
5.758429026000158,271,4999.82,-92.1,2.1,-110.5,1.39,4.55,0.28,-0.21,-0.92,0.13,-159.0,-205.2,-1002.0,-0.16,7.42,0.44,0.0,0.9525754563287887,4.765815774870027,0.09720652987641087,0.28,0,5,0.0
5.767695614999866,272,4999.83,-92.0,2.1,-110.1,1.23,3.87,0.47,-0.24,-0.83,0.21,-161.8,-313.0,-935.0,-0.07,9.65,0.4,0.0,0.8891569040388766,4.087872307203345,0.15741258052299656,0.28,0,5,0.0
5.778484810999544,273,4999.84,-91.9,2.1,-109.7,0.75,3.11,0.75,-0.15,-0.76,0.15,-165.5,-377.1,-649.0,0.03,10.85,0.25,0.0,0.7890500617831545,3.285894094458919,0.2523690343231443,0.28,0,5,0.0
5.7876123980004195,274,4999.85,-91.8,2.0,-109.4,-0.32,2.44,1.0,-0.1,-0.74,0.09,-169.5,-415.3,-450.0,0.14,11.74,-0.15,0.0,0.7521303078589507,2.6563132345414386,0.2835030124824012,0.28,0,5,0.0
5.79844880499968,275,4999.86,-91.9,1.9,-109.2,-1.6,2.04,1.22,-0.06,-0.8,0.04,-173.8,-434.6,-203.0,0.26,11.81,0.03,0.0,0.8032434251209282,2.8653097563788807,0.22774209731601536,0.28,0,5,0.0
5.80761571200037,276,4999.87,-92.1,1.7,-109.0,-2.25,1.78,1.31,-0.03,-0.91,0.01,-178.2,-433.5,-54.0,0.38,11.71,-0.08,0.0,0.9105492847726586,3.153886491299267,0.11802751291099911,0.28,0,5,0.0
5.818442185999629,277,4999.88,-92.3,1.6,-108.8,-2.14,1.66,1.31,0.0,-0.99,-0.01,-182.4,-422.5,106.0,0.49,11.1,-0.19,0.0,0.9900505037623081,3.008537850850476,0.03775576804292269,0.28,0,5,0.0
5.8276125060001505,278,4999.89,-92.5,1.5,-108.7,-1.6,1.56,1.3,0.02,-1.01,-0.03,-186.5,-395.0,225.0,0.6,10.3,0.09,0.0,1.010643359449811,2.5852659437667147,0.016819654108311433,0.28,0,5,0.0
5.838507485000264,279,4999.9,-92.6,1.3,-108.5,-1.05,1.59,1.26,0.03,-1.0,-0.06,-190.2,-364.9,283.0,0.7,9.43,-0.09,0.0,1.0022474744293446,2.284337978496177,0.02471122834620232,0.28,0,5,0.0
5.847583009000118,280,4999.91,-92.7,1.2,-108.4,-0.72,1.62,1.17,0.03,-0.95,-0.07,-193.6,-332.1,317.0,0.78,8.52,-0.14,0.0,0.9530477427705287,2.1240762698170705,0.0724327408049178,0.28,0,5,0.0
5.858464087000357,281,4999.92,-92.8,1.1,-108.2,-0.63,1.68,1.09,0.01,-0.92,-0.08,-196.7,-298.3,334.0,0.86,7.56,-0.14,0.0,0.9235258523723091,2.0993808611111993,0.09991553857907465,0.28,0,5,0.0
5.867598220000218,282,4999.93,-92.9,1.0,-108.0,-0.63,1.74,1.01,0.0,-0.89,-0.07,-199.5,-260.3,381.0,0.93,6.44,-0.14,0.0,0.8927485648266258,2.108221999695478,0.12807896960226284,0.28,0,5,0.0
5.8783239889999095,283,4999.94,-93.0,0.9,-107.8,-0.43,1.81,0.8,-0.02,-0.9,-0.07,-201.8,-216.3,430.0,0.99,5.18,-0.18,0.0,0.9029396436085858,2.0250925904758033,0.1155301330038968,0.28,0,5,0.0
5.887602957999661,284,4999.95,-93.0,0.8,-107.6,-0.26,1.72,0.86,-0.05,-0.85,-0.07,-203.6,-171.4,434.0,1.03,4.03,-0.09,0.0,0.8543418519538885,1.9405153954555474,0.16084536616542222,0.28,0,5,0.0
5.89850141199986,285,4999.96,-93.0,0.7,-107.5,-0.14,1.57,1.04,-0.08,-0.85,-0.05,-205.0,-129.5,418.0,1.06,2.92,-0.17,0.0,0.8552192701290119,1.8884120313109638,0.15676858903049273,0.28,0,5,0.0
5.907651170999998,286,4999.97,-93.0,0.5,-107.3,0.0,1.39,1.23,-0.09,-0.85,-0.07,-206.0,-89.6,408.0,1.08,1.81,-0.06,0.0,0.8576129663198895,1.8560711193270585,0.15128739498282284,0.28,0,5,0.0
5.918373540000175,287,4999.98,-93.0,0.4,-107.2,0.18,1.26,1.28,-0.11,-0.9,-0.08,-206.7,-49.6,400.0,1.1,0.76,0.06,0.0,0.9102197536858888,1.8051038751274122,0.09670699546448713,0.28,0,5,0.0
5.927671227000246,288,4999.99,-93.0,0.3,-107.1,0.55,1.23,1.16,-0.11,-0.93,-0.12,-206.9,-12.9,356.0,1.1,-0.1,0.05,0.0,0.9441398201537736,1.7779201331893397,0.06153119041667021,0.28,0,5,0.0
5.938487305999843,289,5000.0,-92.9,0.2,-106.9,1.07,1.16,0.97,-0.12,-0.94,-0.12,-206.8,10.8,225.0,1.09,-0.43,0.06,0.0,0.9551963149007642,1.8524038436582881,0.049465201756286103,0.28,0,5,0.0
5.947621762000381,290,5000.01,-92.8,0.1,-106.8,1.67,1.03,0.74,-0.13,-0.92,-0.12,-206.7,19.0,150.0,1.09,-0.61,-0.32,0.0,0.9368564457802486,2.096997854076155,0.0664489694592656,0.28,0,5,0.0
5.958527396999671,291,5000.02,-92.6,0.0,-106.7,2.27,0.79,0.48,-0.14,-0.9,-0.12,-206.4,24.7,73.0,1.08,-0.7,-0.15,0.0,0.9186947262284682,2.4509997960016237,0.08291847523082518,0.28,0,5,0.0
5.9677663880002,292,5000.03,-92.3,0.0,-106.7,2.88,0.48,0.18,-0.16,-0.84,-0.11,-206.2,26.3,24.0,1.07,-0.69,-0.02,0.0,0.8621484790916236,2.9252692183797375,0.13667542792031628,0.28,0,5,0.0
5.97846218199993,293,5000.04,-92.0,0.0,-106.6,2.91,0.06,0.01,-0.17,-0.79,-0.09,-205.9,23.5,-9.0,1.07,-0.61,0.0,0.0,0.8130805618141416,2.91063566940282,0.1820284782938424,0.28,0,5,0.0
5.987705002999974,294,5000.05,-91.7,0.0,-106.6,2.33,-0.33,-0.12,-0.16,-0.75,-0.11,-205.7,16.6,-73.0,1.06,-0.29,0.15,0.0,0.7747257579298625,2.3563106756113466,0.215975616534559,0.28,0,5,0.0
5.998509105999801,295,5000.06,-91.6,0.0,-106.7,1.43,-0.65,-0.26,-0.14,-0.73,-0.13,-205.6,3.0,-118.0,1.06,0.09,-0.03,0.0,0.7545859791965392,1.5921683328090657,0.23139308736252462,0.28,0,5,0.0
6.007602032999785,296,5000.07,-91.5,0.1,-106.8,0.35,-0.87,-0.38,-0.12,-0.75,-0.15,-205.7,-6.3,-75.0,1.06,0.22,0.21,0.0,0.7742092740338363,1.011830025251277,0.20753439667472295,0.28,0,5,0.0
6.0183819140002015,297,5000.08,-91.5,0.1,-106.9,-0.43,-0.92,-0.49,-0.1,-0.83,-0.16,-205.8,-9.2,-44.0,1.07,0.28,0.08,0.0,0.8511756575466664,1.127563745426395,0.1279566528986551,0.28,0,5,0.0
6.027626676000182,298,5000.09,-91.5,0.2,-107.0,-0.76,-0.9,-0.66,-0.07,-0.9,-0.16,-205.9,-10.5,-17.0,1.07,0.29,-0.08,0.0,0.9167878707749137,1.35025923436946,0.06109755087699953,0.28,0,5,0.0
6.038392170999941,299,5000.1,-91.6,0.2,-107.1,-0.76,-0.85,-0.81,-0.04,-0.94,-0.16,-206.0,-15.1,-56.0,1.07,0.51,0.01,0.0,0.9543584232352119,1.3986421987055875,0.023056458448367345,0.28,0,5,0.0
6.047650403999796,300,5000.11,-91.7,0.3,-107.1,-0.58,-0.76,-0.83,-0.03,-0.94,-0.16,-206.2,-27.1,-105.0,1.08,0.9,0.05,0.0,0.9539916142189091,1.2660568707605515,0.022954802115376705,0.28,0,5,0.0
6.058634971000174,301,5000.12,-91.8,0.4,-107.2,-0.62,-0.54,-0.65,-0.02,-0.94,-0.18,-206.6,-41.7,-139.0,1.09,1.34,0.3,0.0,0.9572878355019455,1.0480935072788116,0.01926540921569353,0.28,0,5,0.0
6.067589487999612,302,5000.13,-91.8,0.4,-107.2,-0.76,-0.24,-0.31,0.0,-0.96,-0.19,-207.1,-59.6,-162.0,1.11,1.8,0.0,0.0,0.9786214794290998,0.8551608035919326,0.0020268700172315635,0.28,0,5,0.0
6.0783994280000115,303,5000.14,-91.9,0.5,-107.3,-0.51,-0.13,-0.05,0.02,-1.02,-0.22,-207.9,-80.3,-196.0,1.13,2.43,0.24,0.0,1.04364745005198,0.5286775955154521,0.06571178382730936,0.28,0,5,0.0
6.087655811999866,304,5000.15,-91.9,0.4,-107.3,0.03,-0.09,0.16,0.05,-1.04,-0.23,-208.8,-100.0,-187.0,1.16,2.9,0.0,0.0,1.066302021005306,0.18601075237738274,0.08659902768502281,0.28,0,5,0.0
6.098491814999761,305,5000.16,-91.9,0.4,-107.3,0.48,0.05,0.36,0.06,-1.09,-0.22,-210.0,-119.1,-193.0,1.2,3.5,0.34,0.0,1.113597772986279,0.6020797289396148,0.13121688407267584,0.28,0,5,0.0
6.10764294099954,306,5000.17,-91.9,0.4,-107.3,0.52,0.01,0.52,0.03,-1.15,-0.1,-211.3,-140.1,-210.0,1.23,4.07,0.14,0.0,1.154729405531876,0.7354590403278758,0.16890154628590748,0.28,0,5,0.0
6.118440027000361,307,5000.18,-91.8,0.3,-107.3,0.11,-0.22,0.74,0.02,-1.21,-0.05,-212.8,-162.0,-215.0,1.28,4.69,0.0,0.0,1.211197754291181,0.7798076685952761,0.22086249714430817,0.28,0,5,0.0
6.1277552439996725,308,5000.19,-91.8,0.3,-107.3,-0.08,-0.25,1.21,0.1,-1.25,-0.04,-214.7,-185.2,-233.0,1.33,5.34,0.24,0.0,1.2546314199795892,1.2381437719424995,0.25901023957606206,0.28,0,5,0.0
6.138560272999712,309,5000.2,-91.9,0.2,-107.3,-0.29,-0.08,1.59,0.14,-1.34,0.0,-216.7,-210.3,-241.0,1.39,6.01,0.07,0.0,1.3472935834479434,1.6182088863926067,0.34463895498352803,0.28,1,6,3.0
6.147603305999837,310,5000.21,-91.8,0.0,-107.3,-0.35,-0.36,1.65,0.07,-1.39,0.05,-218.9,-233.3,-232.0,1.45,6.61,0.0,0.0,1.3926593266122191,1.724702872961021,0.3822046041848477,0.28,0,6,3.0
6.158544150000125,311,5000.22,-91.9,0.0,-107.4,-0.81,-0.54,1.73,0.02,-1.38,0.04,-221.4,-241.7,116.0,1.52,5.6,3.16,3.49,1.3807244475274565,1.9850944561909392,0.36286433059808343,0.28,0,6,3.0
6.167611947999831,312,5000.23,-91.9,-0.2,-107.4,-1.31,-0.52,2.06,0.06,-1.4,0.08,-223.1,-128.1,929.0,1.55,1.85,3.02,3.49,1.40356688476182,2.4960168268663576,0.37799263247579784,0.28,0,6,3.0
6.1783600819999265,313,5000.24,-92.1,-0.4,-107.4,-0.88,-0.34,2.44,0.12,-1.52,0.16,-223.6,-21.6,831.0,1.55,-0.12,3.63,3.49,1.533101431738944,2.616027522790997,0.4973766358638634,0.28,0,6,3.0
6.18766523999966,314,5000.25,-92.0,-0.7,-107.5,1.37,-0.3,2.57,0.05,-1.56,0.19,-223.5,9.3,332.0,1.55,-0.19,3.4,3.49,1.572323122007687,2.9277636516631595,0.5258663596099542,0.28,0,6,3.0
6.198446788000183,315,5000.26,-91.8,-0.9,-107.5,3.29,-0.46,2.39,-0.09,-1.42,0.21,-223.5,1.3,60.0,1.55,0.04,3.38,3.49,1.4382628410690446,4.092407604332687,0.3839699570978856,0.28,0,6,3.0
6.207738154999788,316,5000.27,-91.4,-1.1,-107.6,3.5,-0.9,1.88,-0.26,-1.23,0.31,-223.5,-2.7,-5.0,1.55,0.14,3.57,3.49,1.2948358969382954,4.073622466552344,0.2357321527077938,0.28,0,6,3.0
6.218514082999718,317,5000.28,-91.1,-1.3,-107.7,2.76,-2.09,1.38,-0.37,-1.07,0.39,-223.6,-12.6,-104.0,1.55,0.6,3.77,3.49,1.1974556359214314,3.7269424465639385,0.13558485385711116,0.28,0,6,3.0
6.227700426999945,318,5000.29,-90.9,-1.4,-108.0,2.05,-3.37,1.04,-0.39,-1.0,0.35,-223.9,-37.4,-212.0,1.56,1.34,3.39,3.49,1.1289818421923357,4.079338181617209,0.06576883892545515,0.28,0,6,3.0
6.238469164999515,319,5000.3,-90.7,-1.5,-108.4,1.75,-4.21,0.93,-0.35,-0.95,0.29,-224.4,-55.3,-136.0,1.58,1.54,3.56,3.49,1.053138167573467,4.65311723471481,0.009873338979545121,0.28,0,6,3.0
6.247630312999718,320,5000.31,-90.5,-1.6,-108.8,1.65,-4.73,0.99,-0.24,-0.97,0.26,-225.0,-63.7,-135.0,1.6,1.96,3.71,3.49,1.0325211862233143,5.106417530911471,0.029880513923103758,0.28,0,6,3.0
6.258556249000321,321,5000.32,-90.3,-1.7,-109.3,1.68,-5.19,0.99,-0.14,-1.02,0.25,-225.7,-74.3,-48.0,1.62,1.9,3.56,3.49,1.0594810050208545,5.54424025453443,0.002862281223052321,0.28,0,6,3.0
6.271597263000331,322,5000.33,-90.1,-1.8,-109.9,1.84,-5.43,0.91,-0.09,-1.04,0.21,-226.4,-61.3,85.0,1.63,1.46,3.33,3.49,1.0648004507887852,5.805049526059187,0.0024080212539807633,0.28,0,6,3.0
6.27965999800017,323,5000.34,-89.9,-1.9,-110.4,1.69,-5.38,0.63,-0.06,-1.07,0.14,-226.8,-33.6,276.0,1.64,0.38,3.41,3.49,1.0807867504739315,5.674275284122194,0.01802643452034447,0.28,0,6,3.0
6.287638929999957,324,5000.35,-89.7,-1.9,-110.9,1.48,-5.13,0.12,0.0,-1.05,0.11,-226.9,2.6,231.0,1.64,-0.13,3.5,3.49,1.0557461816175326,5.340571130506549,0.006873851649333185,0.28,0,6,3.0
6.298403263000182,325,5000.36,-89.5,-1.9,-111.4,1.02,-4.78,-0.41,0.0,-1.05,0.08,-226.8,5.9,108.0,1.64,-0.25,3.54,3.49,1.0530432089900206,4.904783379518407,0.009385287791308317,0.28,0,6,3.0
6.307696505000422,326,5000.37,-89.4,-1.8,-111.9,0.48,-4.48,-0.94,0.0,-0.95,0.05,-226.7,18.3,143.0,1.63,-0.71,3.24,3.49,0.9513148795220223,4.602651409785452,0.10889134491412045,0.28,0,6,3.0
6.318541302000085,327,5000.38,-89.3,-1.7,-112.3,-0.3,-4.21,-1.26,0.0,-0.89,0.07,-226.4,35.4,164.0,1.62,-1.19,3.23,3.49,0.8927485648266258,4.404736087440427,0.16410850641732666,0.28,0,6,3.0
6.327610987999833,328,5000.39,-89.3,-1.5,-112.7,-0.73,-4.19,-1.52,0.01,-0.87,0.1,-225.9,63.0,313.0,1.6,-2.28,3.34,3.49,0.8757853618324527,4.516569494649674,0.17745027522326984,0.28,0,6,0.0
6.338373771999613,329,5000.4,-89.4,-1.3,-113.2,-0.77,-4.26,-1.71,0.02,-0.85,0.09,-224.9,112.4,426.0,1.57,-3.63,3.3,3.49,0.8549853799919621,4.654524680351368,0.19428525192248525,0.28,0,6,0.0
6.3476819839997916,330,5000.41,-89.4,-1.1,-113.6,-0.76,-4.19,-1.78,0.04,-0.8,0.06,-223.5,138.7,-13.0,1.53,-2.83,0.5,0.0,0.8032434251209282,4.615419807558139,0.2411066626576488,0.28,0,6,0.0
6.358386334999523,331,5000.42,-89.5,-0.9,-114.0,-1.21,-4.02,-1.87,0.0,-0.85,0.04,-222.7,54.6,-543.0,1.52,-0.64,0.2,0.0,0.8509406559801923,4.595802432655259,0.18954124316241694,0.28,0,6,0.0
6.367645970000012,332,5000.43,-89.6,-0.7,-114.4,-1.47,-4.09,-2.09,-0.06,-0.83,0.05,-222.5,3.6,-400.0,1.52,0.16,-0.12,0.0,0.8336666000266533,4.822561560001074,0.2026789931336368,0.28,0,6,0.0
6.378549916000338,333,5000.44,-89.7,-0.6,-114.8,-1.45,-4.09,-2.17,-0.02,-0.79,0.01,-222.6,-4.1,-113.0,1.52,0.0,0.01,0.0,0.7903163923391695,4.851752260781665,0.2411086168046982,0.28,0,6,0.0
6.38767462099986,334,5000.45,-89.9,-0.3,-115.2,-1.16,-4.19,-2.01,0.03,-0.76,0.0,-222.5,8.6,58.0,1.52,-0.42,-0.12,0.0,0.7605918747922568,4.789759910475681,0.2654164716645787,0.28,0,6,0.0
6.398477834000005,335,5000.46,-90.0,-0.1,-115.6,-0.88,-4.16,-1.77,0.09,-0.75,-0.04,-222.3,26.1,142.0,1.51,-0.94,0.01,0.0,0.7564390259630978,4.605746410735181,0.26417793408386303,0.28,0,6,0.0
6.407688784999664,336,5000.47,-90.0,0.0,-116.1,-0.73,-3.97,-1.53,0.14,-0.76,-0.08,-221.9,47.2,199.0,1.5,-1.57,-0.04,0.0,0.7769169839822012,4.316792790950244,0.23882597654346438,0.28,0,6,0.0
6.418528610000067,337,5000.48,-90.1,0.1,-116.4,-0.79,-3.59,-1.29,0.17,-0.78,-0.12,-221.3,71.3,221.0,1.48,-2.22,-0.17,0.0,0.8072793816269558,3.8956770913411187,0.2042943073207356,0.28,0,6,0.0
6.427581136999834,338,5000.49,-90.2,0.2,-116.8,-0.87,-3.14,-1.11,0.2,-0.82,-0.12,-220.4,94.9,242.0,1.45,-2.89,-0.03,0.0,0.8525256594378845,3.442179542092481,0.15586706891961066,0.28,0,6,0.0
6.43839140900036,339,5000.5,-90.3,0.3,-117.1,-0.75,-2.67,-0.95,0.21,-0.84,-0.12,-219.3,122.2,263.0,1.42,-3.65,0.16,0.0,0.8741281370600079,2.931535433863967,0.13157929947153757,0.28,0,6,0.0
6.447570561000248,340,5000.51,-90.3,0.4,-117.3,-0.44,-2.15,-0.81,0.22,-0.86,-0.12,-217.9,147.4,246.0,1.38,-4.29,0.06,0.0,0.8957678270623476,2.3392733914615453,0.10774081727981388,0.28,0,6,0.0
6.458418872000038,341,5000.52,-90.4,0.5,-117.5,-0.31,-1.69,-0.66,0.21,-0.84,-0.12,-216.2,172.7,252.0,1.33,-4.99,-0.13,0.0,0.8741281370600079,1.8405977290000115,0.12679289713651054,0.28,0,6,0.0
6.467606848000287,342,5000.53,-90.4,0.5,-117.6,-0.39,-1.24,-0.48,0.19,-0.83,-0.14,-214.3,196.8,241.0,1.27,-5.64,-0.19,0.0,0.862902080192185,1.3856767299770896,0.13525857492424687,0.28,0,6,0.0
6.478431307000392,343,5000.54,-90.5,0.6,-117.7,-0.56,-0.82,-0.32,0.18,-0.84,-0.15,-212.2,220.0,235.0,1.21,-6.27,-0.05,0.0,0.8720665112249179,1.0432641084595982,0.12357226101368368,0.28,0,6,0.0
6.487633955999627,344,5000.55,-90.5,0.6,-117.8,-0.73,-0.47,-0.19,0.18,-0.86,-0.15,-209.8,244.7,249.0,1.15,-6.98,-0.08,0.0,0.8913472948295742,0.8887631855561975,0.10220564786084674,0.28,0,6,0.0
6.4983266910003294,345,5000.56,-90.6,0.6,-117.8,-0.83,-0.27,-0.05,0.16,-0.87,-0.15,-207.2,269.0,231.0,1.07,-7.56,-0.16,0.0,0.897217922246318,0.874242529278918,0.09440832003522082,0.28,0,6,0.0
6.507678580999709,346,5000.57,-90.7,0.6,-117.8,-0.77,-0.12,0.15,0.14,-0.89,-0.15,-204.4,288.5,207.0,0.99,-8.09,-0.06,0.0,0.9133454987024351,0.7935993951610598,0.07671512870752173,0.28,0,6,0.0
6.518384908000371,347,5000.58,-90.8,0.6,-117.9,-0.45,-0.04,0.32,0.13,-0.91,-0.15,-201.7,309.9,252.0,0.91,-8.8,0.02,0.0,0.931396800509858,0.5536244214266564,0.05749055036209694,0.28,0,6,0.0
6.527723365999918,348,5000.59,-90.8,0.5,-117.9,-0.13,0.03,0.55,0.12,-0.9,-0.17,-198.3,339.2,261.0,0.82,-9.51,-0.1,0.0,0.9237423883312923,0.5659505278732408,0.06384206328984932,0.28,0,6,0.0
6.538506191999659,349,5000.6,-90.8,0.5,-117.8,0.02,0.14,0.81,0.1,-0.87,-0.19,-194.8,360.6,222.0,0.72,-10.05,-0.16,0.0,0.8961026726887941,0.8222530024268687,0.08965214335370064,0.28,0,6,0.0
6.547629251000217,350,5000.61,-90.8,0.4,-117.8,0.07,0.32,1.0,0.08,-0.87,-0.2,-191.1,382.0,222.0,0.62,-10.65,-0.15,0.0,0.8962700485902673,1.0522832318344715,0.08769507210318295,0.28,0,6,0.0
6.558488865999607,351,5000.62,-90.8,0.3,-117.8,0.17,0.54,1.23,0.05,-0.86,-0.24,-187.1,405.5,234.0,0.51,-11.32,-0.27,0.0,0.8942594701763017,1.3540310188470572,0.08791153750680558,0.28,0,6,0.0
6.567713536000156,352,5000.63,-90.8,0.1,-117.7,0.27,0.77,1.57,0.05,-0.86,-0.24,-182.8,434.7,299.0,0.39,-12.25,-0.1,0.0,0.8942594701763017,1.769378421932403,0.08615330675666943,0.28,0,6,0.0
6.578526817000238,353,5000.64,-90.7,0.0,-117.6,0.4,0.91,1.73,0.06,-0.89,-0.19,-178.3,461.9,235.0,0.26,-12.76,-0.25,0.0,0.9120307012376283,1.9952443459386122,0.06701443418143593,0.28,0,6,0.0
6.587640462999843,354,5000.65,-90.7,-0.1,-117.5,0.31,1.02,1.76,0.06,-0.89,-0.18,-173.5,482.6,250.0,0.13,-13.48,-0.06,0.0,0.91,2.057692882818036,0.06766423271068289,0.28,0,6,0.0
6.598473570000351,355,5000.66,-90.7,-0.3,-117.4,0.04,1.13,1.72,0.08,-0.87,-0.18,-168.5,503.5,167.0,0.0,-13.77,-0.16,0.0,0.8920201791439474,2.0583731440144666,0.08393117249540083,0.28,0,6,0.0
6.607577087000209,356,5000.67,-90.7,-0.5,-117.3,-0.15,1.24,1.68,0.09,-0.85,-0.19,-163.4,520.7,220.0,-0.14,-14.48,-0.07,0.0,0.8756140702387096,2.093442141545832,0.09833053577262585,0.28,0,6,0.0
6.618402680999679,357,5000.68,-90.7,-0.6,-117.1,-0.44,1.41,1.65,0.09,-0.85,-0.2,-158.1,535.8,111.0,-0.29,-14.58,0.06,0.0,0.8778382538941898,2.214542842213715,0.09418422507480273,0.28,0,6,0.0
6.627640052000061,358,5000.69,-90.8,-0.8,-117.0,-0.86,1.56,1.53,0.11,-0.86,-0.2,-152.7,536.6,33.0,-0.43,-14.54,0.1,0.0,0.8897752525216691,2.348212085821892,0.08060228191837693,0.28,0,6,0.0
6.638590264999948,359,5000.7,-90.9,-0.9,-116.8,-1.22,1.62,1.32,0.16,-0.86,-0.18,-147.4,516.9,-246.0,-0.57,-13.37,0.37,0.0,0.8930845424706442,2.419752053413738,0.07574713213001383,0.28,0,6,0.0
6.647608418000345,360,5000.71,-91.0,-1.1,-116.7,-1.0,1.7,1.35,0.3,-0.82,-0.21,-142.8,429.8,-866.0,-0.68,-9.98,0.23,0.0,0.8980534505250787,2.390083680543424,0.06936265959406773,0.28,0,6,0.0
6.658511843999804,361,5000.72,-91.1,-1.2,-116.5,-1.54,1.9,1.26,0.2,-0.98,-0.22,-139.5,287.0,-1241.0,-0.76,-6.07,0.8,0.0,1.0241093691593686,2.7512179121254645,0.05555939385941766,0.28,0,6,0.0
6.667668045999562,362,5000.73,-91.3,-1.3,-116.3,-2.54,2.07,0.71,0.0,-1.09,-0.23,-137.5,151.4,-1264.0,-0.79,-2.62,0.33,0.0,1.1140017953306898,3.352700404151853,0.14254278363012407,0.28,0,6,0.0
6.678439346999767,363,5000.74,-91.6,-1.3,-116.1,-2.82,1.84,0.19,-0.12,-1.12,-0.14,-136.9,34.2,-1157.0,-0.8,0.32,0.15,0.0,1.135077089893017,3.3725509632917334,0.1603457166286022,0.28,0,6,0.0
6.687621508999655,364,5000.75,-91.9,-1.3,-115.9,-1.82,0.96,0.02,-0.15,-1.04,-0.14,-137.1,-41.5,-747.0,-0.78,1.65,0.24,0.0,1.0600471687618434,2.0577657787027173,0.0836094795874801,0.28,0,6,0.0
6.698442701999738,365,5000.76,-92.0,-1.3,-115.9,-0.49,0.43,0.44,-0.06,-0.95,-0.29,-137.8,-82.8,-515.0,-0.76,2.71,0.27,0.0,0.9950879358127099,0.7865112840894274,0.01827724170557976,0.28,0,6,0.0
6.70765505899999,366,5000.77,-92.0,-1.4,-115.8,-0.15,0.44,0.84,0.03,-1.0,-0.33,-138.9,-125.4,-501.0,-0.72,4.08,0.14,0.0,1.0534704552098269,0.960052081920559,0.0751265658806427,0.28,0,6,0.0
6.7184013529995354,367,5000.78,-92.0,-1.5,-115.8,-0.58,0.66,0.78,0.11,-1.1,-0.34,-140.6,-183.0,-559.0,-0.67,5.69,0.06,0.0,1.1565898149300815,1.1749042514179613,0.17468100708887946,0.28,0,6,0.0
6.727726406000329,368,5000.79,-92.2,-1.5,-115.7,-1.87,0.92,0.22,-0.04,-1.36,-0.26,-142.8,-237.1,-510.0,-0.61,6.99,0.12,0.0,1.3852075656738236,2.09563832757468,0.3952327826759692,0.28,1,7,3.0
6.738446811999893,369,5000.8,-92.4,-1.5,-115.6,-2.47,0.76,-0.63,-0.09,-1.47,-0.18,-145.4,-276.7,-400.0,-0.53,7.88,0.05,0.0,1.4837115622653885,2.6599624057493747,0.48386204368218333,0.28,0,7,3.0
6.747611054000117,370,5000.81,-92.7,-1.4,-115.6,-1.98,0.26,-1.33,-0.05,-1.44,-0.1,-148.4,-293.2,7.0,-0.45,7.12,2.87,3.49,1.4443337564427412,2.3993540797472974,0.4355945531023453,0.28,0,7,3.0
6.758647910000036,371,5000.82,-92.9,-1.3,-115.6,-1.43,-0.31,-1.68,0.0,-1.33,-0.13,-150.6,-181.9,906.0,-0.41,3.22,3.06,3.49,1.3363382805263044,2.2278689368991165,0.32104709564219025,0.28,0,7,3.0
6.7677097830001,372,5000.83,-93.0,-1.1,-115.6,-1.54,-0.22,-2.01,0.09,-1.35,-0.21,-151.5,-57.3,1004.0,-0.4,0.43,3.27,3.49,1.3691968448692833,2.5416726775885206,0.3468275467854658,0.28,0,7,3.0
6.778376186999594,373,5000.84,-93.2,-0.8,-115.6,-1.65,0.08,-2.64,0.07,-1.42,-0.19,-151.6,13.1,623.0,-0.4,-0.6,3.65,3.49,1.4343639705458304,3.1142414806819336,0.4037547790127727,0.28,0,7,3.0
6.787645505,374,5000.85,-93.4,-0.5,-115.6,-1.83,0.48,-3.38,-0.07,-1.52,-0.07,-151.4,16.2,143.0,-0.4,-0.23,3.44,3.49,1.5232202729743325,3.873460984700891,0.48275885981244926,0.28,0,7,3.0
6.798504159999538,375,5000.86,-93.5,-0.2,-115.6,-1.54,0.2,-4.23,-0.11,-1.63,0.15,-151.3,1.0,-18.0,-0.4,0.03,3.26,3.49,1.640579166026437,4.506051486612199,0.5881153978072629,0.28,0,7,3.0
6.8075811870003236,376,5000.87,-93.7,0.2,-115.6,-0.74,-0.43,-4.84,-0.07,-1.59,0.17,-151.3,0.0,2.0,-0.4,0.0,3.72,3.49,1.600593639872407,4.9150890124187985,0.5371672742201681,0.28,0,7,3.0
6.8184075250001115,377,5000.88,-93.7,0.7,-115.7,-0.06,-0.94,-4.67,0.0,-1.37,0.18,-151.3,-2.3,-29.0,-0.4,0.12,3.44,3.49,1.3817742217887843,4.764042401154716,0.31198089901381443,0.28,0,7,3.0
6.831677762999789,378,5000.89,-93.7,1.1,-115.9,0.71,-0.92,-3.74,0.17,-1.09,0.07,-151.4,-9.8,-75.0,-0.4,0.41,3.42,3.49,1.1053958566956907,3.91638864261452,0.03489048324230648,0.28,0,7,3.0
6.839491261000148,379,5000.9,-93.6,1.4,-115.9,0.88,-0.26,-2.31,0.36,-0.91,-0.02,-151.6,-25.9,-153.0,-0.39,0.94,3.4,3.49,0.9788258272031853,2.4855784035109414,0.0898459553251949,0.28,0,7,3.0
6.847578101999716,380,5000.91,-93.5,1.5,-115.9,0.61,0.93,-0.94,0.44,-0.86,-0.07,-152.0,-41.8,-123.0,-0.38,1.22,3.54,3.49,0.9685556256612213,1.4562280041257276,0.09811383372981575,0.28,0,7,3.0
6.8582085500001995,381,5000.92,-93.4,1.6,-115.8,0.67,1.94,-0.21,0.45,-0.94,-0.06,-152.5,-48.8,-100.0,-0.37,1.48,3.51,3.49,1.0438869670610895,2.063152926954277,0.022326842483348708,0.28,0,7,3.0
6.866951517999951,382,5000.93,-93.4,1.6,-115.5,0.83,3.23,0.22,0.34,-0.95,0.01,-153.1,-64.7,-134.0,-0.35,1.89,3.45,3.49,1.009058967553433,3.3421849140943714,0.05601174515118523,0.28,0,7,3.0
6.87845835600001,383,5000.94,-93.2,1.6,-115.1,1.29,4.19,0.51,0.2,-0.96,0.11,-153.7,-66.4,-33.0,-0.33,1.82,3.72,3.49,0.9867623827447011,4.413649283756017,0.07674216336071871,0.28,0,7,3.0
6.88767140300024,384,5000.95,-93.1,1.6,-114.7,1.85,4.79,0.69,0.13,-1.0,0.18,-154.4,-72.8,-59.0,-0.31,2.02,3.45,3.49,1.02435345462394,5.1809941131022335,0.038368069651850245,0.28,0,7,3.0
6.898642490999919,385,5000.96,-92.8,1.5,-114.2,2.16,5.1,0.6,0.04,-1.0,0.21,-155.1,-67.5,29.0,-0.29,1.79,3.23,3.49,1.0225947388873073,5.570960419891708,0.03932424968071313,0.28,0,7,3.0
6.907673908999641,386,5000.97,-92.6,1.5,-113.7,2.14,5.23,0.38,-0.01,-0.96,0.2,-155.7,-67.8,9.0,-0.27,1.74,3.41,3.49,0.9806630410084801,5.663647234777251,0.07963082860834947,0.28,0,7,3.0
6.918403390999629,387,5000.98,-92.4,1.5,-113.1,2.16,5.14,0.16,-0.07,-0.92,0.19,-156.4,-53.1,111.0,-0.26,1.28,3.35,3.49,0.942019108086455,5.577705621489897,0.11590926629976706,0.28,0,7,0.0
6.927727555000274,388,5000.99,-92.2,1.5,-112.6,2.05,5.01,0.1,-0.07,-0.87,0.14,-156.9,-49.5,23.0,-0.25,1.38,3.32,3.49,0.8839683252243826,5.414111192060983,0.17048084817860265,0.28,0,7,0.0
6.938634070000262,389,5001.0,-92.0,1.5,-112.1,1.66,4.82,0.17,-0.08,-0.85,0.11,-157.4,-53.7,-161.0,-0.23,2.25,0.55,0.0,0.8608135686662937,5.100676425730219,0.1897628926419579,0.28,0,7,0.0
6.947659466000005,390,5001.01,-91.8,1.5,-111.7,1.1,4.69,0.25,-0.13,-0.87,0.1,-158.5,-152.2,-1224.0,-0.17,6.68,0.4,0.0,0.8853247991556545,4.823753725056867,0.16194662890954503,0.28,0,7,0.0
6.958634630999768,391,5001.02,-91.7,1.5,-111.2,0.65,4.13,0.29,-0.23,-0.82,0.19,-161.6,-302.8,-1101.0,-0.09,9.33,0.16,0.0,0.8725823743349391,4.190882961858992,0.17119527265565526,0.28,0,7,0.0
6.967392462999669,392,5001.03,-91.6,1.5,-110.8,0.52,3.4,0.58,-0.17,-0.75,0.17,-165.1,-375.1,-744.0,0.01,10.77,0.23,0.0,0.7875912645528771,3.488094035429664,0.25106265478896295,0.28,0,7,0.0
6.978457875999993,393,5001.04,-91.6,1.4,-110.5,-0.07,2.63,0.9,-0.12,-0.76,0.1,-169.2,-416.2,-503.0,0.12,11.76,0.26,0.0,0.7758865896508329,2.7806114435497813,0.25751198309718704,0.28,0,7,0.0
6.987627538999732,394,5001.05,-91.7,1.3,-110.3,-1.05,2.14,1.16,-0.06,-0.81,0.04,-173.5,-439.1,-241.0,0.24,11.96,0.02,0.0,0.8132035415564791,2.6509809505162423,0.21579113056771004,0.28,0,7,0.0
6.998358001999804,395,5001.06,-91.8,1.1,-110.1,-1.67,1.79,1.34,-0.03,-0.91,0.02,-177.9,-438.4,-74.0,0.36,11.91,0.13,0.0,0.9107140056021978,2.790806335093856,0.1159150531915516,0.28,0,7,0.0
7.007709808000072,396,5001.07,-91.9,1.0,-109.9,-1.62,1.54,1.42,-0.02,-0.98,0.0,-182.2,-429.1,94.0,0.48,11.36,0.02,0.0,0.9802040603874276,2.6480936539329574,0.045496498438195365,0.28,0,7,0.0
7.018529695000325,397,5001.08,-92.1,0.8,-109.8,-1.08,1.36,1.4,-0.01,-1.04,-0.02,-186.3,-399.5,238.0,0.59,10.49,-0.14,0.0,1.040240356840668,2.2306949589757896,0.014249002054744109,0.28,0,7,0.0
7.027704062999874,398,5001.09,-92.1,0.7,-109.6,-0.46,1.33,1.28,0.0,-1.04,-0.04,-190.1,-369.3,289.0,0.68,9.63,-0.12,0.0,1.0407689465006151,1.9023406634985227,0.014482039880397535,0.28,0,7,0.0
7.038449935000244,399,5001.1,-92.1,0.6,-109.5,0.03,1.36,1.07,0.01,-1.04,-0.06,-193.6,-335.5,321.0,0.77,8.71,-0.24,0.0,1.0417773274553446,1.7307223925286228,0.015180612418424388,0.28,0,7,0.0
7.047600023999621,400,5001.11,-92.1,0.5,-109.4,0.39,1.47,0.84,0.0,-0.97,-0.08,-196.7,-302.1,331.0,0.86,7.79,-0.24,0.0,0.9732933781753578,1.737411868268431,0.0522372701243311,0.28,0,7,0.0
7.058536378000099,401,5001.12,-92.1,0.4,-109.2,0.52,1.56,0.81,-0.03,-0.93,-0.06,-199.5,-264.3,379.0,0.93,6.67,-0.16,0.0,0.9324162160752033,1.833057555015663,0.09125214357999589,0.28,0,7,0.0
7.067690161999963,402,5001.13,-92.1,0.3,-109.0,0.67,1.55,0.83,-0.06,-0.89,-0.05,-201.8,-219.7,436.0,0.98,5.39,-0.35,0.0,0.893420393767682,1.8815684946341975,0.1276430065697668,0.28,0,7,0.0
7.078608630999952,403,5001.14,-92.0,0.2,-108.9,0.78,1.47,0.86,-0.07,-0.88,-0.05,-203.7,-174.0,442.0,1.03,4.19,-0.11,0.0,0.8841945487278238,1.8732058082335747,0.13413147457743246,0.28,0,7,0.0
7.087618816000031,404,5001.15,-91.9,0.0,-108.7,0.92,1.38,0.8,-0.1,-0.91,-0.04,-205.0,-135.3,432.0,1.06,3.15,-0.31,0.0,0.916351460958076,1.8414125013152267,0.09993507110023658,0.28,0,7,0.0
7.0982789259996935,405,5001.16,-91.8,0.0,-108.6,1.34,1.27,0.66,-0.12,-0.92,-0.04,-206.1,-92.8,431.0,1.08,1.98,-0.01,0.0,0.928654941299512,1.9606376513777348,0.08587895894362463,0.28,0,7,0.0
7.107708071000161,406,5001.17,-91.7,-0.1,-108.5,1.83,1.1,0.68,-0.13,-0.89,-0.04,-206.7,-48.5,440.0,1.1,0.77,-0.01,0.0,0.9003332716277901,2.2408257406590097,0.1119166160430396,0.28,0,7,0.0
7.118619955999748,407,5001.18,-91.5,-0.1,-108.4,2.21,0.9,0.82,-0.14,-0.9,-0.07,-206.9,-7.3,393.0,1.1,-0.19,-0.06,0.0,0.9135097153287425,2.5231924223094837,0.09676536889524556,0.28,0,7,0.0
7.127470938999977,408,5001.19,-91.2,-0.2,-108.3,2.57,0.81,0.81,-0.14,-0.92,-0.1,-206.8,19.5,278.0,1.09,-0.76,0.0,0.0,0.9359487165438072,2.813734173656069,0.07283984032657731,0.28,0,7,0.0
7.138481214999956,409,5001.2,-90.9,-0.3,-108.2,3.02,0.69,0.65,-0.13,-0.93,-0.11,-206.4,36.3,188.0,1.08,-1.14,0.0,0.0,0.9454628496138809,3.1652803983217663,0.062059193111373534,0.28,0,7,0.0
7.147442468000008,410,5001.21,-90.6,-0.3,-108.2,3.62,0.54,0.36,-0.13,-0.91,-0.13,-206.0,47.1,121.0,1.07,-1.37,-0.01,0.0,0.9283856957105706,3.6777166829433723,0.07755362007439015,0.28,0,7,0.0
7.158562413000254,411,5001.22,-90.2,-0.3,-108.1,4.1,0.3,0.05,-0.15,-0.87,-0.11,-205.5,49.6,35.0,1.05,-1.31,0.05,0.0,0.8896628574915332,4.111265012134343,0.113950929127559,0.28,0,7,0.0
7.167469807999623,412,5001.23,-89.8,-0.3,-108.1,4.07,0.0,-0.22,-0.18,-0.83,-0.07,-205.0,44.3,-38.0,1.04,-1.09,0.0,0.0,0.8521736912155878,4.07594160900276,0.14841129349543436,0.28,0,7,0.0
7.1785101069999655,413,5001.24,-89.4,-0.3,-108.1,3.3,-0.46,-0.47,-0.2,-0.76,-0.03,-204.7,33.8,-91.0,1.03,-0.76,-0.02,0.0,0.7864477096412704,3.364892271678248,0.2098545295683567,0.28,0,7,0.0
7.187485620000189,414,5001.25,-89.2,-0.2,-108.2,2.19,-0.94,-0.51,-0.19,-0.72,-0.06,-204.4,18.9,-146.0,1.03,-0.27,-0.14,0.0,0.7470609078247904,2.437170490548415,0.24425650475714,0.28,0,7,0.0
7.198345427000277,415,5001.26,-89.0,-0.2,-108.3,0.99,-1.31,-0.49,-0.17,-0.72,-0.1,-204.4,-0.6,-161.0,1.03,0.17,0.03,0.0,0.7465252842335617,1.7135635383609211,0.23989628578140132,0.28,0,7,0.0
7.207368002000294,416,5001.27,-89.0,-0.1,-108.5,0.0,-1.54,-0.49,-0.14,-0.76,-0.11,-204.4,-10.6,-109.0,1.03,0.38,0.08,0.0,0.7805767098754612,1.6160754932861274,0.2017279629367117,0.28,0,7,0.0
7.218464827999924,417,5001.28,-89.0,-0.1,-108.6,-0.56,-1.72,-0.6,-0.1,-0.81,-0.11,-204.6,-16.8,-79.0,1.04,0.55,0.08,0.0,0.8235289915965316,1.9057806799314552,0.15560016759132855,0.28,0,7,0.0
7.2273700249998,418,5001.29,-89.1,0.0,-108.8,-0.76,-1.85,-0.74,-0.09,-0.82,-0.1,-204.8,-27.0,-104.0,1.04,0.87,0.0,0.0,0.8309632964216891,2.1325337043057493,0.14520254551084766,0.28,0,7,0.0
7.238374272999863,419,5001.3,-89.2,0.0,-109.0,-0.92,-1.92,-0.75,-0.12,-0.82,-0.1,-205.2,-40.1,-135.0,1.06,1.29,0.26,0.0,0.8347454701883682,2.2572771207806985,0.13859196430928522,0.28,0,7,0.0
7.251724720000311,420,5001.31,-89.3,0.0,-109.2,-1.47,-1.89,-0.49,-0.13,-0.85,-0.12,-205.7,-56.0,-155.0,1.07,1.73,0.07,0.0,0.8682165628459295,2.4439926350134527,0.10301845421868938,0.28,0,7,0.0
7.259745342000315,421,5001.32,-89.5,0.1,-109.4,-1.81,-1.68,-0.28,-0.12,-0.96,-0.14,-206.4,-72.4,-163.0,1.09,2.19,-0.01,0.0,0.9775479527879949,2.4853369992819885,0.006186677008908514,0.28,0,7,0.0
7.267674314999567,422,5001.33,-89.6,0.1,-109.5,-1.75,-1.45,-0.14,-0.08,-1.03,-0.16,-207.2,-91.6,-187.0,1.12,2.73,0.16,0.0,1.0454185764563397,2.276971673078082,0.07257615466370826,0.28,0,7,0.0
7.278714437999952,423,5001.34,-89.8,0.1,-109.7,-1.21,-1.32,-0.14,-0.02,-1.1,-0.16,-208.3,-110.8,-195.0,1.15,3.26,0.12,0.0,1.1117553687749837,1.7961347388211164,0.13613468804270523,0.28,0,7,0.0
7.287620725999659,424,5001.35,-89.8,0.1,-109.8,-0.14,-1.34,-0.42,0.01,-1.09,-0.16,-209.5,-128.5,-172.0,1.18,3.68,0.03,0.0,1.1017259187293362,1.4112405889854502,0.12358313323711656,0.28,0,7,0.0
7.298366860999522,425,5001.36,-89.8,0.2,-109.9,0.22,-1.57,-0.58,0.02,-1.02,-0.16,-210.9,-144.3,-166.0,1.22,4.13,0.07,0.0,1.032666451474047,1.688105446943407,0.05343319266219071,0.28,0,7,0.0
7.30769058199985,426,5001.37,-89.8,0.2,-110.1,-0.02,-1.78,-0.58,0.05,-1.03,-0.18,-212.5,-161.2,-171.0,1.27,4.6,0.0,0.0,1.0468046618161384,1.8722179360320208,0.06621997494419662,0.28,0,7,0.0
7.319686275000095,427,5001.38,-89.8,0.3,-110.3,-0.25,-1.92,-0.47,0.05,-1.02,-0.16,-214.2,-180.0,-192.0,1.32,5.16,0.0,0.0,1.0336827366266692,1.992435695323691,0.05203608875963284,0.28,0,7,0.0
7.327721491000375,428,5001.39,-89.9,0.3,-110.5,-1.27,-1.97,0.17,0.1,-1.02,-0.15,-216.2,-203.3,-226.0,1.37,5.83,0.17,0.0,1.0358088626768938,2.3500425528062254,0.053078970513660284,0.28,0,7,0.0
7.338596057000359,429,5001.4,-90.1,0.3,-110.7,-2.18,-1.89,0.99,0.19,-1.15,-0.11,-218.4,-228.5,-242.0,1.44,6.52,0.07,0.0,1.1707689780652712,3.0503442428683356,0.18427830418399704,0.28,0,7,0.0
7.347704777000217,430,5001.41,-90.3,0.1,-110.9,-2.28,-1.74,1.51,0.23,-1.35,-0.06,-220.8,-250.9,-225.0,1.51,7.09,-0.04,0.0,1.370766209096212,3.241311462972974,0.37659002451063905,0.28,1,8,3.0
7.3583962029997565,431,5001.42,-90.5,0.0,-111.0,-1.73,-1.46,1.9,0.21,-1.51,-0.05,-223.5,-273.3,-228.0,1.58,7.71,0.17,0.0,1.525352418295523,2.955418752055282,0.5205527090357509,0.28,0,8,3.0
7.3677052820003155,432,5001.43,-90.7,-0.1,-111.2,-0.78,-1.12,2.26,0.24,-1.61,-0.05,-226.4,-282.4,109.0,1.66,6.79,2.82,3.49,1.6285576440519385,2.6401515108038778,0.6112827760963231,0.28,0,8,3.0
7.378557346999514,433,5001.44,-90.7,-0.4,-111.2,0.85,-0.16,2.82,0.28,-1.69,0.01,-228.5,-166.4,967.0,1.7,2.79,3.19,3.49,1.7130674242422566,2.949660997470726,0.6818767051609083,0.28,0,8,3.0
7.387720214999717,434,5001.45,-90.5,-0.7,-111.2,3.01,0.8,3.3,0.3,-1.73,0.16,-229.3,-47.9,975.0,1.71,0.23,3.22,3.49,1.7630938715791624,4.53763154079306,0.7172650894478578,0.28,0,8,3.0
7.39845657099977,435,5001.46,-90.0,-1.1,-111.1,5.26,1.08,3.57,0.22,-1.57,0.25,-229.2,15.8,555.0,1.7,-0.54,3.75,3.49,1.6049299050114307,6.448170283111326,0.5479191004225237,0.28,0,8,3.0
7.4076975210000455,436,5001.47,-89.5,-1.4,-111.0,5.8,1.11,3.14,-0.01,-1.36,0.23,-229.1,8.7,65.0,1.7,0.03,3.48,3.49,1.3793476719087179,6.688176134044318,0.3158901299734147,0.28,0,8,3.0
7.418496874000084,437,5001.48,-88.9,-1.7,-110.9,5.36,0.64,2.39,-0.27,-1.14,0.31,-229.1,-0.9,19.0,1.7,0.0,3.73,3.49,1.2118580774991765,5.903498962479794,0.14543252485259583,0.28,0,8,3.0
7.4276561759998,438,5001.49,-88.4,-1.9,-110.9,4.16,-0.43,1.66,-0.44,-1.0,0.4,-229.1,-0.4,9.0,1.7,0.0,3.66,3.49,1.1634431657799191,4.49956664580046,0.09507726087067159,0.28,0,8,3.0
7.438612439999815,439,5001.5,-88.1,-2.0,-111.0,3.02,-1.96,1.16,-0.5,-0.92,0.43,-229.1,-1.4,-13.0,1.7,0.08,3.43,3.49,1.1319452283569202,3.782538829939489,0.062307736978719275,0.28,0,8,3.0
7.44759782500023,440,5001.51,-87.8,-2.1,-111.3,2.1,-3.2,0.68,-0.44,-0.9,0.3,-229.1,-4.9,-27.0,1.7,0.17,3.5,3.49,1.0457533169921098,3.8874670416609325,0.023406490898369325,0.28,0,8,3.0
7.458517549000135,441,5001.52,-87.6,-2.1,-111.6,1.45,-3.75,0.55,-0.33,-0.89,0.28,-229.2,-7.5,-22.0,1.7,0.22,3.52,3.49,0.9896464014990405,4.058016756988566,0.07792313826360986,0.28,0,8,3.0
7.467648754000038,442,5001.53,-87.5,-2.2,-112.0,1.48,-4.36,0.57,-0.19,-0.99,0.3,-229.3,-6.5,29.0,1.71,0.04,3.49,3.49,1.0517604289951206,4.639493506838867,0.015492928552179208,0.28,0,8,3.0
7.4783961149996685,443,5001.54,-87.3,-2.2,-112.5,1.77,-4.71,0.48,-0.12,-1.09,0.29,-229.3,0.7,33.0,1.71,-0.02,3.45,3.49,1.1342839150759392,5.05444358955563,0.06568994637806669,0.28,0,8,3.0
7.487626991999605,444,5001.55,-87.1,-2.2,-113.0,1.88,-4.96,0.22,-0.07,-1.12,0.25,-229.3,0.9,11.0,1.71,-0.03,3.45,3.49,1.149695611890382,5.308898190773675,0.07947961032865947,0.28,0,8,3.0
7.498437303999708,445,5001.56,-86.9,-2.2,-113.5,2.02,-4.92,-0.18,0.0,-1.11,0.2,-229.3,2.6,27.0,1.7,-0.12,3.59,3.49,1.127874106449829,5.321578713126397,0.05650494279034435,0.28,0,8,3.0
7.507490099000279,446,5001.57,-86.6,-2.1,-113.9,2.11,-4.59,-0.65,0.03,-1.02,0.15,-229.2,12.7,102.0,1.7,-0.54,4.18,3.49,1.031406806260265,5.093397687202521,0.03916311025123531,0.28,0,8,3.0
7.518393542999547,447,5001.58,-86.4,-2.0,-114.4,1.43,-4.21,-1.09,0.07,-0.93,0.14,-228.9,32.2,180.0,1.69,-1.19,3.22,3.49,0.9430800602281866,4.5778925282273715,0.1249400591576475,0.28,0,8,3.0
7.527692700999978,448,5001.59,-86.3,-1.8,-114.8,0.5,-3.95,-1.51,0.09,-0.87,0.14,-228.4,65.4,361.0,1.67,-2.49,3.38,3.49,0.8857764955111419,4.258239072668419,0.17859875139719839,0.28,0,8,3.0
7.5386885580001035,449,5001.6,-86.3,-1.7,-115.2,-0.19,-3.83,-1.83,0.09,-0.84,0.15,-227.4,113.0,394.0,1.64,-3.49,3.42,3.49,0.8580209787645054,4.248988114833931,0.20222718278095808,0.28,0,8,0.0
7.5476214720001735,450,5001.61,-86.4,-1.4,-115.5,-0.7,-3.7,-1.94,0.08,-0.82,0.15,-226.0,156.5,420.0,1.6,-4.77,3.47,3.49,0.8374365647617733,4.2359886685400845,0.21835536484801643,0.28,0,8,0.0
7.558560446999763,451,5001.62,-86.4,-1.2,-115.9,-0.89,-3.57,-1.9,0.06,-0.83,0.14,-224.1,194.3,219.0,1.54,-5.0,0.5,0.0,0.8438601779915912,4.140893623361991,0.20769311658583456,0.28,0,8,0.0
7.567740780999884,452,5001.63,-86.5,-1.0,-116.2,-1.0,-3.34,-1.92,0.0,-0.88,0.11,-222.6,123.0,-557.0,1.51,-2.14,0.37,0.0,0.8868483523128404,3.9802009999496253,0.16141084341929368,0.28,0,8,0.0
7.578388283000095,453,5001.64,-86.5,-0.8,-116.5,-0.81,-3.35,-2.01,-0.08,-0.85,0.14,-221.9,54.4,-509.0,1.5,-0.99,0.09,0.0,0.8651589449343975,3.989824557546359,0.1794382457817818,0.28,0,8,0.0
7.587702208999872,454,5001.65,-86.6,-0.6,-116.9,-0.71,-3.43,-1.96,-0.07,-0.8,0.12,-221.6,23.5,-321.0,1.49,-0.42,0.06,0.0,0.8119729059519166,4.013801190891248,0.22797179906897747,0.28,0,8,0.0
7.5986777999996775,455,5001.66,-86.7,-0.4,-117.2,-0.61,-3.64,-1.83,-0.02,-0.78,0.12,-221.5,11.5,-152.0,1.49,-0.28,-0.05,0.0,0.789430174239622,4.119538809138713,0.24550424016564654,0.28,0,8,0.0
7.60756385500008,456,5001.67,-86.7,-0.2,-117.6,-0.7,-3.83,-1.64,0.02,-0.78,0.08,-221.3,12.4,-20.0,1.49,-0.42,0.11,0.0,0.7843468620451031,4.224748513225373,0.24557580131296208,0.28,0,8,0.0
7.618405606999659,457,5001.68,-86.7,0.0,-117.9,-0.71,-3.78,-1.4,0.07,-0.78,0.03,-221.1,25.4,94.0,1.48,-0.89,-0.06,0.0,0.783709129715866,4.092981798151563,0.24128926296935505,0.28,0,8,0.0
7.6276829959997485,458,5001.69,-86.8,0.1,-118.3,-0.65,-3.57,-1.13,0.11,-0.79,0.0,-220.8,44.1,174.0,1.47,-1.48,-0.19,0.0,0.7976214641043708,3.8005657473592005,0.2228293900092333,0.28,0,8,0.0
7.638532515999941,459,5001.7,-86.9,0.2,-118.6,-0.38,-3.27,-0.88,0.15,-0.8,-0.01,-220.2,69.9,238.0,1.45,-2.22,-0.11,0.0,0.814002456998749,3.407594459439092,0.20231942917255807,0.28,0,8,0.0
7.647609618000388,460,5001.71,-86.9,0.3,-118.9,-0.1,-2.91,-0.66,0.18,-0.8,-0.03,-219.2,97.7,259.0,1.42,-3.0,-0.19,0.0,0.8205485969764376,2.9855820203102783,0.19185782341097213,0.28,0,8,0.0
7.658543816999554,461,5001.72,-86.9,0.4,-119.2,-0.02,-2.49,-0.45,0.21,-0.81,-0.05,-218.1,121.5,239.0,1.39,-3.57,-0.08,0.0,0.8382720322186588,2.5304149857286258,0.1706517004053758,0.28,0,8,0.0
7.667711041000075,462,5001.73,-86.9,0.4,-119.4,-0.11,-2.04,-0.3,0.23,-0.83,-0.06,-216.7,145.8,247.0,1.34,-4.3,-0.09,0.0,0.8633655077659751,2.0648728774430642,0.14264706036089836,0.28,0,8,0.0
7.678546639999695,463,5001.74,-86.9,0.5,-119.6,-0.26,-1.57,-0.23,0.23,-0.84,-0.06,-215.1,169.5,228.0,1.3,-4.85,-0.25,0.0,0.8729833904490967,1.6079179083522892,0.1303685941242212,0.28,0,8,0.0
7.687646196999594,464,5001.75,-87.0,0.5,-119.7,-0.49,-1.13,-0.15,0.22,-0.85,-0.07,-213.2,194.1,247.0,1.24,-5.58,-0.02,0.0,0.8807950953541919,1.240765892503497,0.12010575143474345,0.28,0,8,0.0
7.698443655000119,465,5001.76,-87.0,0.5,-119.8,-0.73,-0.73,-0.03,0.21,-0.86,-0.09,-211.1,218.1,241.0,1.19,-6.22,-0.14,0.0,0.889831444712986,1.032811696293182,0.10884801403443034,0.28,0,8,0.0
7.707482746999631,466,5001.77,-87.1,0.5,-119.9,-0.78,-0.38,0.11,0.18,-0.88,-0.1,-208.7,244.8,256.0,1.12,-6.93,-0.17,0.0,0.9037698822156003,0.8745856161634492,0.09301138500117978,0.28,0,8,0.0
7.7185531859995535,467,5001.78,-87.2,0.5,-119.9,-0.62,-0.13,0.31,0.16,-0.89,-0.12,-206.1,269.0,231.0,1.04,-7.56,-0.24,0.0,0.9121951545584969,0.7052659073002183,0.08289439040511748,0.28,0,8,0.0
7.727607204999913,468,5001.79,-87.2,0.4,-119.9,-0.41,0.05,0.55,0.13,-0.88,-0.12,-203.3,288.8,217.0,0.97,-8.11,-0.19,0.0,0.8976079322287654,0.6878226515607058,0.09553198048015188,0.28,0,8,0.0
7.738331964999816,469,5001.8,-87.3,0.4,-119.9,-0.38,0.1,0.79,0.11,-0.87,-0.12,-200.2,315.5,260.0,0.88,-8.88,-0.31,0.0,0.8850988645343525,0.8823264701911646,0.10588022721107349,0.28,0,8,0.0
7.747640847000184,470,5001.81,-87.3,0.3,-119.9,-0.37,0.25,0.92,0.1,-0.9,-0.14,-196.8,341.9,242.0,0.78,-9.57,-0.05,0.0,0.9162968951164246,1.0226436329435586,0.07318855269642133,0.28,0,8,0.0
7.7585507160001725,471,5001.82,-87.3,0.2,-119.9,-0.35,0.44,0.98,0.09,-0.9,-0.14,-193.4,362.2,217.0,0.69,-10.08,-0.07,0.0,0.9152595260361949,1.1298229949863827,0.07274140334111812,0.28,0,8,0.0
7.7675317610001,472,5001.83,-87.4,0.1,-119.8,-0.48,0.64,1.1,0.08,-0.9,-0.13,-189.4,386.3,242.0,0.57,-10.8,0.01,0.0,0.9128526715741155,1.3601470508735443,0.07364529264713349,0.28,0,8,0.0
7.778544318999593,473,5001.84,-87.4,0.0,-119.7,-0.61,0.8,1.2,0.09,-0.9,-0.14,-185.5,410.4,253.0,0.46,-11.52,-0.05,0.0,0.9152595260361949,1.5659182609574487,0.06981366942135303,0.28,0,8,0.0
7.787667139000405,474,5001.85,-87.5,-0.1,-119.7,-0.75,0.98,1.23,0.08,-0.89,-0.14,-181.1,440.5,286.0,0.34,-12.32,-0.01,0.0,0.9044888059008801,1.7423547285211471,0.07897270176553439,0.28,0,8,0.0
7.798444111999743,475,5001.86,-87.6,-0.2,-119.6,-0.88,1.16,1.34,0.08,-0.86,-0.14,-176.5,461.5,210.0,0.21,-12.79,-0.34,0.0,0.8749857141690942,1.9787875075409185,0.10630627762737388,0.28,0,8,0.0
7.807653085999846,476,5001.87,-87.7,-0.3,-119.4,-1.04,1.37,1.36,0.08,-0.86,-0.14,-171.8,482.8,223.0,0.08,-13.38,-0.08,0.0,0.8749857141690942,2.1927380144467783,0.10418015207482645,0.28,0,8,0.0
7.818550693999896,477,5001.88,-87.8,-0.5,-119.3,-1.16,1.55,1.49,0.1,-0.84,-0.14,-166.9,495.0,136.0,-0.05,-13.62,0.05,0.0,0.8574380444090406,2.4429899713261207,0.11929326539818241,0.28,0,8,0.0
7.827664381999966,478,5001.89,-87.9,-0.7,-119.1,-1.42,1.76,1.53,0.1,-0.85,-0.15,-161.7,516.3,197.0,-0.19,-14.26,0.15,0.0,0.8689073598491382,2.730366275795246,0.10566747095892304,0.28,0,8,0.0
7.838546232999761,479,5001.9,-88.1,-0.8,-118.9,-1.64,1.9,1.48,0.11,-0.85,-0.14,-156.4,526.4,93.0,-0.33,-14.33,-0.04,0.0,0.8684468895678077,2.9137604568666933,0.10400538241544854,0.28,0,8,0.0
7.847618689000228,480,5001.91,-88.3,-1.0,-118.8,-1.81,1.95,1.47,0.13,-0.82,-0.14,-151.2,525.4,-31.0,-0.47,-14.03,0.21,0.0,0.8419619943916707,3.039654585639625,0.12788047203975383,0.28,0,8,0.0
7.858557954999924,481,5001.92,-88.5,-1.1,-118.6,-1.82,1.88,1.49,0.21,-0.77,-0.17,-146.2,480.1,-490.0,-0.6,-11.9,0.42,0.0,0.816026960338934,3.011129356238287,0.15073919597064078,0.28,0,8,0.0
7.867598847000409,482,5001.93,-88.6,-1.3,-118.4,-1.72,2.15,1.73,0.32,-0.79,-0.27,-142.2,361.5,-1086.0,-0.69,-8.01,0.59,0.0,0.8940917178902845,3.2517379968256974,0.07122094965090442,0.28,0,8,0.0
7.878457097000137,483,5001.94,-88.9,-1.4,-118.1,-2.95,2.57,1.37,0.1,-1.02,-0.29,-139.5,220.6,-1245.0,-0.75,-4.43,0.49,0.0,1.0651291001564083,4.14539503545802,0.09782010396291496,0.28,0,8,0.0
7.887624957999833,484,5001.95,-89.3,-1.5,-117.9,-4.52,2.83,0.64,-0.11,-1.05,-0.25,-138.1,104.4,-1124.0,-0.77,-1.6,0.45,0.0,1.0849423947841654,5.3711172022215266,0.11528073061885868,0.28,0,8,0.0
7.898286327000278,485,5001.96,-89.7,-1.6,-117.6,-4.5,2.25,0.26,-0.18,-1.01,-0.16,-137.8,9.8,-949.0,-0.77,0.66,0.08,0.0,1.038315944209661,5.037866611969792,0.06728119444346714,0.28,0,8,0.0
7.907647748000272,486,5001.97,-90.1,-1.6,-117.4,-3.25,1.51,0.49,-0.11,-0.89,-0.24,-138.1,-46.1,-594.0,-0.76,1.69,0.07,0.0,0.9283318372220141,3.6170015205968604,0.04184885429329621,0.28,0,8,0.0
7.918417539000075,487,5001.98,-90.4,-1.7,-117.3,-2.62,1.35,1.16,-0.04,-0.87,-0.33,-138.8,-82.4,-453.0,-0.73,2.73,0.25,0.0,0.9313431161500041,3.167412192942371,0.038060823858000026,0.28,0,8,0.0
7.927498095000374,488,5001.99,-90.7,-1.9,-117.2,-2.31,1.22,1.75,0.07,-0.86,-0.32,-140.0,-134.7,-585.0,-0.69,4.56,0.29,0.0,0.9202716990106781,3.1443600302764314,0.04814959617737957,0.28,0,8,0.0
7.938647291000052,489,5002.0,-90.9,-2.1,-117.0,-2.15,1.69,2.21,0.15,-0.99,-0.36,-141.8,-212.5,-724.0,-0.63,6.74,0.33,0.0,1.064048871058092,3.516063139364821,0.09371502435263368,0.28,0,8,0.0
7.94761085600021,490,5002.01,-91.2,-2.3,-116.8,-2.88,2.42,1.95,0.01,-1.31,-0.32,-144.1,-270.7,-768.0,-0.55,8.23,0.1,0.0,1.348554781979583,4.237133464973696,0.37065651656864207,0.28,1,9,3.0
7.958489652000026,491,5002.02,-91.5,-2.4,-116.5,-3.47,2.91,1.09,-0.1,-1.48,-0.14,-147.6,-322.2,-507.0,-0.47,9.17,0.16,0.0,1.489966442575134,4.658014598517269,0.5018268136209093,0.28,0,9,3.0
7.967601587999525,492,5002.03,-91.9,-2.5,-116.2,-3.12,2.7,0.1,-0.08,-1.59,0.04,-151.0,-334.3,67.0,-0.38,7.98,3.19,3.49,1.5925137362044952,4.127275130155488,0.5922866251052652,0.28,0,9,3.0
7.9784769400002915,493,5002.04,-92.1,-2.4,-116.0,-2.54,2.4,-0.78,-0.14,-1.58,0.05,-153.5,-201.4,1088.0,-0.33,3.41,2.67,3.49,1.5869782607206693,3.5805027579936315,0.5750161266290106,0.28,0,9,3.0
7.987617238999519,494,5002.05,-92.3,-2.3,-115.7,-2.7,2.33,-1.6,-0.14,-1.58,0.07,-154.4,-45.7,1310.0,-0.32,-0.38,2.99,3.49,1.587734234687909,3.9088233523657734,0.5642566585843254,0.28,0,9,3.0
7.998278955999922,495,5002.06,-92.6,-2.1,-115.5,-2.89,2.46,-2.77,-0.09,-1.75,0.17,-154.1,43.6,764.0,-0.33,-1.45,3.48,3.49,1.7605396899814558,4.698574251834273,0.7223208716003147,0.28,0,9,3.0
8.007701094000367,496,5002.07,-93.0,-1.7,-115.3,-3.74,2.33,-4.44,-0.23,-1.99,0.22,-153.6,50.9,248.0,-0.35,-1.33,3.36,3.49,2.0152915421844058,6.255405662305204,0.9575312693271993,0.28,0,9,3.0
8.018463913000232,497,5002.08,-93.3,-1.2,-115.1,-2.88,1.67,-5.85,-0.33,-1.9,0.3,-153.2,41.4,-32.0,-0.36,-0.8,3.71,3.49,1.951640335717624,6.730958327014067,0.8760024616032092,0.28,0,9,3.0
8.02761696699963,498,5002.09,-93.4,-0.6,-115.0,-0.01,0.94,-5.19,-0.14,-1.35,0.28,-153.0,7.9,-237.0,-0.36,0.13,3.36,3.49,1.3858210562695317,5.2744478383997695,0.30397951851201443,0.28,0,9,3.0
8.038450064000244,499,5002.1,-93.3,-0.2,-115.0,1.8,0.88,-2.84,0.21,-0.88,0.12,-153.0,-3.0,-77.0,-0.36,0.0,3.47,3.49,0.912633551870629,3.4756294393965534,0.16582382616915048,0.28,0,9,3.0
8.047615616999792,500,5002.11,-93.1,-0.1,-114.8,2.24,1.62,-0.67,0.52,-0.81,0.0,-153.0,-2.3,-57.0,-0.36,0.16,3.6,3.49,0.9625487000666513,2.84445073784026,0.11359050441366558,0.28,0,9,3.0
8.058474741999817,501,5002.12,-92.9,0.0,-114.6,1.4,2.67,0.03,0.54,-0.87,-0.05,-153.1,-10.0,-70.0,-0.36,0.36,3.59,3.49,1.0251829105091441,3.0149295182474827,0.04993716809174931,0.28,0,9,3.0
8.067643895999936,502,5002.13,-92.9,0.0,-114.3,0.01,4.05,0.42,0.46,-0.89,0.01,-153.2,-16.1,-57.0,-0.35,0.49,3.58,3.49,1.0018981984213766,4.071731818280767,0.07175744257592642,0.28,0,9,3.0
8.07971587100019,503,5002.14,-92.9,-0.1,-113.8,-0.32,5.19,0.55,0.35,-1.11,0.05,-153.4,-19.6,-27.0,-0.35,0.52,3.58,3.49,1.1649463506960311,5.228862208932265,0.08946489550475345,0.28,0,9,3.0
8.10754570500012,506,5002.17,-92.3,0.0,-112.0,3.59,5.72,-0.49,-0.13,-1.03,0.25,-154.3,-48.6,-125.0,-0.32,1.43,3.45,3.49,1.0678483038334612,6.771011741239266,0.007480488330660062,0.28,0,9,3.0
8.118449480999516,507,5002.18,-92.0,0.0,-111.5,3.24,5.29,-0.44,-0.21,-0.91,0.19,-154.8,-47.2,25.0,-0.3,1.1,3.43,3.49,0.9530477427705288,6.2189468561807155,0.11983542840572059,0.28,0,9,3.0
8.12758107100035,508,5002.19,-91.7,0.0,-111.0,2.5,4.77,-0.2,-0.22,-0.85,0.14,-155.3,-42.5,-29.0,-0.29,1.31,3.44,3.49,0.8891006692158092,5.389146500142671,0.18010685192123144,0.28,0,9,3.0
8.138639812999827,509,5002.2,-91.5,0.1,-110.6,1.94,4.28,0.05,-0.21,-0.85,0.14,-155.8,-54.6,-64.0,-0.28,1.52,3.52,3.49,0.8866791979064356,4.6994148571923295,0.17887775676599305,0.28,0,9,0.0
8.147591451999688,510,5002.21,-91.3,0.1,-110.2,1.82,3.69,0.28,-0.15,-0.85,0.13,-156.3,-50.6,24.0,-0.26,1.3,3.71,3.49,0.8728688332160794,4.12394228863596,0.18883435902722212,0.28,0,9,0.0
8.158492468999611,511,5002.22,-91.1,0.0,-109.8,1.92,3.3,0.51,-0.08,-0.86,0.09,-156.8,-61.2,-265.0,-0.24,2.64,0.49,0.0,0.8683893136145792,3.8518177526980684,0.189447601056148,0.28,0,9,0.0
8.167651640999793,512,5002.23,-90.9,0.0,-109.5,1.66,3.18,0.66,-0.14,-0.88,0.08,-158.2,-184.5,-1056.0,-0.19,6.77,0.52,0.0,0.8946507698538017,3.6474100400146954,0.15992242192058692,0.28,0,9,0.0
8.178605875000358,513,5002.24,-90.8,0.0,-109.2,1.27,2.69,0.72,-0.24,-0.83,0.17,-161.0,-307.1,-1027.0,-0.1,9.43,0.07,0.0,0.8805679985100526,3.060620852049466,0.1705250893990492,0.28,0,9,0.0
8.187692948000404,514,5002.25,-90.7,-0.1,-109.0,0.95,1.94,0.88,-0.19,-0.75,0.15,-164.6,-378.4,-705.0,0.0,10.81,0.09,0.0,0.7880989785553588,2.33248794209102,0.25773422716666816,0.28,0,9,0.0
8.198564158000408,515,5002.26,-90.6,-0.2,-108.8,0.22,1.2,1.01,-0.12,-0.74,0.09,-168.6,-417.4,-481.0,0.11,11.77,0.08,0.0,0.7550496672405067,1.5838244852255567,0.28496786771188987,0.28,0,9,0.0
8.207632593000199,516,5002.27,-90.7,-0.3,-108.7,-0.85,0.84,1.07,-0.05,-0.75,0.03,-173.0,-443.7,-269.0,0.23,12.16,-0.08,0.0,0.7522632517942106,1.6040573555830226,0.28199919749502234,0.28,0,9,0.0
8.218366590000187,517,5002.28,-90.8,-0.4,-108.6,-1.73,0.61,0.97,-0.01,-0.84,0.0,-177.5,-445.9,-94.0,0.35,12.13,-0.06,0.0,0.8400595217006946,2.0750662640021886,0.19031886903676754,0.28,0,9,0.0
8.227496620999773,518,5002.29,-91.0,-0.5,-108.6,-2.09,0.64,1.04,0.0,-0.87,-0.03,-181.9,-441.7,47.0,0.47,11.76,0.11,0.0,0.8705170877128146,2.420599099396676,0.15666407696415474,0.28,0,9,0.0
8.238662536999982,519,5002.3,-91.2,-0.6,-108.5,-1.81,0.63,1.09,0.0,-0.94,-0.03,-186.2,-415.2,215.0,0.58,10.91,-0.14,0.0,0.9404786015641184,2.204790239455899,0.08496851185059384,0.28,0,9,0.0
8.24752702800015,520,5002.31,-91.3,-0.7,-108.4,-1.26,0.66,1.14,0.01,-0.95,-0.03,-190.1,-385.8,269.0,0.69,10.1,0.0,0.0,0.9505261700763424,1.8228549037155974,0.07342252447160236,0.28,0,9,0.0
8.25880116099961,521,5002.32,-91.5,-0.8,-108.4,-0.8,0.71,1.19,0.0,-0.94,-0.06,-193.7,-352.5,319.0,0.78,9.16,-0.18,0.0,0.9419129471453294,1.6000624987793446,0.08039503245456303,0.28,0,9,0.0
8.267638973999965,522,5002.33,-91.6,-0.9,-108.3,-0.58,0.75,1.12,0.0,-0.92,-0.07,-197.0,-318.0,343.0,0.87,8.17,-0.3,0.0,0.9226592003551474,1.4674126890551276,0.09765580365985016,0.28,0,9,0.0
8.27850505799961,523,5002.34,-91.6,-1.0,-108.2,-0.43,0.86,0.83,-0.03,-0.94,-0.08,-199.9,-278.3,397.0,0.94,7.02,0.02,0.0,0.9438749917229505,1.270196835140129,0.0749112120462061,0.28,0,9,0.0
8.291663680000056,524,5002.35,-91.7,-1.1,-108.1,-0.13,0.94,0.58,-0.06,-0.92,-0.08,-202.4,-232.7,436.0,1.0,5.77,-0.12,0.0,0.9254188241007419,1.1121600604229591,0.09150003207504631,0.28,0,9,0.0
8.299502349999784,525,5002.36,-91.8,-1.2,-108.0,0.16,0.93,0.48,-0.1,-0.91,-0.08,-204.4,-187.5,442.0,1.05,4.55,-0.14,0.0,0.9189668111526118,1.0587256490706174,0.09599300412271294,0.28,0,9,0.0
8.307505536999997,526,5002.37,-91.7,-1.2,-107.9,0.46,0.91,0.4,-0.12,-0.92,-0.08,-206.0,-144.3,436.0,1.09,3.38,-0.12,0.0,0.9312357381458253,1.0953081758117211,0.0820495955869095,0.28,0,9,0.0
8.318617322000136,527,5002.38,-91.7,-1.2,-107.8,0.72,0.87,0.23,-0.14,-0.93,-0.09,-207.1,-100.5,436.0,1.11,2.21,-0.11,0.0,0.9447751055145346,1.1524755962709146,0.0671400236538362,0.28,0,9,0.0
8.327790766999897,528,5002.39,-91.6,-1.3,-107.7,0.89,0.74,0.04,-0.15,-0.92,-0.09,-207.8,-55.2,447.0,1.13,0.96,-0.16,0.0,0.9364827814754524,1.1581450686334593,0.07392370073906007,0.28,0,9,0.0
8.338560993999636,529,5002.4,-91.5,-1.3,-107.7,1.11,0.57,-0.1,-0.15,-0.89,-0.1,-208.1,-10.0,452.0,1.13,-0.27,0.0,0.0,0.9080748867797193,1.2517987058628877,0.10028496352609739,0.28,0,9,0.0
8.347547518000283,530,5002.41,-91.4,-1.2,-107.6,1.28,0.35,-0.23,-0.15,-0.87,-0.1,-207.9,25.5,332.0,1.12,-0.96,0.11,0.0,0.8884818512496471,1.346773923121472,0.11748043907504613,0.28,0,9,0.0
8.358768174999568,531,5002.42,-91.2,-1.2,-107.6,1.41,0.01,-0.47,-0.16,-0.84,-0.1,-207.5,45.3,232.0,1.11,-1.42,-0.03,0.0,0.8609297300012353,1.4863041411501214,0.1421319091169888,0.28,0,9,0.0
8.367717172999619,532,5002.43,-91.1,-1.1,-107.6,1.28,-0.35,-0.68,-0.17,-0.81,-0.09,-207.0,57.0,135.0,1.09,-1.64,0.09,0.0,0.8325262758616092,1.4910734388352573,0.16712465599148263,0.28,0,9,0.0
8.378459788000328,533,5002.44,-91.0,-1.1,-107.7,0.94,-0.77,-0.84,-0.16,-0.8,-0.1,-206.4,59.3,33.0,1.07,-1.56,-0.04,0.0,0.8219489035213807,1.4771932845772078,0.1741479877650769,0.28,0,9,0.0
8.387710838999737,534,5002.45,-90.9,-1.0,-107.8,0.56,-1.16,-0.92,-0.14,-0.79,-0.11,-205.8,51.0,-75.0,1.06,-1.17,0.28,0.0,0.809814793641114,1.5829087149927503,0.18255645569243673,0.28,0,9,0.0
8.398534736000329,535,5002.46,-90.9,-0.9,-107.9,0.25,-1.51,-0.87,-0.11,-0.79,-0.13,-205.4,30.4,-173.0,1.05,-0.54,0.08,0.0,0.8081460264085941,1.7605396899814556,0.18054071846645747,0.28,0,9,0.0
8.407649224999659,536,5002.47,-90.8,-0.8,-108.1,0.0,-1.64,-0.72,-0.08,-0.82,-0.13,-205.3,3.6,-241.0,1.05,0.21,-0.02,0.0,0.8340863264674706,1.7910890541790487,0.1515084100394294,0.28,0,9,0.0
8.418413278999651,537,5002.48,-90.8,-0.7,-108.3,0.0,-1.69,-0.6,-0.06,-0.85,-0.13,-205.4,-11.8,-134.0,1.06,0.38,-0.08,0.0,0.8619744775803979,1.793348822733603,0.12114785374797199,0.28,0,9,0.0
8.427783991999604,538,5002.49,-90.8,-0.7,-108.4,0.06,-1.64,-0.52,-0.04,-0.87,-0.14,-205.6,-18.3,-110.0,1.06,0.66,0.08,0.0,0.8820997676000147,1.7215109642404256,0.0990021124537881,0.28,0,9,0.0
8.438457641000241,539,5002.5,-90.8,-0.6,-108.6,0.03,-1.56,-0.56,-0.02,-0.89,-0.15,-205.8,-31.8,-122.0,1.07,1.0,0.05,0.0,0.9027735042633894,1.6577394246382633,0.0767618082746051,0.28,0,9,0.0
8.447791247999703,540,5002.51,-90.8,-0.6,-108.7,-0.23,-1.45,-0.7,0.01,-0.94,-0.16,-206.2,-45.1,-133.0,1.08,1.4,-0.21,0.0,0.9535722311393091,1.6264685671724493,0.02544381977071175,0.28,0,9,0.0
8.45869402199969,541,5002.52,-90.9,-0.5,-108.9,-0.58,-1.17,-0.9,0.03,-0.97,-0.19,-206.8,-61.3,-166.0,1.1,1.89,0.02,0.0,0.9888882646689665,1.5859697348940804,0.009674769483766776,0.28,0,9,0.0
8.467744372999732,542,5002.53,-91.0,-0.4,-109.0,-0.82,-0.72,-0.97,0.03,-1.0,-0.22,-207.6,-82.3,-197.0,1.13,2.5,-0.02,0.0,1.02435345462394,1.4600342461736984,0.04423716024996538,0.28,0,9,0.0
8.478476995000165,543,5002.54,-91.0,-0.3,-109.0,-0.75,-0.23,-0.89,0.02,-1.04,-0.22,-208.5,-104.2,-208.0,1.15,3.08,0.17,0.0,1.063202708800161,1.1863810517704672,0.08142468613766274,0.28,0,9,0.0
8.487749613999767,544,5002.55,-91.1,-0.2,-109.0,-0.23,0.07,-0.74,0.01,-1.07,-0.22,-209.7,-125.4,-208.0,1.19,3.66,0.02,0.0,1.0924284873619874,0.7780745465570763,0.10843745540549932,0.28,0,9,0.0
8.498510182000246,545,5002.56,-91.1,-0.2,-109.0,0.3,0.15,-0.63,0.0,-1.08,-0.23,-211.1,-145.1,-194.0,1.23,4.16,0.0,0.0,1.1042191811411357,0.7137226352022192,0.11782358620095468,0.28,0,9,0.0
8.507579518000057,546,5002.57,-91.0,-0.1,-109.0,0.48,-0.01,-0.65,-0.06,-1.04,-0.2,-212.7,-161.6,-169.0,1.27,4.58,0.0,0.0,1.0607544484940896,0.8080841540334769,0.07287167648283044,0.28,0,9,0.0
8.518617376999828,547,5002.58,-91.0,0.0,-109.0,-0.48,-0.32,-0.52,-0.09,-1.01,-0.22,-214.4,-178.6,-169.0,1.32,5.05,0.1,0.0,1.0375933692926145,0.776659513557904,0.048716385335728196,0.28,0,9,0.0
8.527721344999918,548,5002.59,-91.1,0.0,-109.1,-1.38,-0.41,-0.29,-0.06,-1.07,-0.18,-216.3,-195.2,-166.0,1.38,5.51,0.08,0.0,1.0866922287382017,1.4685366866374159,0.09585893988568917,0.28,0,9,0.0
8.538530245000402,549,5002.6,-91.3,0.0,-109.1,-1.11,-0.52,0.03,-0.07,-1.16,-0.12,-218.4,-210.6,-154.0,1.44,5.9,0.03,0.0,1.168289347721702,1.2261321299109653,0.17390693769180565,0.28,0,9,0.0
8.54770898300012,550,5002.61,-91.4,0.0,-109.2,-0.82,-0.95,0.52,-0.07,-1.16,-0.14,-220.6,-222.2,-118.0,1.5,6.16,0.01,0.0,1.1705127081753532,1.358418197757966,0.1726076921825478,0.28,0,9,0.0
8.558747189999849,551,5002.62,-91.5,-0.1,-109.3,-1.04,-1.47,1.0,-0.05,-1.23,-0.13,-222.9,-232.2,-108.0,1.56,6.44,0.31,0.0,1.2378610584391125,2.059732992404598,0.235156921597381,0.28,0,9,0.0
8.56768834400009,552,5002.63,-91.6,-0.3,-109.5,-0.79,-1.86,1.16,-0.02,-1.37,-0.08,-225.3,-244.7,-122.0,1.63,6.79,0.01,0.0,1.3724795080437449,2.330085835328819,0.36237986377797315,0.28,1,10,3.0
8.578553155999543,553,5002.64,-91.6,-0.4,-109.7,0.19,-2.36,0.91,-0.01,-1.45,-0.03,-227.8,-257.4,-127.0,1.7,7.16,-0.08,0.0,1.450344786593864,2.536493642806936,0.43144023948153043,0.28,0,10,3.0
8.587711056999979,554,5002.65,-91.6,-0.5,-109.9,0.26,-2.49,1.15,0.02,-1.46,-0.04,-230.4,-259.0,173.0,1.77,6.05,3.21,3.49,1.460684770920817,2.755031760252502,0.4329446193323139,0.28,0,10,3.0
8.598332757000207,555,5002.66,-91.6,-0.6,-110.2,0.67,-2.07,1.9,0.12,-1.61,0.1,-232.3,-135.0,1055.0,1.8,1.8,3.07,3.49,1.6175598906995685,2.888563656906318,0.5780233443288441,0.28,0,10,3.0
8.607775491999746,556,5002.67,-91.4,-0.8,-110.3,2.3,-1.9,2.47,0.25,-1.77,0.31,-232.7,-5.8,1021.0,1.79,-0.78,3.23,3.49,1.8142491559871263,3.873099533965013,0.7592183574240738,0.28,0,10,3.0
8.618556381000417,557,5002.68,-91.0,-1.1,-110.5,5.41,-2.16,2.66,0.23,-1.62,0.4,-232.3,39.1,470.0,1.78,-1.12,3.54,3.49,1.6844286865284623,6.403850404248994,0.6168099302061016,0.28,0,10,3.0
8.627791429000354,558,5002.69,-90.4,-1.4,-110.8,6.96,-2.82,2.51,0.07,-1.31,0.36,-232.0,33.7,52.0,1.77,-0.61,3.91,3.49,1.360367597379473,7.917960596012081,0.2868938642359702,0.28,0,10,3.0
8.638492950999535,559,5002.7,-89.7,-1.6,-111.1,6.46,-3.44,2.38,-0.14,-1.04,0.37,-231.8,3.9,-172.0,1.77,0.17,3.42,3.49,1.1126994203287788,7.696076922692496,0.038441173441570387,0.28,0,10,3.0
8.647753139999622,560,5002.71,-89.1,-1.8,-111.5,5.52,-4.32,2.08,-0.41,-0.92,0.44,-231.8,-1.7,-28.0,1.77,-0.01,3.52,3.49,1.099136024339117,7.311579856638372,0.02438022190287059,0.28,0,10,3.0
8.658762461999686,561,5002.72,-88.5,-2.0,-112.0,4.67,-5.44,1.62,-0.56,-0.88,0.46,-231.9,-0.5,-17.0,1.78,0.03,3.5,3.49,1.1400000000000001,7.350299313633426,0.06393931361247862,0.28,0,10,3.0
8.667643881000004,562,5002.73,-88.1,-2.1,-112.6,3.87,-6.46,1.16,-0.51,-0.89,0.34,-231.9,-0.9,-2.0,1.78,0.0,3.65,3.49,1.0806479537758815,7.6193241170067045,0.004495522040592892,0.28,0,10,3.0
8.678288408000299,563,5002.74,-87.7,-2.2,-113.3,2.96,-6.73,0.64,-0.32,-0.89,0.2,-231.9,-0.5,-3.0,1.78,0.02,3.42,3.49,0.9666954018717582,7.37997967476876,0.10726788926625974,0.28,0,10,3.0
8.68776742800037,564,5002.75,-87.4,-2.2,-113.9,2.33,-6.52,0.52,-0.12,-0.96,0.17,-231.9,0.3,9.0,1.78,-0.03,3.57,3.49,0.9822932352408826,6.943320531273203,0.08983665477919267,0.28,0,10,3.0
8.698533413000405,565,5002.76,-87.2,-2.2,-114.6,1.94,-5.94,0.42,0.0,-1.13,0.13,-231.9,2.2,13.0,1.77,-0.07,3.4,3.49,1.137453295744489,6.262874739287064,0.06401693760992533,0.28,0,10,3.0
8.707788484000048,566,5002.77,-86.9,-2.2,-115.1,2.06,-5.2,0.08,0.07,-1.17,0.08,-231.8,6.0,45.0,1.77,-0.25,3.32,3.49,1.1748191350161095,5.593746508378799,0.099355121343915,0.28,0,10,3.0
8.718596927000362,567,5002.78,-86.7,-2.1,-115.6,2.28,-4.32,-0.23,0.15,-1.11,0.05,-231.7,18.9,132.0,1.77,-0.77,3.66,3.49,1.1212047092302102,4.8901635964454195,0.044825881646855414,0.28,0,10,3.0
8.727666179000153,568,5002.79,-86.5,-2.1,-116.0,1.98,-3.46,-0.69,0.17,-1.06,0.06,-231.3,48.8,303.0,1.75,-1.94,3.2,3.49,1.0752209075348191,4.045750857381112,0.0011347616475649858,0.28,0,10,3.0
8.738376022999546,569,5002.8,-86.3,-2.0,-116.3,1.51,-2.75,-1.17,0.21,-0.9,0.05,-230.5,96.9,419.0,1.72,-3.18,3.31,3.49,0.925526876973327,3.3483578064478117,0.14781221636487596,0.28,0,10,3.0
8.747813015999782,570,5002.81,-86.2,-1.8,-116.5,0.63,-2.05,-1.5,0.23,-0.83,0.06,-229.2,143.8,454.0,1.68,-4.48,3.22,3.49,0.8633655077659751,2.617135839042368,0.20577411386078326,0.28,0,10,0.0
8.75864079799976,571,5002.82,-86.1,-1.6,-116.7,-0.01,-1.55,-1.84,0.21,-0.81,0.08,-227.4,192.8,468.0,1.63,-5.76,3.47,3.49,0.8405950273467004,2.4058678267934837,0.2239737023944568,0.28,0,10,0.0
8.767696982000416,572,5002.83,-86.2,-1.4,-116.8,-0.39,-1.19,-2.1,0.17,-0.8,0.1,-225.2,223.6,123.0,1.57,-5.46,0.44,0.0,0.8239538822045808,2.445035787059159,0.23580255058584487,0.28,0,10,0.0
8.7784988049998,573,5002.84,-86.2,-1.2,-116.9,-1.0,-0.87,-2.32,0.1,-0.86,0.11,-223.5,130.6,-679.0,1.54,-2.26,0.3,0.0,0.8727542609463445,2.671946855758924,0.18326212840719946,0.28,0,10,0.0
8.787832793999769,574,5002.85,-86.3,-0.9,-116.9,-1.22,-0.84,-2.52,0.0,-0.9,0.17,-222.8,55.6,-584.0,1.52,-0.98,-0.09,0.0,0.9159148432032315,2.9230805667993485,0.1372995152273061,0.28,0,10,0.0
8.798452592999638,575,5002.86,-86.4,-0.7,-117.0,-0.98,-1.15,-2.57,-0.01,-0.88,0.19,-222.5,20.7,-363.0,1.52,-0.36,0.2,0.0,0.9003332716277901,2.9812413521887153,0.14982346506669253,0.28,0,10,0.0
8.807691058999808,576,5002.87,-86.4,-0.4,-117.2,-0.47,-1.6,-2.43,0.0,-0.85,0.16,-222.4,10.2,-150.0,1.52,-0.28,-0.3,0.0,0.8649277426467484,2.9471681322924215,0.18152441416677945,0.28,0,10,0.0
8.81851885099968,577,5002.88,-86.4,-0.2,-117.3,-0.16,-1.92,-2.21,0.02,-0.82,0.14,-222.2,13.5,-15.0,1.51,-0.44,0.07,0.0,0.8321057625085887,2.9319106398388066,0.21005946641884032,0.28,0,10,0.0
8.827729495999847,578,5002.89,-86.3,0.0,-117.5,-0.01,-2.08,-1.93,0.03,-0.79,0.11,-222.0,26.1,102.0,1.5,-0.93,-0.03,0.0,0.7981854421122951,2.8374988986782004,0.2391001910788313,0.28,0,10,0.0
8.83868552399963,579,5002.9,-86.3,0.2,-117.7,0.09,-2.18,-1.61,0.05,-0.79,0.09,-221.6,45.5,171.0,1.49,-1.48,0.07,0.0,0.7966806135459805,2.7115678121706637,0.235792919252243,0.28,0,10,0.0
8.847734334999586,580,5002.91,-86.2,0.4,-117.9,0.18,-2.1,-1.25,0.08,-0.8,0.06,-221.0,66.9,201.0,1.47,-2.12,-0.22,0.0,0.806225774829855,2.4504897469689606,0.22172280280900114,0.28,0,10,0.0
8.858741893000115,581,5002.92,-86.2,0.6,-118.1,0.58,-1.9,-0.98,0.11,-0.82,0.05,-220.2,90.6,229.0,1.45,-2.76,-0.09,0.0,0.8288546314040839,2.2151297930369678,0.1951120673100768,0.28,0,10,0.0
8.867407779999667,582,5002.93,-86.1,0.7,-118.3,0.94,-1.63,-0.72,0.15,-0.82,0.03,-219.1,118.4,270.0,1.41,-3.57,-0.04,0.0,0.8341462701469089,2.014671189052943,0.18602401999590668,0.28,0,10,0.0
8.878159005999805,583,5002.94,-86.0,0.8,-118.4,0.99,-1.3,-0.52,0.17,-0.82,0.01,-217.7,144.1,250.0,1.37,-4.18,-0.05,0.0,0.8374962686484041,1.7147886167105262,0.17902054106452325,0.28,0,10,0.0
8.886970057000326,584,5002.95,-85.9,0.8,-118.5,0.72,-0.88,-0.35,0.19,-0.82,0.0,-216.1,168.2,246.0,1.32,-4.88,0.16,0.0,0.8417244204607586,1.1896638180595391,0.17129654146712547,0.28,0,10,0.0
8.898473461000322,585,5002.96,-85.9,0.9,-118.6,0.34,-0.5,-0.19,0.18,-0.83,0.0,-214.2,191.6,240.0,1.27,-5.52,-0.11,0.0,0.8492938243034621,0.633798075099633,0.16045259487193342,0.28,0,10,0.0
8.907679824999832,586,5002.97,-85.9,0.9,-118.6,0.01,-0.17,-0.02,0.17,-0.83,0.0,-212.1,215.2,245.0,1.21,-6.17,-0.13,0.0,0.8472307831990054,0.17146428199482247,0.15926532325686238,0.28,0,10,0.0
8.919677416999548,587,5002.98,-85.9,0.9,-118.6,-0.17,0.04,0.12,0.14,-0.84,-0.02,-209.8,241.7,255.0,1.15,-6.86,0.0,0.0,0.851821577561874,0.21189620100417092,0.1515810383161138,0.28,0,10,0.0
8.927469471999757,588,5002.99,-85.9,0.8,-118.6,-0.25,0.19,0.28,0.11,-0.83,-0.05,-207.3,267.4,240.0,1.08,-7.49,-0.06,0.0,0.8387490685538792,0.4207136793592526,0.1613604763776264,0.28,0,10,0.0
8.939609926999765,589,5003.0,-85.9,0.8,-118.6,-0.24,0.28,0.41,0.07,-0.85,-0.07,-204.4,288.3,225.0,0.99,-8.13,-0.06,0.0,0.8557452892070163,0.5514526271584894,0.14147697060999953,0.28,0,10,0.0
8.947629596000297,590,5003.01,-85.9,0.8,-118.6,-0.21,0.3,0.42,0.04,-0.87,-0.06,-202.0,308.3,338.0,0.9,-8.94,-0.07,0.0,0.8729833904490968,0.5572252686302013,0.12175409198056064,0.28,0,10,0.0
8.958539217999714,591,5003.02,-86.0,0.7,-118.5,-0.38,0.28,0.51,0.02,-0.88,-0.07,-198.0,342.7,289.0,0.81,-9.6,-0.1,0.0,0.8830062287436029,0.6949100661236676,0.10949662861233345,0.28,0,10,0.0
8.967596542000138,592,5003.03,-86.0,0.7,-118.5,-0.41,0.23,0.58,0.03,-0.91,-0.09,-194.4,364.0,233.0,0.71,-10.14,0.06,0.0,0.9149316914393119,0.7465922581972035,0.07601974259829203,0.28,0,10,0.0
8.978538960999686,593,5003.04,-86.1,0.6,-118.5,-0.31,0.31,0.55,0.04,-0.95,-0.1,-190.6,386.2,236.0,0.6,-10.81,-0.03,0.0,0.9560857702110204,0.7033491309442275,0.03416835055005185,0.28,0,10,0.0
8.987472296000306,594,5003.05,-86.1,0.5,-118.5,-0.12,0.4,0.57,0.06,-0.94,-0.1,-186.5,409.9,226.0,0.49,-11.42,-0.08,0.0,0.9472064188971694,0.7066116330771804,0.04218674782662479,0.28,0,10,0.0
8.998431099999834,595,5003.06,-86.1,0.5,-118.4,0.01,0.55,0.71,0.08,-0.92,-0.11,-182.2,436.7,270.0,0.37,-12.22,-0.09,0.0,0.93,0.8981647955692763,0.058205303389318286,0.28,0,10,0.0
9.007579557999634,596,5003.07,-86.1,0.4,-118.4,0.07,0.72,0.82,0.11,-0.89,-0.12,-177.8,456.2,168.0,0.25,-12.51,0.0,0.0,0.9047651629014017,1.0934806811279292,0.08177133767815825,0.28,0,10,0.0
9.01868339900011,597,5003.08,-86.1,0.3,-118.3,-0.01,0.98,0.93,0.11,-0.87,-0.13,-173.0,470.7,193.0,0.12,-13.08,-0.09,0.0,0.8865100112237876,1.3510736471414133,0.098025959568657,0.28,0,10,0.0
9.027590802000304,598,5003.09,-86.1,0.2,-118.2,-0.3,1.21,0.97,0.12,-0.88,-0.13,-168.7,487.0,146.0,0.0,-13.33,-0.07,0.0,0.8976079322287654,1.5795568998931315,0.0851894777924056,0.28,0,10,0.0
9.038666262999868,599,5003.1,-86.1,0.1,-118.1,-0.6,1.45,0.91,0.14,-0.86,-0.13,-163.3,506.7,214.0,-0.14,-14.08,0.11,0.0,0.8809653795694811,1.8140011025354974,0.09979538984265623,0.28,0,10,0.0
9.047537069999635,600,5003.11,-86.2,0.0,-117.9,-0.92,1.67,0.84,0.16,-0.87,-0.13,-158.1,516.8,51.0,-0.28,-13.92,0.13,0.0,0.8940917178902844,2.0834826613149433,0.08493567049141582,0.28,0,10,0.0
9.05876686800002,601,5003.12,-86.3,0.0,-117.7,-1.05,1.92,0.84,0.19,-0.84,-0.16,-153.0,501.6,-125.0,-0.42,-13.25,0.22,0.0,0.875956619930462,2.3440349826741067,0.10100935308221348,0.28,0,10,0.0
9.067637520000062,602,5003.13,-86.4,-0.1,-117.5,-1.23,2.19,0.88,0.21,-0.81,-0.17,-148.4,454.8,-443.0,-0.53,-11.63,0.32,0.0,0.8538735269347564,2.661465761568238,0.12063059715636071,0.28,0,10,0.0
9.078565904000243,603,5003.14,-86.6,-0.2,-117.3,-1.34,2.57,1.04,0.21,-0.8,-0.2,-144.3,367.2,-813.0,-0.64,-8.61,0.45,0.0,0.8509406559801924,3.0793018689306835,0.12109219874870614,0.28,0,10,0.0
9.087602622999839,604,5003.15,-86.7,-0.3,-117.0,-2.06,2.97,1.0,0.08,-0.88,-0.22,-141.4,254.6,-1013.0,-0.7,-5.61,0.55,0.0,0.9106041950265769,3.75026665718586,0.06020008650827524,0.28,0,10,0.0
9.098528978000104,605,5003.16,-87.0,-0.4,-116.7,-3.05,3.29,0.74,-0.07,-0.92,-0.2,-139.6,153.2,-984.0,-0.74,-3.0,0.28,0.0,0.9440868604106298,4.5468890463700555,0.02618307270173781,0.28,0,10,0.0
9.107588625000062,606,5003.17,-87.3,-0.5,-116.4,-3.45,3.04,0.57,-0.15,-0.89,-0.13,-138.7,65.1,-878.0,-0.75,-0.8,0.17,0.0,0.9118662182579197,4.633465225940516,0.05723564055735897,0.28,0,10,0.0
9.11852705399997,607,5003.18,-87.7,-0.6,-116.1,-3.08,2.5,0.73,-0.13,-0.83,-0.15,-138.5,-5.3,-685.0,-0.75,0.72,0.19,0.0,0.8534049449118513,4.033522034153278,0.11338297562535882,0.28,0,10,0.0
9.127623307999784,608,5003.19,-87.9,-0.7,-115.9,-2.64,2.15,1.2,-0.05,-0.75,-0.22,-138.9,-43.7,-444.0,-0.74,1.55,0.1,0.0,0.7831985699680509,3.61,0.179917563557776,0.28,0,10,0.0
9.138734101999944,609,5003.2,-88.2,-0.9,-115.7,-2.64,2.14,1.79,0.03,-0.75,-0.3,-139.5,-76.1,-388.0,-0.71,2.54,0.1,0.0,0.8083316151184488,3.841002473313445,0.15168882803923056,0.28,0,10,0.0
9.147538563000126,610,5003.21,-88.5,-1.1,-115.5,-3.07,2.38,2.17,0.05,-0.83,-0.32,-140.4,-109.4,-358.0,-0.68,3.44,0.31,0.0,0.8909545442950498,4.449516827701633,0.06768458088537688,0.28,0,10,0.0
9.15876481899977,611,5003.22,-88.8,-1.3,-115.2,-3.58,2.63,2.15,0.1,-0.95,-0.26,-141.9,-155.9,-487.0,-0.64,5.02,0.34,0.0,0.99,4.935159571888228,0.030733657323181784,0.28,0,10,0.0
9.167650483000216,612,5003.23,-89.2,-1.5,-114.9,-3.86,3.15,2.11,0.14,-1.09,-0.29,-144.0,-223.9,-616.0,-0.57,6.89,0.53,0.0,1.1365737987477982,5.410563741422885,0.17376130694956038,0.28,0,10,0.0
9.178411744999721,613,5003.24,-89.7,-1.7,-114.6,-4.73,3.39,1.38,-0.07,-1.43,-0.21,-146.6,-279.1,-511.0,-0.5,8.08,0.34,0.0,1.44703144402601,5.98075246102027,0.4745345731832167,0.28,1,11,3.0
9.187630067999635,614,5003.25,-90.2,-1.8,-114.2,-4.88,3.65,0.3,-0.13,-1.5,-0.11,-149.7,-318.1,-427.0,-0.41,9.12,0.02,0.0,1.5096357176484663,6.101385088649954,0.5263960698695596,0.28,0,11,3.0
9.198609938999653,615,5003.26,-90.7,-1.8,-113.9,-4.58,3.45,-0.68,-0.16,-1.54,0.03,-153.1,-340.6,-19.0,-0.32,8.39,2.8,3.49,1.5485799947048262,5.7741925842493345,0.5540335399874011,0.28,0,11,3.0
9.207618995000303,616,5003.27,-91.1,-1.7,-113.6,-4.01,2.88,-1.54,-0.21,-1.51,0.09,-155.8,-222.0,982.0,-0.26,4.11,2.73,3.49,1.5271869564660379,5.1716631754204565,0.5219876917136406,0.28,0,11,3.0
9.21968493500026,617,5003.28,-91.5,-1.5,-113.3,-3.7,2.73,-2.24,-0.14,-1.53,0.09,-156.9,-72.8,1255.0,-0.25,0.34,3.21,3.49,1.5390256658028807,5.114733619652152,0.5231498730294737,0.28,0,11,3.0
9.227687751000303,618,5003.29,-91.9,-1.2,-113.0,-3.66,2.63,-3.09,-0.05,-1.71,0.18,-156.9,29.4,844.0,-0.26,-1.17,3.35,3.49,1.7201744097619869,5.464485337156647,0.6902126446488084,0.28,0,11,3.0
9.239512623000337,619,5003.3,-92.3,-0.8,-112.8,-4.04,2.51,-4.34,-0.17,-1.95,0.22,-156.5,37.4,235.0,-0.27,-0.86,3.64,3.49,1.9697207923967295,6.438734347680451,0.92096384673788,0.28,0,11,3.0
9.24742558700018,620,5003.31,-92.6,-0.3,-112.6,-3.15,2.03,-5.23,-0.31,-1.9,0.29,-156.2,23.9,-6.0,-0.27,-0.48,3.53,3.49,1.946843599265231,6.433995648117894,0.8801249205342541,0.28,0,11,3.0
9.258626034999907,621,5003.32,-92.8,0.1,-112.4,0.09,1.42,-4.79,-0.17,-1.49,0.24,-156.1,6.7,-122.0,-0.28,0.03,3.48,3.49,1.5187494855966206,4.99685901342033,0.4429901907283307,0.28,0,11,3.0
9.267663347999587,622,5003.33,-92.6,0.5,-112.3,2.21,1.63,-2.94,0.13,-1.01,0.15,-156.1,-0.5,-48.0,-0.28,0.0,3.4,3.49,1.0293201639917484,4.023008824250824,0.04551034825901068,0.28,0,11,3.0
9.27863885700026,623,5003.34,-92.4,0.7,-112.1,2.86,2.23,-1.35,0.43,-0.85,0.07,-156.1,-0.3,-23.0,-0.28,0.03,3.42,3.49,0.9551439682058406,3.8697545141778695,0.11729281316402018,0.28,0,11,3.0
9.287660770000002,624,5003.35,-92.1,0.8,-111.9,2.4,3.21,-0.48,0.53,-0.83,-0.03,-156.1,-3.1,-30.0,-0.27,0.12,3.45,3.49,0.9852410872471773,4.036644646237764,0.0854517802402297,0.28,0,11,3.0
9.298693106999963,625,5003.36,-91.9,0.8,-111.5,1.24,4.69,0.0,0.48,-0.82,0.05,-156.1,-5.9,-21.0,-0.27,0.16,3.54,3.49,0.9514725429564428,4.851154501765533,0.11683591804034488,0.28,0,11,3.0
9.307671958000356,626,5003.37,-91.8,0.8,-110.9,0.92,5.71,0.23,0.39,-0.97,0.16,-156.2,-6.7,-14.0,-0.27,0.2,3.58,3.49,1.057638879769461,5.7882121592077125,0.010456189602780164,0.28,0,11,3.0
9.318616571999883,627,5003.38,-91.7,0.8,-110.3,0.94,6.36,0.16,0.26,-1.08,0.17,-156.3,-10.4,-38.0,-0.27,0.35,3.51,3.49,1.1237882362794158,6.431080780086657,0.05457930356903118,0.28,0,11,3.0
9.327734086999953,628,5003.39,-91.6,0.9,-109.7,1.64,6.28,-0.24,0.08,-1.11,0.23,-156.4,-16.3,-43.0,-0.26,0.48,3.67,3.49,1.1363978176677392,6.495044264668255,0.06584510725820736,0.28,0,11,3.0
9.338522643000033,629,5003.4,-91.4,0.9,-109.1,2.46,5.83,-0.5,-0.05,-1.04,0.23,-156.7,-24.8,-90.0,-0.26,0.83,3.48,3.49,1.066302021005306,6.347479814855657,0.004165675616141229,0.28,0,11,3.0
9.347670846000256,630,5003.41,-91.1,1.0,-108.5,2.3,5.31,-0.44,-0.17,-0.96,0.19,-157.0,-34.2,-50.0,-0.25,0.88,3.63,3.49,0.9932774033471213,5.803421404654326,0.0756464874088395,0.28,0,11,3.0
9.358638648000124,631,5003.42,-90.9,1.0,-108.0,1.75,4.64,-0.04,-0.24,-0.92,0.17,-157.3,-27.7,46.0,-0.24,0.61,3.56,3.49,0.9658674857349739,4.9592035650898625,0.1009952769205672,0.28,0,11,0.0
