host_time_s,seq,device_time_s,roll,pitch,yaw,gyro_x,gyro_y,gyro_z,accel_x,accel_y,accel_z,belt_length,belt_velocity,belt_acceleration,motor_pos,motor_vel,motor_iq_meas,motor_iq_set,acc_mag,gyro_mag,gyro_corrected,gyro_side_score,gyro_side_separation,step_period_s,acc_residual,threshold,gyro_threshold,belt_threshold,belt_ok,calibrated,imu_side,imu_heel_strike,heel_strike,hs_count,left_hs_count,right_hs_count,torque_cmd_nm
0.004939879000062319,2,179.82,95.8,6.0,20.0,0.05,0.04,0.04,0.08,0.98,-0.1,-128.3,0.0,1.0,-1.03,0.0,0.04,0.0,0.9883319280484669,0.0754983443527075,0.0,0.0,2.0,0.6,0.0,0.2,1.0,-160.0,0,0,calibrating,0,0,0,0,0,0.0
0.020161491000067144,4,179.84,95.8,6.0,20.0,0.06,-0.05,0.06,0.09,0.98,-0.1,-128.3,0.1,0.0,-1.03,0.0,0.04,0.0,0.9891915891272024,0.09848857801796104,0.0,0.0,2.0,0.6,0.0008424678571608002,0.2,1.0,-160.0,0,0,calibrating,0,0,0,0,0,0.0
0.03155733100004454,5,179.85,95.9,6.0,20.0,0.07,-0.09,0.09,0.09,0.99,-0.11,-128.3,-0.2,3.0,-1.03,-0.01,-0.04,0.0,1.0001499887516871,0.1452583904633395,0.0,0.0,2.0,0.6,0.011564850132012694,0.2,1.0,-160.0,0,0,calibrating,0,0,0,0,0,0.0
0.03995384799998192,6,179.86,95.9,6.0,20.0,0.06,-0.12,0.09,0.09,0.99,-0.11,-128.3,0.0,-1.0,-1.03,0.0,0.03,0.0,1.0001499887516871,0.16155494421403513,0.0,0.0,2.0,0.6,0.011333553129372453,0.2,1.0,-160.0,0,0,calibrating,0,0,0,0,0,0.0
0.051664891000086755,7,179.87,95.9,6.0,20.1,0.05,-0.14,0.07,0.09,0.99,-0.11,-128.3,0.1,-2.0,-1.03,0.01,0.03,0.0,1.0001499887516871,0.16431676725154984,0.0,0.0,2.0,0.6,0.011106882066785007,0.2,1.0,-160.0,0,0,calibrating,0,0,0,0,0,0.0
0.06012408200001573,8,179.88,95.9,6.0,20.1,0.0,-0.14,0.06,0.09,0.99,-0.11,-128.3,-0.1,1.0,-1.03,0.0,0.03,0.0,1.0001499887516871,0.15231546211727817,0.0,0.0,2.0,0.6,0.010884744425449289,0.2,1.0,-160.0,0,0,calibrating,0,0,0,0,0,0.0
0.07181982800000242,9,179.89,95.9,6.0,20.1,-0.04,-0.16,0.05,0.09,0.99,-0.11,-128.3,-0.1,-1.0,-1.03,0.0,-0.12,0.0,1.0001499887516871,0.17233687939614087,0.0,0.0,2.0,0.6,0.01066704953694031,0.2,1.0,-160.0,0,0,calibrating,0,0,0,0,0,0.0
0.08001291599998694,10,179.9,95.9,6.0,20.1,-0.06,-0.18,0.04,0.09,0.98,-0.1,-128.3,0.0,1.0,-1.03,0.0,-0.04,0.0,0.9891915891272024,0.19390719429665315,0.0,0.0,2.0,0.6,0.0002855230857935487,0.2,1.0,-160.0,0,0,calibrating,0,0,0,0,0,0.0
0.09163626500003375,11,179.91,95.9,6.0,20.1,-0.06,-0.19,0.03,0.09,0.98,-0.1,-128.3,0.1,3.0,-1.03,-0.02,0.03,0.0,0.9891915891272024,0.20149441679609884,0.0,0.0,2.0,0.6,0.00027981262407772434,0.2,1.0,-160.0,0,0,calibrating,0,0,0,0,0,0.0
0.09985466199998427,12,179.92,95.9,6.0,20.2,-0.05,-0.22,0.03,0.08,0.98,-0.1,-128.3,0.0,-1.0,-1.03,0.0,0.03,0.0,0.9883319280484669,0.22759613353482083,0.0,0.0,2.0,0.6,0.0011166842287568812,0.2,1.0,-160.0,0,0,calibrating,0,0,0,0,0,0.0
0.11166832399999294,13,179.93,95.9,5.9,20.2,-0.04,-0.25,0.03,0.09,0.98,-0.1,-128.3,0.0,-2.0,-1.03,0.0,0.03,0.0,0.9891915891272024,0.25495097567963926,0.0,0.0,2.0,0.6,0.0002518826870210322,0.2,1.0,-160.0,0,0,calibrating,0,0,0,0,0,0.0
0.12010613100005685,14,179.94,95.9,5.9,20.2,-0.06,-0.27,0.03,0.09,0.98,-0.1,-128.3,0.0,-1.0,-1.03,0.01,0.03,0.0,0.9891915891272024,0.2782085548648711,0.0,0.0,2.0,0.6,0.00024684503328065155,0.2,1.0,-160.0,0,0,calibrating,0,0,0,0,0,0.0
0.1319271250000611,15,179.95,95.9,5.9,20.2,-0.08,-0.3,0.03,0.09,0.98,-0.1,-128.3,-0.1,0.0,-1.03,0.0,-0.04,0.0,0.9891915891272024,0.3119294792096444,0.0,0.0,2.0,0.6,0.00024190813261504296,0.2,1.0,-160.0,0,0,calibrating,0,0,0,0,0,0.0
0.14011904500000583,16,179.96,95.9,5.9,20.3,-0.08,-0.31,0.03,0.09,0.98,-0.1,-128.3,0.0,1.0,-1.03,0.0,-0.04,0.0,0.9891915891272024,0.32155870381627055,0.0,0.0,2.0,0.6,0.00023706996996275542,0.2,1.0,-160.0,0,0,calibrating,0,0,0,0,0,0.0
0.15157477399998243,17,179.97,95.9,5.9,20.3,-0.08,-0.33,0.03,0.09,0.98,-0.1,-128.3,0.0,0.0,-1.03,0.0,-0.04,0.0,0.9891915891272024,0.34088121098118623,0.0,0.0,2.0,0.6,0.00023232857056354472,0.2,1.0,-160.0,0,0,calibrating,0,0,0,0,0,0.0
0.16015667500005293,18,179.98,95.9,5.9,20.3,-0.07,-0.34,0.03,0.09,0.98,-0.1,-128.3,-0.1,-2.0,-1.03,0.0,0.03,0.0,0.9891915891272024,0.34842502780368695,0.0,0.0,2.0,0.6,0.00022768199915224052,0.2,1.0,-160.0,0,0,calibrating,0,0,0,0,0,0.0
0.17168526600005407,19,179.99,95.9,5.9,20.4,-0.08,-0.34,0.03,0.1,0.98,-0.1,-128.3,0.0,0.0,-1.03,0.0,0.03,0.0,0.990151503558925,0.3505709628591621,0.0,0.0,2.0,0.6,0.0007175877839189493,0.2,1.0,-160.0,0,0,calibrating,0,0,0,0,0,0.0
0.18011183400005848,20,180.0,95.9,5.9,20.4,-0.08,-0.34,0.03,0.1,0.98,-0.11,-128.3,0.0,2.0,-1.03,-0.01,-0.12,0.0,0.9912113800799505,0.3505709628591621,0.0,0.0,2.0,0.6,0.0017419150188455745,0.2,1.0,-160.0,0,0,calibrating,0,0,0,0,0,0.0
0.1914034270000684,21,180.01,95.9,5.9,20.4,-0.08,-0.33,0.02,0.1,0.98,-0.11,-128.3,-0.1,0.0,-1.03,0.0,-0.04,0.0,0.9912113800799505,0.340147027033899,0.0,0.0,2.0,0.6,0.001707076718468703,0.2,1.0,-160.0,0,0,calibrating,0,0,0,0,0,0.0
0.20007839000004424,22,180.02,95.9,5.9,20.5,-0.1,-0.32,0.03,0.1,0.98,-0.11,-128.3,0.0,-1.0,-1.03,0.0,-0.04,0.0,0.9912113800799505,0.33660065359413666,0.0,0.0,2.0,0.6,0.0016729351840992779,0.2,1.0,-160.0,0,0,calibrating,0,0,0,0,0,0.0
0.21148515700008375,23,180.03,95.9,5.9,20.5,-0.11,-0.28,0.03,0.1,0.98,-0.1,-128.3,0.0,0.0,-1.03,0.0,0.03,0.0,0.990151503558925,0.3023243291566195,0.0,0.0,2.0,0.6,0.0006007974898123436,0.2,1.0,-160.0,0,0,calibrating,0,0,0,0,0,0.0
0.22006928600001174,24,180.04,95.9,5.9,20.5,-0.12,-0.27,0.03,0.1,0.98,-0.1,-128.3,0.0,0.0,-1.03,0.0,-0.04,0.0,0.990151503558925,0.29698484809834996,0.0,0.0,2.0,0.6,0.0005887815400160701,0.2,1.0,-160.0,0,0,calibrating,0,0,0,0,0,0.0
0.23152516000004653,25,180.05,95.9,5.9,20.6,-0.11,-0.26,0.03,0.1,0.98,-0.1,-128.3,0.0,-3.0,-1.03,0.02,0.02,0.0,0.990151503558925,0.28390139133156783,0.0,0.0,2.0,0.6,0.000577005909215722,0.2,1.0,-160.0,0,0,calibrating,0,0,0,0,0,0.0
0.2401061740000614,26,180.06,95.8,5.9,20.6,-0.09,-0.25,0.05,0.1,0.98,-0.1,-128.3,-0.1,2.0,-1.03,-0.01,0.11,0.0,0.990151503558925,0.27037011669191546,0.0,0.0,2.0,0.6,0.0005654657910314498,0.2,1.0,-160.0,0,0,calibrating,0,0,0,0,0,0.0
0.25179101000003357,27,180.07,95.8,5.9,20.6,-0.07,-0.25,0.07,0.1,0.98,-0.1,-128.3,0.0,-1.0,-1.03,0.0,0.11,0.0,0.990151503558925,0.26888659319497504,0.0,0.0,2.0,0.6,0.000554156475210843,0.2,1.0,-160.0,0,0,calibrating,0,0,0,0,0,0.0
0.26005442900009257,28,180.08,95.8,5.9,20.6,-0.04,-0.24,0.06,0.1,0.97,-0.1,-128.3,0.0,1.0,-1.03,0.0,-0.05,0.0,0.9802550688468793,0.25059928172283336,0.0,0.0,2.0,0.6,0.009155432672098174,0.2,1.0,-160.0,0,0,calibrating,0,0,0,0,0,0.0
0.27143912700000783,29,180.09,95.8,5.9,20.7,0.0,-0.22,0.06,0.1,0.97,-0.1,-128.3,0.0,0.0,-1.03,0.0,0.03,0.0,0.9802550688468793,0.22803508501982758,0.0,0.0,2.0,0.6,0.00897232401865622,0.2,1.0,-160.0,0,0,calibrating,0,0,0,0,0,0.0
0.28009901900009027,30,180.1,95.8,5.9,20.7,0.01,-0.17,0.07,0.11,0.98,-0.11,-128.3,0.0,1.0,-1.03,0.0,0.03,0.0,0.9922701245124737,0.1841195263952197,0.0,0.0,2.0,0.6,0.0029818770139993234,0.2,1.0,-160.0,0,0,calibrating,0,0,0,0,0,0.0
0.2914907240000275,31,180.11,95.9,6.0,20.7,0.0,-0.11,0.06,0.11,0.98,-0.11,-128.3,0.0,0.0,-1.03,0.0,0.02,0.0,0.9922701245124737,0.12529964086141668,0.0,0.0,2.0,0.6,0.00292223947371939,0.2,1.0,-160.0,0,0,calibrating,0,0,0,0,0,0.0
0.30006939300005797,32,180.12,95.9,6.0,20.7,-0.03,-0.03,0.04,0.11,0.98,-0.12,-128.3,0.0,3.0,-1.03,0.0,0.03,0.0,0.9934284070832683,0.05830951894845301,0.0,0.0,2.0,0.6,0.003998911603623756,0.2,1.0,-160.0,0,0,calibrating,0,0,0,0,0,0.0
0.3115924310000082,33,180.13,95.9,6.0,20.7,-0.09,0.03,0.03,0.11,0.98,-0.12,-128.3,-0.2,0.0,-1.03,0.0,0.11,0.0,0.9934284070832683,0.09949874371066199,0.0,0.0,2.0,0.6,0.0039189333715512475,0.2,1.0,-160.0,0,0,calibrating,0,0,0,0,0,0.0
0.32007613000007495,34,180.14,95.9,6.0,20.7,-0.09,0.06,0.02,0.11,0.97,-0.12,-128.3,0.0,-1.0,-1.03,0.0,-0.2,0.0,0.9835649444749441,0.10999999999999999,0.0,0.0,2.0,0.6,0.005825638652037446,0.2,1.0,-160.0,0,0,calibrating,0,0,0,0,0,0.0
0.3316751940000131,35,180.15,95.9,6.0,20.7,-0.06,0.1,0.03,0.11,0.97,-0.11,-128.3,0.0,1.0,-1.03,0.0,-0.05,0.0,0.9823950325607311,0.12041594578792296,0.0,0.0,2.0,0.6,0.006855639554925408,0.2,1.0,-160.0,0,0,calibrating,0,0,0,0,0,0.0
0.34001140200007285,36,180.16,95.9,6.0,20.7,-0.03,0.13,0.03,0.11,0.98,-0.11,-128.3,0.0,0.0,-1.03,0.0,0.02,0.0,0.9922701245124737,0.13674794331177345,0.0,0.0,2.0,0.6,0.0029590633488807416,0.2,1.0,-160.0,0,0,calibrating,0,0,0,0,0,0.0
0.3516906209999888,37,180.17,95.9,6.0,20.7,-0.03,0.16,0.02,0.11,0.98,-0.11,-128.3,0.0,0.0,-1.03,0.0,0.03,0.0,0.9922701245124737,0.16401219466856726,0.0,0.0,2.0,0.6,0.002899882081903171,0.2,1.0,-160.0,0,0,calibrating,0,0,0,0,0,0.0
0.3600333460000229,38,180.18,95.9,6.0,20.7,-0.05,0.19,0.0,0.11,0.98,-0.1,-128.3,0.0,1.0,-1.03,0.0,0.02,0.0,0.9912113800799505,0.19646882704388502,0.0,0.0,2.0,0.6,0.0018043148963924338,0.2,1.0,-160.0,0,0,calibrating,0,0,0,0,0,0.0
0.37148471000000427,39,180.19,95.9,6.0,20.6,-0.05,0.24,-0.03,0.1,0.99,-0.1,-128.3,0.0,-4.0,-1.03,0.01,-0.05,0.0,1.0000499987500624,0.2469817807045694,0.0,0.0,2.0,0.6,0.010430074895174224,0.2,1.0,-160.0,0,0,calibrating,0,0,0,0,0,0.0
0.380068986000083,40,180.2,95.9,6.0,20.6,-0.06,0.26,-0.03,0.1,0.99,-0.1,-128.3,0.0,2.0,-1.03,0.0,0.1,0.0,1.0000499987500624,0.26851443164195105,0.0,0.0,2.0,0.6,0.010221473397270753,0.2,1.0,-160.0,0,0,calibrating,0,0,0,0,0,0.0
0.3914428750000525,41,180.21,95.9,6.0,20.6,-0.07,0.27,-0.03,0.09,0.99,-0.1,-128.3,0.0,2.0,-1.03,-0.01,0.02,0.0,0.9990995946350895,0.28053520278211075,0.0,0.0,2.0,0.6,0.009085647896651894,0.2,1.0,-160.0,0,0,calibrating,0,0,0,0,0,0.0
0.4000695590000305,42,180.22,95.8,6.0,20.6,-0.1,0.29,-0.01,0.09,1.0,-0.1,-128.3,0.0,-1.0,-1.03,0.0,0.01,0.0,1.0090094152187083,0.3069201850644561,0.0,0.0,2.0,0.6,0.01861555911066537,0.2,1.0,-160.0,0,0,calibrating,0,0,0,0,0,0.0
0.4114215570000397,43,180.23,95.8,6.0,20.5,-0.11,0.34,0.02,0.09,1.01,-0.09,-128.3,0.1,-4.0,-1.03,0.02,0.02,0.0,1.017988212112498,0.3579106033634657,0.0,0.0,2.0,0.6,0.02704246888436579,0.2,1.0,-160.0,0,0,calibrating,0,0,0,0,0,0.0
0.41992594500004543,44,180.24,95.8,6.0,20.5,-0.14,0.38,0.08,0.09,1.02,-0.08,-128.3,0.0,1.0,-1.03,0.0,-0.05,0.0,1.0270832488167645,0.4127953488110059,0.0,0.0,2.0,0.6,0.03541475547685968,0.2,1.0,-160.0,0,0,calibrating,0,0,0,0,0,0.0
0.4315760819999923,45,180.25,95.8,6.0,20.4,-0.19,0.39,0.17,0.09,1.03,-0.08,-128.3,-0.1,-1.0,-1.03,0.0,-0.05,0.0,1.0370149468546728,0.4659399102888698,0.0,0.0,2.0,0.6,0.04443952444447263,0.2,1.0,-160.0,0,0,calibrating,0,0,0,0,0,0.0
0.4398988320000399,46,180.26,95.7,6.0,20.4,-0.23,0.39,0.22,0.09,1.02,-0.08,-128.3,0.1,3.0,-1.03,-0.02,0.09,0.0,1.0270832488167645,0.5033885179461288,0.0,0.0,2.0,0.6,0.03381766987843304,0.2,1.0,-160.0,0,0,calibrating,0,0,0,0,0,0.0
0.4516681160000644,47,180.27,95.7,6.0,20.4,-0.31,0.38,0.27,0.09,1.01,-0.07,-128.3,0.0,-1.0,-1.03,0.0,0.02,0.0,1.0164152694642086,0.5598214000911362,0.0,0.0,2.0,0.6,0.02268669671535961,0.2,1.0,-160.0,0,0,calibrating,0,0,0,0,0,0.0
0.46010429900002237,48,180.28,95.6,6.1,20.3,-0.37,0.37,0.27,0.1,0.99,-0.07,-128.3,0.0,1.0,-1.03,0.0,0.01,0.0,0.9974968671630001,0.5888123640006212,0.0,0.0,2.0,0.6,0.003692928525868111,0.2,1.0,-160.0,0,0,calibrating,0,0,0,0,0,0.0
0.4714634260000139,49,180.29,95.6,6.1,20.3,-0.38,0.36,0.25,0.1,0.98,-0.07,-128.3,0.0,1.0,-1.03,0.0,-0.06,0.0,0.9875727821279806,0.5800862004909271,0.0,0.0,2.0,0.6,0.006106533378968382,0.2,1.0,-160.0,0,0,calibrating,0,0,0,0,0,0.0
0.47992948700004945,50,180.3,95.5,6.1,20.3,-0.35,0.32,0.23,0.11,0.97,-0.07,-128.3,0.0,-2.0,-1.03,0.01,0.09,0.0,0.9787236586493656,0.5270673581241775,0.0,0.0,2.0,0.6,0.01465654372043168,0.2,1.0,-160.0,0,0,calibrating,0,0,0,0,0,0.0
0.49174683000001096,51,180.31,95.5,6.2,20.2,-0.31,0.27,0.2,0.1,0.97,-0.08,-128.3,0.0,1.0,-1.03,0.0,-0.06,0.0,0.978417088975862,0.4571651780264984,0.0,0.0,2.0,0.6,0.014663851126056615,0.2,1.0,-160.0,0,0,calibrating,0,0,0,0,0,0.0
0.5000462790000029,52,180.32,95.4,6.2,20.2,-0.26,0.25,0.18,0.1,0.96,-0.09,-128.3,0.0,1.0,-1.03,0.0,0.09,0.0,0.9693812459502195,0.40311288741492746,0.0,0.0,2.0,0.6,0.023225700268665217,0.2,1.0,-160.0,0,0,calibrating,0,0,0,0,0,0.0
0.5114360480000641,53,180.33,95.4,6.2,20.2,-0.22,0.27,0.12,0.1,0.97,-0.09,-128.3,0.0,0.0,-1.03,0.0,0.01,0.0,0.9792854537876073,0.3683748091278773,0.0,0.0,2.0,0.6,0.013055062582651766,0.2,1.0,-160.0,0,0,calibrating,0,0,0,0,0,0.0
0.5199107500000082,54,180.34,95.4,6.2,20.2,-0.24,0.32,0.07,0.1,0.98,-0.1,-128.3,0.0,0.0,-1.03,0.0,0.02,0.0,0.990151503558925,0.40607881008493907,0.0,0.0,2.0,0.6,0.002145232555107457,0.2,1.0,-160.0,0,0,calibrating,0,0,0,0,0,0.0
0.531556624000018,55,180.35,95.4,6.2,20.1,-0.3,0.39,0.03,0.09,0.98,-0.1,-128.3,0.0,-1.0,-1.03,0.0,0.01,0.0,0.9891915891272024,0.49295030175464954,0.0,0.0,2.0,0.6,0.003043044047093435,0.2,1.0,-160.0,0,0,calibrating,0,0,0,0,0,0.0
0.540001410000059,56,180.36,95.3,6.2,20.1,-0.35,0.46,0.01,0.09,0.99,-0.09,-128.3,0.0,-1.0,-1.03,0.0,0.1,0.0,0.9981482855768475,0.5781003373117853,0.0,0.0,2.0,0.6,0.005795379354500696,0.2,1.0,-160.0,0,0,calibrating,0,0,0,0,0,0.0
0.5514712290000716,57,180.37,95.3,6.2,20.0,-0.45,0.51,0.03,0.09,1.0,-0.09,-128.3,0.0,0.0,-1.03,0.0,0.01,0.0,1.0080674580602234,0.680808343074613,0.0,0.0,2.0,0.6,0.015400260801119003,0.2,1.0,-160.0,0,0,calibrating,0,0,0,0,0,0.0
0.5600599919999922,58,180.38,95.2,6.2,20.0,-0.52,0.57,0.06,0.08,1.0,-0.08,-128.3,0.1,1.0,-1.03,0.0,0.17,0.0,1.00637965003273,0.7738862965578341,0.0,0.0,2.0,0.6,0.013438203718153185,0.2,1.0,-160.0,0,0,calibrating,0,0,0,0,0,0.0
0.5714372450000837,59,180.39,95.2,6.2,19.9,-0.56,0.56,0.1,0.08,1.01,-0.07,-128.3,0.0,0.0,-1.03,0.0,0.01,0.0,1.0155786527886455,0.7982480817390043,0.0,0.0,2.0,0.6,0.022184462344587264,0.2,1.0,-160.0,0,0,calibrating,0,0,0,0,0,0.0
0.5800958070000206,60,180.4,95.1,6.2,19.9,-0.58,0.56,0.15,0.07,1.01,-0.06,-128.3,0.2,-2.0,-1.03,0.0,0.01,0.0,1.0141991914806479,0.8200609733428362,0.0,0.0,2.0,0.6,0.020388901015857885,0.2,1.0,-160.0,0,0,calibrating,0,0,0,0,0,0.0
0.5916935830000511,61,180.41,95.0,6.2,19.8,-0.62,0.51,0.2,0.06,1.02,-0.06,-128.3,0.0,0.0,-1.03,0.0,0.01,0.0,1.023523326553919,0.8273451516749223,0.0,0.0,2.0,0.6,0.029118775367346417,0.2,1.0,-160.0,0,0,calibrating,0,0,0,0,0,0.0
0.6039591390000396,62,180.42,94.9,6.2,19.8,-0.68,0.44,0.22,0.06,1.02,-0.05,-128.3,0.1,1.0,-1.03,-0.01,0.01,0.0,1.022985825903761,0.8392854103342915,0.0,0.0,2.0,0.6,0.028009649222844657,0.2,1.0,-160.0,0,0,calibrating,0,0,0,0,0,0.0
0.6119206440000653,63,180.43,94.8,6.2,19.7,-0.74,0.37,0.22,0.06,1.01,-0.05,-128.3,0.5,4.0,-1.03,-0.01,0.01,0.0,1.013015300970326,0.8560957890329797,0.0,0.0,2.0,0.6,0.01767834180362149,0.2,1.0,-160.0,0,0,calibrating,0,0,0,0,0,0.0
0.6201778710000099,64,180.44,94.7,6.2,19.7,-0.82,0.31,0.23,0.06,1.02,-0.05,-128.3,0.9,0.0,-1.03,-0.01,0.01,0.0,1.022985825903761,0.9063112048297759,0.0,0.0,2.0,0.6,0.027095889402315332,0.2,1.0,-160.0,0,0,calibrating,0,0,0,0,0,0.0
0.6316921180000463,65,180.45,94.6,6.2,19.7,-0.91,0.25,0.23,0.07,1.01,-0.05,-128.3,0.2,-2.0,-1.03,0.0,0.02,0.0,1.0136567466356645,0.9713392816107047,0.0,0.0,2.0,0.6,0.01741147393153475,0.2,1.0,-160.0,0,0,calibrating,0,0,0,0,0,0.0
0.6400831949999883,66,180.46,94.5,6.2,19.6,-0.97,0.18,0.24,0.07,1.0,-0.05,-128.3,0.7,2.0,-1.03,-0.01,0.11,0.0,1.0036931802099682,1.015332457867865,0.0,0.0,2.0,0.6,0.007298949355721729,0.2,1.0,-160.0,0,0,calibrating,0,0,0,0,0,0.0
0.6515437550000343,67,180.47,94.4,6.2,19.6,-0.98,0.13,0.23,0.08,0.99,-0.05,-128.3,0.8,1.0,-1.03,-0.03,0.03,0.0,0.9944847912361455,1.0149876846543509,0.0,0.0,2.0,0.6,0.0018712508257391347,0.2,1.0,-160.0,0,0,calibrating,0,0,0,0,0,0.0
0.6601165609999953,68,180.48,94.3,6.2,19.6,-0.93,0.07,0.21,0.08,0.98,-0.05,-128.3,1.2,0.0,-1.03,-0.02,0.02,0.0,0.9845303448853163,0.9559811713627001,0.0,0.0,2.0,0.6,0.011589183233036926,0.2,1.0,-160.0,0,0,calibrating,0,0,0,0,0,0.0
0.6714889980000862,69,180.49,94.2,6.2,19.6,-0.89,0.03,0.23,0.09,0.98,-0.05,-128.3,0.6,-6.0,-1.03,0.0,0.03,0.0,0.985393322486001,0.9197282207261013,0.0,0.0,2.0,0.6,0.010511681519705274,0.2,1.0,-160.0,0,0,calibrating,0,0,0,0,0,0.0
0.680176053000082,70,180.5,94.1,6.3,19.6,-0.87,0.01,0.24,0.09,0.98,-0.05,-128.3,0.6,1.0,-1.03,-0.03,0.01,0.0,0.985393322486001,0.9025519375637061,0.0,0.0,2.0,0.6,0.0103014478893112,0.2,1.0,-160.0,0,0,calibrating,0,0,0,0,0,0.0
0.6915163580000581,71,180.51,94.0,6.3,19.6,-0.86,0.02,0.24,0.09,0.98,-0.05,-128.2,1.2,3.0,-1.03,-0.03,0.08,0.0,0.985393322486001,0.8930845424706442,0.0,0.0,2.0,0.6,0.010095418931524991,0.2,1.0,-160.0,0,0,calibrating,0,0,0,0,0,0.0
0.700128894000045,72,180.52,93.9,6.3,19.6,-0.89,0.04,0.23,0.09,0.98,-0.05,-128.2,1.4,5.0,-1.03,-0.04,-0.05,0.0,0.985393322486001,0.9201086892318755,0.0,0.0,2.0,0.6,0.009893510552894447,0.2,1.0,-160.0,0,0,calibrating,0,0,0,0,0,0.0
0.7112667930000498,73,180.53,93.8,6.3,19.6,-0.91,0.07,0.24,0.09,0.97,-0.05,-128.2,3.5,22.0,-1.03,-0.14,-0.11,0.0,0.9754486147409304,0.9437160589923221,0.0,0.0,2.0,0.6,0.019441453932005803,0.2,1.0,-160.0,0,0,calibrating,0,0,0,0,0,0.0
0.7194573080000737,74,180.54,93.7,6.3,19.6,-0.91,0.08,0.23,0.08,0.97,-0.04,-128.2,5.7,14.0,-1.03,-0.16,-0.05,0.0,0.9741149829460586,0.9420191080864548,0.0,0.0,2.0,0.6,0.02035958401234006,0.2,1.0,-160.0,0,0,calibrating,0,0,0,0,0,0.0
0.7311787810000396,75,180.55,93.6,6.3,19.6,-0.89,0.06,0.24,0.08,0.98,-0.03,-128.1,6.0,8.0,-1.04,-0.18,0.09,0.0,0.983717439105356,0.9237423883312923,0.0,0.0,2.0,0.6,0.010541985295981715,0.2,1.0,-160.0,0,0,calibrating,0,0,0,0,0,0.0
0.7441833500000712,76,180.56,93.5,6.3,19.6,-0.89,0.02,0.25,0.07,0.98,-0.03,-128.0,5.2,-11.0,-1.04,-0.1,-0.01,0.0,0.9829547293746543,0.9246621004453465,0.0,0.0,2.0,0.6,0.011078601126149779,0.2,1.0,-160.0,0,0,calibrating,0,0,0,0,0,0.0
0.7521189950000462,77,180.57,93.4,6.3,19.6,-0.91,-0.03,0.26,0.07,0.98,-0.03,-128.0,3.1,-9.0,-1.04,-0.09,-0.1,0.0,0.9829547293746543,0.9468896451012653,0.0,0.0,2.0,0.6,0.010857029103626736,0.2,1.0,-160.0,0,0,calibrating,0,0,0,0,0,0.0
0.7601003670000637,78,180.58,93.3,6.3,19.6,-0.95,-0.07,0.27,0.07,0.98,-0.04,-128.0,4.0,8.0,-1.04,-0.13,0.02,0.0,0.9833107342035884,0.990101004948485,0.0,0.0,2.0,0.6,0.010291003789198894,0.2,1.0,-160.0,0,0,calibrating,0,0,0,0,0,0.0
0.7714829340000051,79,180.59,93.2,6.4,19.6,-0.97,-0.11,0.27,0.06,0.98,-0.04,-127.9,8.6,42.0,-1.04,-0.31,0.13,0.0,0.9826494797230597,1.0128672173587216,0.0,0.0,2.0,0.6,0.01073321310433295,0.2,1.0,-160.0,0,0,calibrating,0,0,0,0,0,0.0
0.7801326720000361,80,180.6,93.1,6.4,19.6,-0.98,-0.16,0.27,0.06,0.98,-0.04,-127.8,12.4,22.0,-1.04,-0.33,0.08,0.0,0.9826494797230597,1.0290286682109493,0.0,0.0,2.0,0.6,0.010518548842246345,0.2,1.0,-160.0,0,0,calibrating,0,0,0,0,0,0.0
0.7916413110000349,81,180.61,93.0,6.4,19.6,-0.95,-0.22,0.27,0.06,0.98,-0.04,-127.7,12.0,-8.0,-1.05,-0.26,0.01,0.0,0.9826494797230597,1.011830025251277,0.0,0.0,2.0,0.6,0.010308177865401391,0.2,1.0,-160.0,0,0,calibrating,0,0,0,0,0,0.0
0.7999243850000539,82,180.62,92.9,6.4,19.6,-0.91,-0.3,0.27,0.06,0.98,-0.03,-127.6,6.2,-36.0,-1.05,-0.12,0.1,0.0,0.9822932352408826,0.9954898291795853,0.0,0.0,2.0,0.6,0.010451133900627019,0.2,1.0,-160.0,0,0,calibrating,0,0,0,0,0,0.0
0.8115162800000917,83,180.63,92.8,6.4,19.7,-0.88,-0.38,0.26,0.07,0.97,-0.03,-127.5,3.4,-17.0,-1.05,-0.09,0.11,0.0,0.9729850975220535,0.9931767214348108,0.0,0.0,2.0,0.6,0.019364086187066865,0.2,1.0,-160.0,0,0,calibrating,0,0,0,0,0,0.0
0.8201300740000761,84,180.64,92.7,6.4,19.7,-0.88,-0.45,0.25,0.08,0.98,-0.04,-127.5,6.3,20.0,-1.05,-0.22,0.03,0.0,0.9840731680114034,1.0195096860746347,0.0,0.0,2.0,0.6,0.008110495383762628,0.2,1.0,-160.0,0,0,calibrating,0,0,0,0,0,0.0
0.8315359120000494,85,180.65,92.6,6.4,19.8,-0.88,-0.48,0.26,0.08,0.98,-0.04,-127.4,10.0,27.0,-1.05,-0.3,0.04,0.0,0.9840731680114034,1.0355674772799695,0.0,0.0,2.0,0.6,0.007948285476087391,0.2,1.0,-160.0,0,0,calibrating,0,0,0,0,0,0.0
0.8400404349999917,86,180.66,92.5,6.4,19.8,-0.9,-0.49,0.26,0.07,0.98,-0.04,-127.3,13.3,36.0,-1.06,-0.41,0.0,0.0,0.9833107342035884,1.0572133181151286,0.0,0.0,2.0,0.6,0.00853650489822444,0.2,1.0,-160.0,0,0,calibrating,0,0,0,0,0,0.0
0.8513308280000729,87,180.67,92.4,6.4,19.9,-0.89,-0.49,0.27,0.07,0.98,-0.03,-127.1,15.8,15.0,-1.06,-0.41,0.0,0.0,0.9829547293746543,1.0512373661547614,0.0,0.0,2.0,0.6,0.008714659532615188,0.2,1.0,-160.0,0,0,calibrating,0,0,0,0,0,0.0
0.8600557030000573,88,180.68,92.4,6.4,19.9,-0.86,-0.49,0.27,0.07,0.98,-0.03,-127.0,16.3,10.0,-1.07,-0.45,-0.03,0.0,0.9829547293746543,1.0259629622944486,0.0,0.0,2.0,0.6,0.008540366341962868,0.2,1.0,-160.0,0,0,calibrating,0,0,0,0,0,0.0
0.8715516890000572,89,180.69,92.3,6.4,20.0,-0.81,-0.51,0.26,0.07,0.99,-0.03,-126.8,15.1,-6.0,-1.07,-0.4,0.21,0.0,0.9929249719893241,0.9918669265581952,0.0,0.0,2.0,0.6,0.00140127874725271,0.2,1.0,-160.0,0,0,calibrating,0,0,0,0,0,0.0
0.8801055900000847,90,180.7,92.2,6.4,20.0,-0.82,-0.52,0.24,0.08,0.99,-0.03,-126.7,12.7,-16.0,-1.07,-0.33,0.18,0.0,0.9936800289831732,1.000199980003999,0.0,0.0,2.0,0.6,0.002113209026279872,0.2,1.0,-160.0,0,0,calibrating,0,0,0,0,0,0.0
0.8916923919999817,91,180.71,92.1,6.4,20.1,-0.83,-0.54,0.2,0.09,0.99,-0.02,-126.5,12.3,-4.0,-1.08,-0.32,0.01,0.0,0.9942836617384396,1.010198000393982,0.0,0.0,2.0,0.6,0.002662504945915356,0.2,1.0,-160.0,0,0,calibrating,0,0,0,0,0,0.0
0.8998950480000758,92,180.72,92.0,6.4,20.1,-0.83,-0.56,0.17,0.09,0.98,-0.01,-126.4,11.7,-8.0,-1.08,-0.3,-0.19,0.0,0.9841747812253675,1.0155786527886455,0.0,0.0,2.0,0.6,0.007297448055813671,0.2,1.0,-160.0,0,0,calibrating,0,0,0,0,0,0.0
0.9115002730000015,93,180.73,91.9,6.4,20.2,-0.73,-0.63,0.12,0.08,0.97,-0.01,-126.3,9.8,-22.0,-1.08,-0.22,0.13,0.0,0.973344748791506,0.9716995420396163,0.0,0.0,2.0,0.6,0.017764930879881624,0.2,1.0,-160.0,0,0,calibrating,0,0,0,0,0,0.0
0.9201146980000203,94,180.74,91.9,6.4,20.3,-0.56,-0.7,0.06,0.09,0.97,0.0,-126.2,4.5,-43.0,-1.08,-0.06,0.13,0.0,0.9741663102366043,0.8984430978086481,0.0,0.0,2.0,0.6,0.016604502046087655,0.2,1.0,-160.0,0,0,calibrating,0,0,0,0,0,0.0
0.9314803770000708,95,180.75,91.8,6.4,20.3,-0.42,-0.77,0.05,0.09,0.98,0.0,-126.2,2.1,-24.0,-1.09,-0.04,-0.12,0.0,0.9841239759298621,0.878521485223896,0.0,0.0,2.0,0.6,0.006513899625773201,0.2,1.0,-160.0,0,0,calibrating,0,0,0,0,0,0.0
0.940073859999984,96,180.76,91.8,6.4,20.4,-0.3,-0.82,0.04,0.1,0.98,0.0,-126.2,2.1,-1.0,-1.09,-0.07,0.22,0.0,0.9850888284819801,0.8740709353364863,0.0,0.0,2.0,0.6,0.005438066132182118,0.2,1.0,-160.0,0,0,calibrating,0,0,0,0,0,0.0
0.9515168940000649,97,180.77,91.7,6.4,20.5,-0.18,-0.83,0.04,0.1,0.99,-0.01,-126.2,4.4,15.0,-1.09,-0.15,0.04,0.0,0.9950879358127099,0.8502352615599991,0.0,0.0,2.0,0.6,0.004469820374576772,0.2,1.0,-160.0,0,0,calibrating,0,0,0,0,0,0.0
0.9600855539999884,98,180.78,91.7,6.4,20.6,-0.12,-0.83,0.07,0.11,1.0,-0.01,-126.1,6.7,14.0,-1.09,-0.19,0.04,0.0,1.006081507632458,0.8415461959987698,0.0,0.0,2.0,0.6,0.015154124350438392,0.2,1.0,-160.0,0,0,calibrating,0,0,0,0,0,0.0
0.9715554169999905,99,180.79,91.7,6.4,20.7,-0.12,-0.78,0.11,0.12,1.0,-0.01,-126.0,4.1,-25.0,-1.09,-0.05,-0.09,0.0,1.0072239075796403,0.7968061244744545,0.0,0.0,2.0,0.6,0.01597059381166821,0.2,1.0,-160.0,0,0,calibrating,0,0,0,0,0,0.0
0.9800788759999932,100,180.8,91.7,6.4,20.7,-0.16,-0.77,0.15,0.12,1.01,0.0,-126.0,-0.1,-27.0,-1.09,0.03,0.04,0.0,1.0171037311896953,0.8006247560499238,0.0,0.0,2.0,0.6,0.025333409073288737,0.2,1.0,-160.0,0,0,calibrating,0,0,0,0,0,0.0
0.9915739550000353,101,180.81,91.7,6.4,20.8,-0.21,-0.77,0.2,0.12,1.0,0.0,-126.0,0.1,-2.0,-1.09,-0.01,0.04,0.0,1.0071742649611337,0.8228000972289685,0.0,0.0,2.0,0.6,0.01509586398783258,0.2,1.0,-160.0,0,0,calibrating,0,0,0,0,0,0.0
1.0000364150000678,102,180.82,91.6,6.5,20.9,-0.22,-0.88,0.25,0.12,1.0,0.01,-126.0,0.0,-5.0,-1.09,0.0,-0.09,0.0,1.0072239075796403,0.9409038208021051,0.0,0.0,2.0,0.6,0.014842596474212377,0.2,1.0,-160.0,0,0,calibrating,0,0,0,0,0,0.0
1.0113627450000422,103,180.83,91.6,6.5,21.0,-0.12,-0.91,0.28,0.11,0.99,0.01,-126.0,0.0,-1.0,-1.09,0.0,0.06,0.0,0.9961425600786264,0.9596353474106715,0.0,0.0,2.0,0.6,0.003686023993734522,0.2,1.0,-160.0,0,0,calibrating,0,0,0,0,0,0.0
1.0200256130000298,104,180.84,91.6,6.5,21.1,-0.01,-0.95,0.29,0.09,1.0,0.02,-126.0,0.0,0.0,-1.09,0.0,-0.02,0.0,1.0042410069301093,0.993327740476425,0.0,0.0,2.0,0.6,0.01154878142831306,0.2,1.0,-160.0,0,0,calibrating,0,0,0,0,0,0.0
1.031428361000053,105,180.85,91.6,6.5,21.2,-0.12,-1.03,0.31,0.09,1.01,0.02,-126.0,0.0,-3.0,-1.09,0.02,0.09,0.0,1.0141991914806479,1.0823123393919152,0.0,0.0,2.0,0.6,0.021076826659274572,0.2,1.0,-160.0,0,0,calibrating,0,0,0,0,0,0.0
1.0400771770000574,106,180.86,91.5,6.5,21.3,-0.25,-1.13,0.35,0.09,1.02,0.03,-126.0,0.1,0.0,-1.09,0.0,-0.02,0.0,1.0244022647378324,1.209090567327361,0.0,0.0,2.0,0.6,0.0306543019181299,0.2,1.0,-160.0,0,0,calibrating,0,0,0,0,0,0.0
1.0514303510000218,107,180.87,91.4,6.6,21.4,-0.79,-1.54,0.52,0.09,1.05,0.04,-126.0,-0.3,0.0,-1.09,0.0,0.11,0.0,1.0546089322587782,1.807235457819484,0.0,0.0,2.0,0.6,0.05964375005029421,0.2,1.0,-160.0,0,0,calibrating,0,0,0,0,0,0.0
1.0600993820000895,108,180.88,91.4,6.6,21.6,-0.55,-1.43,0.49,0.09,1.0,0.03,-126.0,0.2,1.0,-1.09,0.0,0.11,0.0,1.0044899203078146,1.6085707942145413,0.0,0.0,2.0,0.6,0.009334243337344006,0.2,1.0,-160.0,0,0,calibrating,0,0,0,0,0,0.0
1.071481464000044,109,180.89,91.3,6.6,21.7,-0.76,-1.64,0.65,0.1,1.04,0.06,-126.0,0.0,3.0,-1.09,-0.01,-0.02,0.0,1.0465180361560904,1.9208591827617139,0.0,0.0,2.0,0.6,0.050335112001907434,0.2,1.0,-160.0,0,0,calibrating,0,0,0,0,0,0.0
1.0799967400000696,110,180.9,91.2,6.7,21.9,-0.84,-1.73,0.62,0.12,0.94,0.02,-126.0,0.1,0.0,-1.09,0.0,-0.11,0.0,0.9478396488858228,2.0206187171260193,0.0,0.0,2.0,0.6,0.047376409762992955,0.2,1.0,-160.0,0,0,calibrating,0,0,0,0,0,0.0
1.0913244010000653,111,180.91,91.1,6.8,22.1,-0.85,-1.97,0.71,0.16,1.0,0.0,-126.0,0.0,3.0,-1.09,0.0,0.06,0.0,1.012719112093773,2.2599778759979046,0.0,0.0,2.0,0.6,0.017152992376058163,0.2,1.0,-160.0,0,0,calibrating,0,0,0,0,0,0.0
1.1000709400000233,112,180.92,91.0,6.9,22.3,-0.81,-2.3,0.78,0.16,0.99,0.05,-126.0,0.0,1.0,-1.09,0.0,-0.09,0.0,1.0040916292848974,2.560175775215444,0.0,0.0,2.0,0.6,0.008354999375838834,0.2,1.0,-160.0,0,0,calibrating,0,0,0,0,0,0.0
1.1114235710000457,113,180.93,90.9,7.0,22.5,-0.87,-2.24,0.75,0.16,0.95,0.04,-126.0,0.0,0.0,-1.09,0.0,0.16,0.0,0.9642095207992918,2.517339865810733,0.0,0.0,2.0,0.6,0.030896566927571367,0.2,1.0,-160.0,0,0,calibrating,0,0,0,0,0,0.0
1.119862327000078,114,180.94,90.8,7.1,22.7,-0.93,-2.42,0.78,0.17,0.95,0.02,-126.0,0.3,0.0,-1.09,0.0,-0.06,0.0,0.9652978814852957,2.7073418698051417,0.0,0.0,2.0,0.6,0.029212042116736114,0.2,1.0,-160.0,0,0,calibrating,0,0,0,0,0,0.0
1.1315215130000524,115,180.95,90.7,7.2,23.0,-0.91,-2.68,0.82,0.19,0.94,-0.01,-126.0,0.0,-1.0,-1.09,0.0,-0.09,0.0,0.9590620417887468,2.9466760934992497,0.0,0.0,2.0,0.6,0.034738924177019403,0.2,1.0,-160.0,0,0,calibrating,0,0,0,0,0,0.0
1.1401465060000646,116,180.96,90.7,7.3,23.3,-0.95,-2.75,0.87,0.21,0.94,-0.05,-126.0,0.5,0.0,-1.09,0.0,0.04,0.0,0.9644687656943588,3.0367581398590175,0.0,0.0,2.0,0.6,0.02874555626597919,0.2,1.0,-160.0,0,0,calibrating,0,0,0,0,0,0.0
1.151422106000041,117,180.97,90.6,7.4,23.6,-0.77,-2.79,0.85,0.23,0.94,-0.07,-126.0,0.3,5.0,-1.09,-0.03,-0.02,0.0,0.9702576977277737,3.016537750468242,0.0,0.0,2.0,0.6,0.022497491747913045,0.2,1.0,-160.0,0,0,calibrating,0,0,0,0,0,0.0
1.160109829000021,118,180.98,90.6,7.5,23.8,-0.67,-2.59,0.8,0.25,0.94,-0.13,-126.0,1.1,1.0,-1.09,-0.02,0.05,0.0,0.9813256340277675,2.792310870945425,0.0,0.0,2.0,0.6,0.011200964338960895,0.2,1.0,-160.0,0,0,calibrating,0,0,0,0,0,0.0
1.171531640000012,119,180.99,90.6,7.6,24.1,-0.48,-2.34,0.73,0.28,0.94,-0.15,-126.0,1.4,4.0,-1.09,-0.04,-0.01,0.0,0.9922197337283712,2.4977790134437434,0.0,0.0,2.0,0.6,0.0003007273455900572,0.2,1.0,-160.0,0,0,calibrating,0,0,0,0,0,0.0
1.180078696999999,120,181.0,90.6,7.6,24.3,-0.13,-2.01,0.68,0.31,0.98,-0.14,-126.0,1.9,9.0,-1.09,-0.06,0.06,0.0,1.0373523991392704,2.125888049733569,0.0,0.0,2.0,0.6,0.04393529930400264,0.2,1.0,-160.0,0,0,calibrating,0,0,0,0,0,0.0
1.1915690010000617,121,181.01,90.6,7.7,24.5,-0.12,-1.75,0.73,0.35,1.0,-0.17,-126.0,1.6,-2.0,-1.09,-0.03,0.04,0.0,1.0730330842988953,1.899947367692063,0.0,0.0,2.0,0.6,0.0780236647743553,0.2,1.0,-160.0,0,0,calibrating,0,0,0,0,0,0.0
1.2000873950000823,122,181.02,90.6,7.8,24.7,-0.18,-1.38,0.77,0.37,1.01,-0.17,-126.0,0.9,-8.0,-1.09,0.0,0.09,0.0,1.0889903580840374,1.5905030650709227,0.0,0.0,2.0,0.6,0.09210131978830749,0.2,1.0,-160.0,0,0,calibrating,0,0,0,0,0,0.0
1.2114211599999862,123,181.03,90.6,7.9,24.8,-0.35,-1.14,0.81,0.37,1.03,-0.16,-125.9,0.3,-6.0,-1.09,0.0,-0.06,0.0,1.1060741385639572,1.441596337398233,0.0,0.0,2.0,0.6,0.1070013982628627,0.2,1.0,-160.0,0,0,calibrating,0,0,0,0,0,0.0
1.2201114700000062,124,181.04,90.6,8.0,24.9,-0.55,-0.84,0.87,0.35,1.05,-0.15,-125.9,0.0,-3.0,-1.09,0.0,0.11,0.0,1.116915395184434,1.3285330255586423,0.0,0.0,2.0,0.6,0.11548580178567258,0.2,1.0,-160.0,0,0,calibrating,0,0,0,0,0,0.0
1.2314971619999824,125,181.05,90.5,8.0,25.0,-0.8,-0.58,0.92,0.32,1.04,-0.13,-125.9,0.0,-1.0,-1.09,0.0,-0.1,0.0,1.0958558299338468,1.3501111065390137,0.0,0.0,2.0,0.6,0.09253771180438375,0.2,1.0,-160.0,0,0,calibrating,0,0,0,0,0,0.0
1.2400643790000458,126,181.06,90.4,8.1,25.0,-0.86,-0.29,0.87,0.29,1.03,-0.12,-125.9,-0.1,-2.0,-1.09,0.0,0.11,0.0,1.0767543823918249,1.2572191535289303,0.0,0.0,2.0,0.6,0.07196753897711461,0.2,1.0,-160.0,0,0,calibrating,0,0,0,0,0,0.0
1.251485515000013,127,181.07,90.3,8.2,25.0,-0.91,-0.02,0.8,0.28,1.0,-0.12,-125.9,0.0,-1.0,-1.09,0.01,-0.1,0.0,1.0453707476297585,1.2118168178400563,0.0,0.0,2.0,0.6,0.03977222613074716,0.2,1.0,-160.0,0,0,calibrating,0,0,0,0,0,0.0
1.2600882560000173,128,181.08,90.2,8.3,25.0,-1.04,0.07,0.71,0.27,0.98,-0.11,-125.9,-0.1,0.0,-1.09,0.0,-0.12,0.0,1.0224480426897007,1.2611899143269423,0.0,0.0,2.0,0.6,0.016512530766875644,0.2,1.0,-160.0,0,0,calibrating,0,0,0,0,0,0.0
1.2714946790000567,129,181.09,90.1,8.4,25.0,-1.15,0.26,0.58,0.27,0.94,-0.12,-125.9,0.0,-1.0,-1.09,0.0,0.04,0.0,0.9853425800197614,1.3139634698118514,0.0,0.0,2.0,0.6,0.02018107326500229,0.2,1.0,-160.0,0,0,calibrating,0,0,0,0,0,0.0
1.2801046179999958,130,181.1,90.0,8.4,25.0,-1.21,0.43,0.47,0.26,0.91,-0.1,-125.9,0.0,0.0,-1.09,0.0,0.09,0.0,0.9516827202382105,1.3674428690076963,0.0,0.0,2.0,0.6,0.05276411438562212,0.2,1.0,-160.0,0,0,calibrating,0,0,0,0,0,0.0
1.2915279210000108,131,181.11,89.9,8.5,24.9,-1.2,0.57,0.36,0.27,0.89,-0.09,-125.9,-0.1,1.0,-1.09,0.0,-0.15,0.0,0.9343982020530648,1.3764083696345355,0.0,0.0,2.0,0.6,0.06864765991935262,0.2,1.0,-160.0,0,0,calibrating,0,0,0,0,0,0.0
1.3000967520000586,132,181.12,89.7,8.5,24.8,-1.2,0.72,0.29,0.28,0.87,-0.08,-126.0,-0.1,2.0,-1.09,-0.01,-0.01,0.0,0.9174420962654809,1.4291605927956452,0.0,0.0,2.0,0.6,0.08389169039279787,0.2,1.0,-160.0,0,0,calibrating,0,0,0,0,0,0.0
1.3114751660000366,133,181.13,89.6,8.5,24.8,-1.15,0.84,0.24,0.28,0.85,-0.08,-126.0,-0.1,-2.0,-1.09,0.0,0.0,0.0,0.8984987479123162,1.4441952776546527,0.0,0.0,2.0,0.6,0.1007783379710433,0.2,1.0,-160.0,0,0,calibrating,0,0,0,0,0,0.0
1.3201076200000443,134,181.14,89.5,8.5,24.7,-0.99,0.99,0.19,0.29,0.83,-0.08,-126.0,0.0,0.0,-1.09,0.0,-0.12,0.0,0.8828363381737296,1.4129048092493706,0.0,0.0,2.0,0.6,0.1141119327554373,0.2,1.0,-160.0,0,0,calibrating,0,0,0,0,0,0.0
1.3315398010000763,135,181.15,89.4,8.5,24.6,-0.67,1.11,0.14,0.31,0.84,-0.08,-126.0,0.1,0.0,-1.09,0.0,0.08,0.0,0.898943824718764,1.3040705502387515,0.0,0.0,2.0,0.6,0.09604435728619487,0.2,1.0,-160.0,0,0,calibrating,0,0,0,0,0,0.0
1.3400055970000722,136,181.16,89.3,8.6,24.4,-0.49,1.34,0.09,0.32,0.82,-0.1,-126.0,-0.1,0.0,-1.09,0.0,-0.03,0.0,0.885889383614004,1.4296153328780439,0.0,0.0,2.0,0.6,0.10691682242313572,0.2,1.0,-160.0,0,0,calibrating,0,0,0,0,0,0.0
1.3515193980000504,137,181.17,89.3,8.6,24.3,-0.35,1.56,-0.03,0.32,0.79,-0.1,-126.0,0.0,0.0,-1.09,0.0,-0.01,0.0,0.858195781858662,1.5990622251807465,0.0,0.0,2.0,0.6,0.13191821569490825,0.2,1.0,-160.0,0,0,calibrating,0,0,0,0,0,0.0
1.3600147409999863,138,181.18,89.2,8.5,24.1,-0.18,1.83,-0.21,0.32,0.76,-0.11,-126.0,-0.3,0.0,-1.09,0.0,0.0,0.0,0.8319254774317228,1.8507836178224617,0.0,0.0,2.0,0.6,0.15502474971941038,0.2,1.0,-160.0,0,0,calibrating,0,0,0,0,0,0.0
1.371587661000035,139,181.19,89.2,8.5,23.9,0.14,2.08,-0.45,0.31,0.72,-0.13,-126.0,-0.1,-4.0,-1.09,0.02,0.04,0.0,0.7946068210127571,2.1327212663637036,0.0,0.0,2.0,0.6,0.18849653801560862,0.2,1.0,-160.0,0,0,calibrating,0,0,0,0,0,0.0
1.3800366750000421,140,181.2,89.2,8.4,23.7,0.58,2.34,-0.74,0.29,0.72,-0.13,-126.0,-0.3,1.0,-1.09,0.0,0.13,0.0,0.7870196947980399,2.5218247361781505,0.0,0.0,2.0,0.6,0.1921619909457194,0.2,1.0,-160.0,0,0,calibrating,0,0,0,0,0,0.0
1.391546639000012,141,181.21,89.2,8.4,23.4,1.03,2.64,-0.93,0.28,0.76,-0.12,-126.0,-1.2,-9.0,-1.09,0.05,0.16,0.0,0.8187795796183488,2.982515716639227,0.0,0.0,2.0,0.6,0.15719406400290226,0.2,1.0,-160.0,0,0,calibrating,0,0,0,0,0,0.0
1.4000359920000847,142,181.22,89.3,8.2,23.2,1.46,2.79,-1.07,0.25,0.79,-0.12,-126.0,-3.2,-16.0,-1.09,0.09,-0.02,0.0,0.8372574275573792,3.325748036156678,0.0,0.0,2.0,0.6,0.1359418917425944,0.2,1.0,-160.0,0,0,calibrating,0,0,0,0,0,0.0
1.411422506000008,143,181.23,89.4,8.1,22.9,1.71,2.89,-1.28,0.24,0.81,-0.13,-126.0,-5.0,-16.0,-1.09,0.14,0.11,0.0,0.8547514258543241,3.593688912524288,0.0,0.0,2.0,0.6,0.11607893557673654,0.2,1.0,-160.0,0,0,calibrating,0,0,0,0,0,0.0
1.4200678530000914,144,181.24,89.6,8.0,22.6,1.73,3.06,-1.66,0.2,0.83,-0.14,-126.1,-5.3,-2.0,-1.09,0.13,-0.03,0.0,0.8651589449343976,3.887428455933305,0.0,0.0,2.0,0.6,0.10355798816672979,0.2,1.0,-160.0,0,0,calibrating,0,0,0,0,0,0.0
1.4314422539999896,145,181.25,89.7,7.8,22.3,1.76,3.3,-1.92,0.19,0.94,-0.11,-126.1,-3.6,9.0,-1.09,0.09,-0.11,0.0,0.9652978814852957,4.204045670541651,0.0,0.0,2.0,0.6,0.003350670583515014,0.2,1.0,-160.0,0,0,calibrating,0,0,0,0,0,0.0
1.4400156420000485,146,181.26,89.9,7.6,21.9,1.83,3.53,-1.89,0.15,1.05,-0.09,-126.2,-5.5,-22.0,-1.09,0.2,0.04,0.0,1.0644716999526103,4.40248793297608,0.0,0.0,2.0,0.6,0.09390668492612353,0.2,1.0,-160.0,0,0,calibrating,0,0,0,0,0,0.0
1.4516783170000735,147,181.27,90.0,7.4,21.6,2.05,3.75,-1.71,0.09,1.15,-0.07,-126.3,-12.7,-68.0,-1.08,0.47,0.27,0.0,1.1556383517346591,4.603161956742343,0.0,0.0,2.0,0.6,0.1813718699740089,0.2,1.0,-160.0,0,0,calibrating,0,0,0,0,0,0.0
1.460022251000055,148,181.28,90.2,7.2,21.2,2.08,3.9,-1.52,0.06,1.22,-0.04,-126.5,-22.4,-86.0,-1.07,0.72,0.02,0.0,1.222129289396175,4.674056054434949,0.0,0.0,2.0,0.6,0.24290555148281434,0.2,1.0,-160.0,0,0,calibrating,0,0,0,0,0,0.0
1.471540770000047,149,181.29,90.4,7.0,20.8,1.77,3.93,-1.27,0.06,1.28,-0.01,-126.8,-32.4,-99.0,-1.07,1.02,0.04,0.0,1.2814444974324875,4.493406280317862,0.0,0.0,2.0,0.6,0.2961763443287442,0.2,1.0,-160.0,0,0,calibrating,0,0,0,0,0,0.0
1.4800997429999825,150,181.3,90.5,6.9,20.4,1.36,3.83,-0.89,0.04,1.28,-0.02,-127.2,-42.1,-90.0,-1.05,1.24,-0.05,0.0,1.2807810117268292,4.160600918136706,0.0,0.0,2.0,0.6,0.2896026014506242,0.2,1.0,-160.0,0,0,calibrating,0,0,0,0,0,0.0
1.4915592480000441,151,181.31,90.6,6.8,20.0,1.03,3.71,-0.5,0.03,1.21,-0.03,-127.7,-52.0,-110.0,-1.04,1.58,0.21,0.0,1.2107435731813734,3.882653731663435,0.0,0.0,2.0,0.6,0.21517385964706526,0.2,1.0,-160.0,0,0,calibrating,0,0,0,0,0,0.0
1.5000286320000669,152,181.32,90.6,6.7,19.6,0.74,3.61,-0.17,0.08,1.14,-0.01,-128.3,-65.0,-118.0,-1.02,1.91,-0.01,0.0,1.1428473213863695,3.6889835998551144,0.0,0.0,2.0,0.6,0.14433205569501995,0.2,1.0,-160.0,0,0,calibrating,0,0,0,0,0,0.0
1.511425278000047,153,181.33,90.7,6.7,19.3,0.44,3.58,0.11,0.14,1.05,-0.01,-129.0,-77.4,-132.0,-1.0,2.29,0.17,0.0,1.0593394168065304,3.60861469264869,0.0,0.0,2.0,0.6,0.05960766809287732,0.2,1.0,-160.0,0,0,calibrating,0,0,0,0,0,0.0
1.5200206279999975,154,181.34,90.7,6.8,18.9,0.55,3.55,0.25,0.2,0.97,0.0,-129.9,-92.6,-137.0,-0.97,2.67,0.09,0.0,0.9904039579888602,3.601041516006168,0.0,0.0,2.0,0.6,0.009141234910297058,0.2,1.0,-160.0,0,0,calibrating,0,0,0,0,0,0.0
1.5313198190000321,155,181.35,90.7,6.8,18.6,0.9,3.56,0.25,0.27,0.93,0.0,-130.9,-105.5,-130.0,-0.94,3.01,0.2,0.0,0.9684007434941384,3.680502683058389,0.0,0.0,2.0,0.6,0.030521560416918447,0.2,1.0,-160.0,0,0,calibrating,0,0,0,0,0,0.0
1.540033329000039,156,181.36,90.7,6.9,18.2,1.32,3.74,0.14,0.3,0.93,-0.01,-132.0,-119.0,-136.0,-0.91,3.39,-0.13,0.0,0.9772410142846032,3.9685765710138443,0.0,0.0,2.0,0.6,0.021247663833924624,0.2,1.0,-160.0,0,0,calibrating,0,0,0,0,0,0.0
1.551481056000057,157,181.37,90.8,6.9,17.8,1.58,3.99,-0.06,0.32,0.95,-0.05,-133.3,-129.2,-98.0,-0.88,3.6,-0.02,0.0,1.0036931802099682,4.291864396739487,0.0,0.0,2.0,0.6,0.005100412049611869,0.2,1.0,-160.0,0,0,calibrating,0,0,0,0,0,0.0
1.5600273830000333,158,181.38,91.0,6.9,17.4,1.58,4.37,-0.25,0.29,1.0,-0.07,-134.6,-134.8,-67.0,-0.84,3.73,0.03,0.0,1.0435516278555652,4.653579267617562,0.0,0.0,2.0,0.6,0.04405968250130443,0.2,1.0,-160.0,0,0,calibrating,0,0,0,0,0,0.0
1.5714338400000543,159,181.39,91.1,6.8,16.9,1.42,4.75,-0.42,0.23,1.03,-0.06,-136.0,-137.1,-22.0,-0.8,3.7,-0.12,0.0,1.057071426158138,4.975469827061561,0.0,0.0,2.0,0.6,0.05642789118779956,0.2,1.0,-160.0,0,0,calibrating,0,0,0,0,0,0.0
1.5800231130000384,160,181.4,91.1,6.8,16.4,1.15,4.94,-0.48,0.15,1.04,-0.03,-137.4,-137.1,-9.0,-0.76,3.72,-0.04,0.0,1.0511898020814319,5.094752202021214,0.0,0.0,2.0,0.6,0.049535341768871755,0.2,1.0,-160.0,0,0,calibrating,0,0,0,0,0,0.0
1.5916919100000086,161,181.41,91.2,6.8,15.9,1.21,5.0,-0.58,0.07,1.03,-0.01,-138.8,-135.8,9.0,-0.73,3.66,0.21,0.0,1.0324243313676793,5.176919933705755,0.0,0.0,2.0,0.6,0.030154473634016687,0.2,1.0,-160.0,0,0,calibrating,0,0,0,0,0,0.0
1.5999080590000858,162,181.42,91.2,6.7,15.4,1.15,4.9,-0.72,0.02,1.01,0.0,-140.1,-134.6,8.0,-0.69,3.64,0.15,0.0,1.010198000393982,5.084378034725585,0.0,0.0,2.0,0.6,0.007769579807113125,0.2,1.0,-160.0,0,0,calibrating,0,0,0,0,0,0.0
1.6113231169999835,163,181.43,91.3,6.6,14.9,0.92,4.64,-0.77,0.0,1.01,0.01,-141.4,-132.7,20.0,-0.66,3.57,0.18,0.0,1.0100495037373167,4.7925880273605825,0.0,0.0,2.0,0.6,0.007468661487438855,0.2,1.0,-160.0,0,0,calibrating,0,0,0,0,0,0.0
1.620031698000048,164,181.44,91.3,6.5,14.5,0.72,4.39,-0.78,-0.03,1.02,0.02,-142.7,-131.1,14.0,-0.62,3.54,-0.21,0.0,1.0206370559606386,4.516514142566145,0.0,0.0,2.0,0.6,0.01769508943654574,0.2,1.0,-160.0,0,0,calibrating,0,0,0,0,0,0.0
1.6314019330000065,165,181.45,91.3,6.5,14.1,0.55,4.09,-0.76,-0.04,1.02,0.03,-144.0,-128.2,34.0,-0.59,3.41,-0.05,0.0,1.0212247548899311,4.196212578027953,0.0,0.0,2.0,0.6,0.017917132598521235,0.2,1.0,-160.0,0,0,calibrating,0,0,0,0,0,0.0
1.6399733289999858,166,181.46,91.3,6.4,13.7,0.35,3.81,-0.74,-0.05,1.0,0.04,-145.3,-122.9,48.0,-0.55,3.25,-0.03,0.0,1.0020479030465559,3.896947523382885,0.0,0.0,2.0,0.6,0.0012345248599570091,0.2,1.0,-160.0,0,0,calibrating,0,0,0,0,0,0.0
1.6516692090000333,167,181.47,91.3,6.3,13.3,0.22,3.51,-0.76,-0.05,0.98,0.05,-146.5,-116.1,63.0,-0.52,3.06,-0.02,0.0,0.98254770876533,3.598068926521558,0.0,0.0,2.0,0.6,0.020320024758359256,0.2,1.0,-160.0,0,0,calibrating,0,0,0,0,0,0.0
1.6600228350000634,168,181.48,91.3,6.3,13.0,0.23,3.26,-0.84,-0.03,0.97,0.05,-147.6,-108.3,72.0,-0.49,2.85,-0.1,0.0,0.9717509969122748,3.3743295630391525,0.0,0.0,2.0,0.6,0.030494401879186173,0.2,1.0,-160.0,0,0,calibrating,0,0,0,0,0,0.0
1.6714713979999942,169,181.49,91.3,6.2,12.6,0.1,3.08,-0.87,-0.01,1.0,0.04,-148.6,-100.4,85.0,-0.46,2.6,-0.04,0.0,1.0008496390567367,3.202077450656058,0.0,0.0,2.0,0.6,0.0013678445400298056,0.2,1.0,-160.0,0,0,calibrating,0,0,0,0,0,0.0
1.680001844000003,170,181.5,91.2,6.1,12.3,-0.12,2.97,-0.85,0.0,1.0,0.03,-149.5,-90.8,96.0,-0.44,2.33,-0.12,0.0,1.0004498987955368,3.0915691808529857,0.0,0.0,2.0,0.6,0.0017322331052052053,0.2,1.0,-160.0,0,0,calibrating,0,0,0,0,0,0.0
1.691685014000086,171,181.51,91.2,6.0,12.0,-0.31,2.86,-0.79,0.01,1.01,0.03,-150.4,-78.8,115.0,-0.42,1.99,-0.05,0.0,1.0104949282406122,2.9832532577707846,0.0,0.0,2.0,0.6,0.008146540413072723,0.2,1.0,-160.0,0,0,calibrating,0,0,0,0,0,0.0
1.6998915249999982,172,181.52,91.1,5.9,11.7,-0.45,2.77,-0.69,0.03,1.02,0.03,-151.1,-64.8,143.0,-0.4,1.54,0.02,0.0,1.0208819716304132,2.8898961919072454,0.0,0.0,2.0,0.6,0.018162912126816533,0.2,1.0,-160.0,0,0,calibrating,0,0,0,0,0,0.0
1.711482014000012,173,181.53,91.0,5.8,11.5,-0.47,2.63,-0.6,0.04,1.01,0.04,-151.6,-48.5,159.0,-0.39,1.1,-0.03,0.0,1.011582918005242,2.7382110948573706,0.0,0.0,2.0,0.6,0.008686581331612375,0.2,1.0,-160.0,0,0,calibrating,0,0,0,0,0,0.0
1.72002529100007,174,181.54,90.9,5.7,11.2,-0.46,2.42,-0.55,0.05,1.01,0.04,-152.0,-27.8,206.0,-0.38,0.45,-0.14,0.0,1.01202766760598,2.5239849444875855,0.0,0.0,2.0,0.6,0.008948704313703315,0.2,1.0,-160.0,0,0,calibrating,0,0,0,0,0,0.0
1.7314419090000683,175,181.55,90.8,5.7,11.0,-0.28,2.16,-0.58,0.05,1.01,0.05,-152.1,-2.7,224.0,-0.38,-0.17,-0.08,0.0,1.0124722218411721,2.253974267821175,0.0,0.0,2.0,0.6,0.009205393377917481,0.2,1.0,-160.0,0,0,calibrating,0,0,0,0,0,0.0
1.7400242260000596,176,181.56,90.7,5.6,10.8,-0.08,1.95,-0.7,0.05,1.02,0.04,-152.0,12.5,147.0,-0.39,-0.44,0.05,0.0,1.0220078277586724,2.0733788848157975,0.0,0.0,2.0,0.6,0.018366179309509345,0.2,1.0,-160.0,0,0,calibrating,0,0,0,0,0,0.0
1.7516617659999838,177,181.57,90.6,5.5,10.6,0.01,1.77,-0.9,0.04,1.03,0.04,-151.8,21.9,116.0,-0.39,-0.7,-0.05,0.0,1.0315522284402279,1.985698869416005,0.0,0.0,2.0,0.6,0.027352368391243553,0.2,1.0,-160.0,0,0,calibrating,0,0,0,0,0,0.0
1.760025411000015,178,181.58,90.6,5.3,10.4,-0.02,1.64,-1.11,0.03,1.04,0.03,-151.5,31.8,113.0,-0.4,-1.02,-0.34,0.0,1.0408650248711404,1.9804292464008906,0.0,0.0,2.0,0.6,0.03593186152571315,0.2,1.0,-160.0,0,0,calibrating,0,0,0,0,0,0.0
1.7714634900000874,179,181.59,90.6,5.2,10.2,-0.14,1.53,-1.31,0.02,1.03,0.01,-151.1,45.4,137.0,-0.42,-1.43,-0.12,0.0,1.0302426898551622,2.0190591868491623,0.0,0.0,2.0,0.6,0.024803335979540098,0.2,1.0,-160.0,0,0,calibrating,0,0,0,0,0,0.0
1.7800410580000516,180,181.6,90.5,5.0,10.1,-0.22,1.45,-1.45,0.03,1.03,0.0,-150.5,61.7,148.0,-0.43,-1.85,-0.15,0.0,1.0304368005850721,2.0623772690756654,0.0,0.0,2.0,0.6,0.024497497775261,0.2,1.0,-160.0,0,0,calibrating,0,0,0,0,0,0.0
1.791376205000006,181,181.61,90.5,4.8,9.9,-0.27,1.44,-1.53,0.03,1.02,0.0,-149.8,77.7,169.0,-0.45,-2.35,-0.01,0.0,1.0204410811016968,2.1183484132691675,0.0,0.0,2.0,0.6,0.014211742726047971,0.2,1.0,-160.0,0,0,calibrating,0,0,0,0,0,0.0
1.8000324519999822,182,181.62,90.4,4.6,9.8,-0.39,1.48,-1.55,0.05,1.01,-0.01,-148.9,97.4,192.0,-0.48,-2.9,0.02,0.0,1.0112863096077194,2.1783020910791966,0.0,0.0,2.0,0.6,0.004955831807428979,0.2,1.0,-160.0,0,0,calibrating,0,0,0,0,0,0.0
1.8115299670000695,183,181.63,90.4,4.5,9.6,-0.58,1.6,-1.51,0.06,1.0,-0.02,-147.8,119.0,209.0,-0.52,-3.5,0.04,0.0,1.0019980039900278,2.275192299565028,0.0,0.0,2.0,0.6,0.004245824334057291,0.2,1.0,-160.0,0,0,calibrating,0,0,0,0,0,0.0
1.8200399209999887,184,181.64,90.3,4.3,9.5,-0.77,1.74,-1.45,0.07,0.98,-0.02,-146.4,141.5,221.0,-0.55,-4.12,-0.19,0.0,0.982700361249552,2.3922792479140056,0.0,0.0,2.0,0.6,0.023072597733042377,0.2,1.0,-160.0,0,0,calibrating,0,0,0,0,0,0.0
1.8313282220000247,185,181.65,90.2,4.2,9.3,-0.81,1.88,-1.38,0.08,0.96,-0.03,-144.8,165.5,233.0,-0.6,-4.78,-0.12,0.0,0.9637945839233586,2.468785126332383,0.0,0.0,2.0,0.6,0.041138807558050994,0.2,1.0,-160.0,0,0,calibrating,0,0,0,0,0,0.0
1.840050548000022,186,181.66,90.1,4.1,9.1,-0.76,2.0,-1.31,0.08,0.94,-0.03,-143.0,187.5,218.0,-0.65,-5.35,-0.22,0.0,0.9438749917229505,2.5087247756579436,0.0,0.0,2.0,0.6,0.05983723176328981,0.2,1.0,-160.0,0,0,calibrating,0,0,0,0,0,0.0
1.8516398550000304,187,181.67,90.1,3.9,8.9,-0.67,2.14,-1.25,0.07,0.93,-0.04,-141.0,208.1,212.0,-0.71,-5.92,0.08,0.0,0.9334880824091972,2.5672942955570948,0.0,0.0,2.0,0.6,0.06881965825550229,0.2,1.0,-160.0,0,0,calibrating,0,0,0,0,0,0.0
1.8600310890000173,188,181.68,90.0,3.8,8.7,-0.52,2.21,-1.21,0.05,0.94,-0.05,-138.8,229.5,214.0,-0.77,-6.5,-0.21,0.0,0.9426558226627574,2.572663988942202,0.0,0.0,2.0,0.6,0.058458879641903105,0.2,1.0,-160.0,0,0,calibrating,0,0,0,0,0,0.0
1.871611367000014,189,181.69,90.0,3.7,8.4,-0.41,2.22,-1.16,0.03,0.95,-0.05,-136.3,252.6,228.0,-0.84,-7.15,-0.03,0.0,0.9517877914745492,2.5381292323284095,0.0,0.0,2.0,0.6,0.048340372613508986,0.2,1.0,-160.0,0,0,calibrating,0,0,0,0,0,0.0
1.880178264000051,190,181.7,90.0,3.6,8.2,-0.41,2.16,-1.13,0.01,0.97,-0.05,-133.6,274.5,205.0,-0.92,-7.67,-0.05,0.0,0.9713392816107047,2.4719627828913606,0.0,0.0,2.0,0.6,0.028213104827806368,0.2,1.0,-160.0,0,0,calibrating,0,0,0,0,0,0.0
1.8913291000000072,191,181.71,90.0,3.4,8.0,-0.47,2.02,-1.09,-0.01,0.98,-0.05,-130.8,289.8,165.0,-1.0,-8.06,0.12,0.0,0.9813256340277675,2.342946862393597,0.0,0.0,2.0,0.6,0.017862217362528687,0.2,1.0,-160.0,0,0,calibrating,0,0,0,0,0,0.0
1.9000328930000023,192,181.72,89.9,3.3,7.8,-0.52,1.89,-1.04,-0.02,0.98,-0.05,-127.8,307.9,193.0,-1.08,-8.64,-0.26,0.0,0.9814784765851974,2.219031320193566,0.0,0.0,2.0,0.6,0.017355187308996878,0.2,1.0,-160.0,0,0,calibrating,0,0,0,0,0,0.0
1.9113779919999843,193,181.73,89.9,3.1,7.6,-0.58,1.75,-0.97,-0.02,0.99,-0.05,-124.5,325.4,142.0,-1.17,-8.93,-0.05,0.0,0.9914635646356349,2.0832186635108663,0.0,0.0,2.0,0.6,0.00722269727338809,0.2,1.0,-160.0,0,0,calibrating,0,0,0,0,0,0.0
1.9199984760000461,194,181.74,89.9,3.0,7.5,-0.7,1.62,-0.84,-0.03,0.99,-0.05,-121.3,325.5,15.0,-1.26,-8.76,0.19,0.0,0.9917156850630123,1.9544820285692064,0.0,0.0,2.0,0.6,0.006831165309090559,0.2,1.0,-160.0,0,0,calibrating,0,0,0,0,0,0.0
1.9314263869999877,195,181.75,89.8,2.9,7.3,-0.81,1.46,-0.67,-0.03,0.99,-0.05,-118.1,316.8,-63.0,-1.34,-8.46,0.0,0.0,0.9917156850630123,1.799055307654548,0.0,0.0,2.0,0.6,0.006694542002908754,0.2,1.0,-160.0,0,0,calibrating,0,0,0,0,0,0.0
1.940052964000074,196,181.76,89.7,2.8,7.2,-0.87,1.27,-0.49,-0.03,0.98,-0.06,-115.0,302.1,-140.0,-1.43,-7.96,0.13,0.0,0.9822932352408826,1.6155184926208677,0.0,0.0,2.0,0.6,0.0157946519885378,0.2,1.0,-160.0,0,0,calibrating,0,0,0,0,0,0.0
1.9513222860000496,197,181.77,89.6,2.7,7.1,-0.86,1.04,-0.34,-0.02,0.97,-0.06,-112.1,280.6,-187.0,-1.5,-7.38,0.24,0.0,0.97205966895042,1.3916896205691842,0.0,0.0,2.0,0.6,0.02550765391342036,0.2,1.0,-160.0,0,0,calibrating,0,0,0,0,0,0.0
1.9600303530000929,198,181.78,89.6,2.7,7.0,-0.83,0.84,-0.23,0.0,0.98,-0.06,-109.5,262.7,-168.0,-1.57,-6.96,0.19,0.0,0.9818350166906862,1.2030793822520607,0.0,0.0,2.0,0.6,0.015417660049691029,0.2,1.0,-160.0,0,0,calibrating,0,0,0,0,0,0.0
1.9715910360000635,199,181.79,89.6,2.6,6.9,-0.89,0.66,-0.13,0.01,0.99,-0.06,-106.9,247.1,-166.0,-1.64,-6.5,0.05,0.0,0.9918669265581951,1.1156164215356459,0.0,0.0,2.0,0.6,0.0052780351785385315,0.2,1.0,-160.0,0,0,calibrating,0,0,0,0,0,0.0
1.9800242730000264,200,181.8,89.5,2.6,6.9,-1.0,0.52,-0.03,0.01,0.99,-0.07,-104.6,230.7,-164.0,-1.7,-6.07,-0.07,0.0,0.9925220400575495,1.1275194011634566,0.0,0.0,2.0,0.6,0.004530463245600469,0.2,1.0,-160.0,0,0,calibrating,0,0,0,0,0,0.0
1.991419833000009,201,181.81,89.4,2.6,6.8,-1.13,0.44,0.08,0.0,0.98,-0.07,-102.4,217.4,-123.0,-1.76,-5.81,-0.04,0.0,0.9824968193332739,1.2152777460317454,0.0,0.0,2.0,0.6,0.014264570290478562,0.2,1.0,-160.0,0,0,calibrating,0,0,0,0,0,0.0
2.000012340000012,202,181.82,89.4,2.6,6.8,-1.11,0.35,0.22,0.0,0.96,-0.07,-100.2,210.8,-77.0,-1.82,-5.67,-0.05,0.0,0.9625487000666512,1.184483009586883,0.0,0.0,2.0,0.6,0.03352843576595932,0.2,1.0,-160.0,0,0,calibrating,0,0,0,0,0,0.0
2.0113729280000143,203,181.83,89.3,2.6,6.7,-1.01,0.23,0.35,-0.01,0.95,-0.07,-98.2,205.0,-75.0,-1.87,-5.46,0.0,0.0,0.9526279441628825,1.0933892262136116,0.0,0.0,2.0,0.6,0.04258020783633343,0.2,1.0,-160.0,0,0,calibrating,0,0,0,0,0,0.0
2.019992419999994,204,181.84,89.2,2.6,6.7,-0.83,0.04,0.46,-0.01,0.94,-0.07,-96.2,197.8,-76.0,-1.93,-5.27,0.16,0.0,0.9426558226627574,0.9497894503520241,0.0,0.0,2.0,0.6,0.05150128274972943,0.2,1.0,-160.0,0,0,calibrating,0,0,0,0,0,0.0
2.0314117909999823,205,181.85,89.2,2.6,6.7,-0.65,-0.19,0.57,-0.01,0.95,-0.08,-94.2,188.8,-89.0,-1.98,-4.99,0.08,0.0,0.9534149149242421,0.8851553535961922,0.0,0.0,2.0,0.6,0.03992734667847975,0.2,1.0,-160.0,0,0,calibrating,0,0,0,0,0,0.0
2.0400242750000643,206,181.86,89.1,2.7,6.8,-0.55,-0.41,0.68,-0.02,0.98,-0.08,-92.4,180.6,-71.0,-2.03,-4.85,0.12,0.0,0.9834632682515396,0.96591925128346,0.0,0.0,2.0,0.6,0.009681413484158519,0.2,1.0,-160.0,0,0,calibrating,0,0,0,0,0,0.0
2.051425145000053,207,181.87,89.0,2.8,6.8,-0.57,-0.61,0.79,-0.03,0.99,-0.07,-90.7,175.6,-52.0,-2.07,-4.73,0.0,0.0,0.9929249719893241,1.1493911431710269,0.0,0.0,2.0,0.6,0.00021531555144671533,0.2,1.0,-160.0,0,0,calibrating,0,0,0,0,0,0.0
2.0600209510000695,208,181.88,89.0,2.9,6.9,-0.63,-0.83,0.9,-0.04,1.0,-0.08,-88.9,171.1,-54.0,-2.12,-4.57,0.08,0.0,1.0039920318408906,1.3768805322176647,0.0,0.0,2.0,0.6,0.010634709414117371,0.2,1.0,-160.0,0,0,calibrating,0,0,0,0,0,0.0
2.071464687999992,209,181.89,88.9,3.0,7.0,-0.62,-1.04,1.01,-0.04,1.0,-0.07,-87.3,163.1,-80.0,-2.16,-4.31,0.13,0.0,1.0032447358446492,1.5767371372552879,0.0,0.0,2.0,0.6,0.009689665149518523,0.2,1.0,-160.0,0,0,calibrating,0,0,0,0,0,0.0
2.0799928650000084,210,181.9,88.9,3.1,7.1,-0.6,-1.28,1.08,-0.04,0.99,-0.07,-85.7,153.1,-92.0,-2.21,-4.04,-0.01,0.0,0.9932774033471213,1.778988476634967,0.0,0.0,2.0,0.6,0.00027211400104920624,0.2,1.0,-160.0,0,0,calibrating,0,0,0,0,0,0.0
2.0916020540000773,211,181.91,88.8,3.2,7.2,-0.55,-1.5,1.12,-0.03,0.98,-0.07,-84.2,144.5,-83.0,-2.24,-3.83,0.04,0.0,0.9829547293746543,1.951127878945919,0.0,0.0,2.0,0.6,0.010382892214045869,0.2,1.0,-160.0,0,0,calibrating,0,0,0,0,0,0.0
2.100061879000009,212,181.92,88.8,3.3,7.4,-0.48,-1.65,1.14,-0.02,0.97,-0.07,-82.8,137.8,-73.0,-2.28,-3.66,0.03,0.0,0.9727281223445737,2.062159062730128,0.0,0.0,2.0,0.6,0.0201973092592439,0.2,1.0,-160.0,0,0,calibrating,0,0,0,0,0,0.0
2.11117670200008,213,181.93,88.8,3.4,7.6,-0.37,-1.74,1.12,0.0,0.96,-0.08,-81.5,131.3,-63.0,-2.32,-3.5,0.14,0.0,0.9633275663033836,2.102117979562517,0.0,0.0,2.0,0.6,0.029005907994425373,0.2,1.0,-160.0,0,0,calibrating,0,0,0,0,0,0.0
2.1200294740000345,214,181.94,88.7,3.5,7.7,-0.24,-1.76,1.1,0.01,0.96,-0.08,-80.2,125.5,-63.0,-2.35,-3.32,0.03,0.0,0.9633794683301071,2.0893061049066026,0.0,0.0,2.0,0.6,0.028374925848347776,0.2,1.0,-160.0,0,0,calibrating,0,0,0,0,0,0.0
2.1314079040000706,215,181.95,88.8,3.6,7.9,-0.17,-1.74,1.08,0.04,0.95,-0.08,-79.0,117.4,-77.0,-2.38,-3.11,0.05,0.0,0.95420123663722,2.0549695861496344,0.0,0.0,2.0,0.6,0.036802094390410156,0.2,1.0,-160.0,0,0,calibrating,0,0,0,0,0,0.0
2.139991212000041,216,181.96,88.8,3.7,8.1,-0.07,-1.69,1.04,0.04,0.94,-0.09,-77.9,105.4,-124.0,-2.41,-2.66,-0.02,0.0,0.9451454914456292,1.9855981466550576,0.0,0.0,2.0,0.6,0.0449406827903609,0.2,1.0,-160.0,0,0,calibrating,0,0,0,0,0,0.0
2.1514049460000706,217,181.97,88.9,3.8,8.3,0.05,-1.64,1.02,0.05,0.95,-0.1,-77.0,87.9,-175.0,-2.43,-2.1,0.06,0.0,0.9565563234854495,1.9319679086361656,0.0,0.0,2.0,0.6,0.03285925373552978,0.2,1.0,-160.0,0,0,calibrating,0,0,0,0,0,0.0
2.1600690029999896,218,181.98,89.0,3.9,8.4,0.12,-1.6,1.0,0.05,0.95,-0.1,-76.3,64.0,-232.0,-2.45,-1.39,0.03,0.0,0.9565563234854495,1.890608367695436,0.0,0.0,2.0,0.6,0.032202068660819205,0.2,1.0,-160.0,0,0,calibrating,0,0,0,0,0,0.0
2.171356959000036,219,181.99,89.1,4.0,8.6,0.13,-1.57,0.99,0.05,0.96,-0.09,-75.8,35.0,-266.0,-2.46,-0.62,0.1,0.0,0.9655050491841044,1.8606181768433845,0.0,0.0,2.0,0.6,0.02278827610292089,0.2,1.0,-160.0,0,0,calibrating,0,0,0,0,0,0.0
2.180074622999996,220,182.0,89.2,4.1,8.8,0.07,-1.56,1.0,0.04,0.96,-0.09,-75.7,13.5,-351.0,-2.46,0.12,0.08,0.0,0.9650388593212192,1.8543192821086665,0.0,0.0,2.0,0.6,0.022789376646490056,0.2,1.0,-160.0,0,0,calibrating,0,0,0,0,0,0.0
2.1912777960000085,221,182.01,89.3,4.2,8.9,0.02,-1.57,1.03,0.03,0.95,-0.09,-75.7,-7.9,-160.0,-2.46,0.21,-0.12,0.0,0.954725091322104,1.877817882543459,0.0,0.0,2.0,0.6,0.03244108175269311,0.2,1.0,-160.0,0,0,calibrating,0,0,0,0,0,0.0
2.2000752349999857,222,182.02,89.3,4.3,9.1,0.0,-1.65,1.12,0.0,0.94,-0.09,-75.8,-7.2,-51.0,-2.45,0.19,0.05,0.0,0.9442986815621421,1.994216638181519,0.0,0.0,2.0,0.6,0.042010141682401914,0.2,1.0,-160.0,0,0,calibrating,0,0,0,0,0,0.0
2.2112753010000006,223,182.03,89.3,4.4,9.2,0.11,-1.82,1.22,-0.02,0.94,-0.08,-75.9,-11.4,-69.0,-2.45,0.42,0.13,0.0,0.9436100889668358,2.1938322634148677,0.0,0.0,2.0,0.6,0.041844759592153946,0.2,1.0,-160.0,0,0,calibrating,0,0,0,0,0,0.0
2.220024874000046,224,182.04,89.3,4.6,9.4,0.2,-2.06,1.31,-0.03,0.94,-0.07,-76.1,-19.9,-72.0,-2.45,0.61,0.11,0.0,0.9430800602281866,2.449428504774124,0.0,0.0,2.0,0.6,0.0415272925641873,0.2,1.0,-160.0,0,0,calibrating,0,0,0,0,0,0.0
2.2313720990000547,225,182.05,89.4,4.7,9.7,0.44,-2.44,1.33,-0.02,0.93,-0.04,-76.3,-26.1,-69.0,-2.44,0.8,0.25,0.0,0.9310746479203481,2.8135564682444176,0.0,0.0,2.0,0.6,0.05246205077458521,0.2,1.0,-160.0,0,0,calibrating,0,0,0,0,0,0.0
2.24004357900003,226,182.06,89.5,4.8,9.9,1.03,-2.88,1.19,0.01,0.95,-0.03,-76.6,-33.5,-62.0,-2.43,0.96,0.13,0.0,0.9505261700763424,3.2819811090254616,0.0,0.0,2.0,0.6,0.03235031804621902,0.2,1.0,-160.0,0,0,calibrating,0,0,0,0,0,0.0
2.2514412830000765,227,182.07,89.7,4.9,10.2,1.5,-3.16,0.9,0.05,0.98,-0.03,-77.0,-39.4,-67.0,-2.42,1.15,0.13,0.0,0.9817331613019904,3.61186932211009,0.0,0.0,2.0,0.6,0.0011204602841596856,0.2,1.0,-160.0,0,0,calibrating,0,0,0,0,0,0.0
2.260019281000041,228,182.08,89.9,5.0,10.6,1.55,-3.15,0.57,0.06,1.02,-0.09,-77.5,-48.1,-90.0,-2.4,1.44,0.12,0.0,1.0257192598367255,3.556669790689037,0.0,0.0,2.0,0.6,0.04200832548556388,0.2,1.0,-160.0,0,0,calibrating,0,0,0,0,0,0.0
2.2713470890000735,229,182.09,90.1,5.0,10.9,1.11,-2.98,0.28,0.05,1.03,-0.09,-78.0,-63.1,-149.0,-2.39,1.96,-0.07,0.0,1.035132841716463,3.1923189063751134,0.0,0.0,2.0,0.6,0.05039346921799526,0.2,1.0,-160.0,0,0,calibrating,0,0,0,0,0,0.0
2.2800027870000577,230,182.1,90.3,5.0,11.2,0.74,-2.91,0.08,0.05,1.02,-0.08,-78.8,-82.7,-177.0,-2.36,2.47,0.07,0.0,1.02435345462394,3.0036810749478713,0.0,0.0,2.0,0.6,0.0388218004829628,0.2,1.0,-160.0,0,0,calibrating,0,0,0,0,0,0.0
2.291513863000091,231,182.11,90.4,5.0,11.5,0.75,-2.93,-0.02,0.07,0.98,-0.07,-79.8,-101.6,-173.0,-2.33,2.95,0.06,0.0,0.9849873095629201,3.024533021806838,0.0,0.0,2.0,0.6,0.0005334576864958196,0.2,1.0,-160.0,0,0,calibrating,0,0,0,0,0,0.0
2.3000172680000333,232,182.12,90.6,5.0,11.8,1.19,-3.05,-0.19,0.11,0.97,-0.05,-80.9,-115.6,-147.0,-2.3,3.31,0.11,0.0,0.9774968030638258,3.279435927106977,0.0,0.0,2.0,0.6,0.007863484901878381,0.2,1.0,-160.0,0,0,calibrating,0,0,0,0,0,0.0
2.3113226469999972,233,182.13,90.8,4.9,12.1,1.56,-3.0,-0.43,0.14,1.0,-0.05,-82.1,-129.3,-135.0,-2.27,3.66,0.11,0.0,1.0109896141899777,3.4085920847176774,0.0,0.0,2.0,0.6,0.025116739699788004,0.2,1.0,-160.0,0,0,calibrating,0,0,0,0,0,0.0
2.3200226860000157,234,182.14,91.0,4.9,12.4,1.71,-2.71,-0.71,0.17,1.04,-0.05,-83.5,-139.4,-92.0,-2.23,3.84,0.02,0.0,1.0549881515922348,3.2821182184680673,0.0,0.0,2.0,0.6,0.06773297156000424,0.2,1.0,-160.0,0,0,calibrating,0,0,0,0,0,0.0
2.33145231900005,235,182.15,91.2,4.9,12.6,1.83,-2.17,-1.11,0.21,1.07,-0.04,-84.9,-140.9,-22.0,-2.19,3.78,0.0,0.0,1.091146186356347,3.0479337263136155,0.0,0.0,2.0,0.6,0.10181318619763413,0.2,1.0,-160.0,0,0,calibrating,0,0,0,0,0,0.0
2.339999603000024,236,182.16,91.4,4.8,12.8,2.05,-1.48,-1.5,0.24,1.12,-0.04,-86.3,-137.4,21.0,-2.15,3.66,0.2,0.0,1.1461239025515524,2.9398809499705933,0.0,0.0,2.0,0.6,0.15365508434498276,0.2,1.0,-160.0,0,0,calibrating,0,0,0,0,0,0.0
2.3514264600000843,237,182.17,91.6,4.6,12.9,2.06,-0.72,-1.85,0.24,1.16,-0.06,-87.6,-131.1,56.0,-2.12,3.47,-0.01,0.0,1.186086000254619,2.8608565151017276,0.0,0.0,2.0,0.6,0.18974483840708833,0.2,1.0,-160.0,0,0,calibrating,0,0,0,0,0,0.0
2.3600382890000446,238,182.18,91.8,4.5,12.9,1.85,-0.05,-2.04,0.21,1.19,-0.04,-88.9,-123.5,64.0,-2.08,3.28,0.02,0.0,1.2090492132250035,2.7543783327640377,0.0,0.0,2.0,0.6,0.20845389034992334,0.2,1.0,-160.0,0,0,calibrating,0,0,0,0,0,0.0
2.3712593090000382,239,182.19,92.0,4.3,12.9,1.65,0.27,-1.94,0.15,1.21,-0.02,-90.1,-118.8,43.0,-2.05,3.19,0.04,0.0,1.219426094521517,2.5610544703305314,0.0,0.0,2.0,0.6,0.21445415621350805,0.2,1.0,-160.0,0,0,calibrating,0,0,0,0,0,0.0
2.3800863360000903,240,182.2,92.1,4.2,12.9,1.32,0.31,-1.51,0.06,1.2,0.0,-91.3,-117.6,19.0,-2.02,3.18,0.07,0.0,1.201499063670047,2.029433418469303,0.0,0.0,2.0,0.6,0.19259658285479753,0.2,1.0,-160.0,0,0,calibrating,0,0,0,0,0,0.0
2.391328886999986,241,182.21,92.2,4.0,12.8,1.12,0.07,-0.89,-0.02,1.17,0.02,-92.5,-117.9,-6.0,-1.99,3.25,0.07,0.0,1.1703418304068258,1.4322709240922264,0.0,0.0,2.0,0.6,0.15821056259974475,0.2,1.0,-160.0,0,0,calibrating,0,0,0,0,0,0.0
2.400021428000059,242,182.22,92.3,4.0,12.9,1.31,-0.49,-0.27,-0.1,1.14,0.06,-93.6,-119.5,-8.0,-1.96,3.26,-0.02,0.0,1.145949388062143,1.4244648117802,0.0,0.0,2.0,0.6,0.13114175784996074,0.2,1.0,-160.0,0,0,calibrating,0,0,0,0,0,0.0
2.4112777100000358,243,182.23,92.5,4.0,12.9,1.93,-1.26,0.2,-0.15,1.12,0.08,-94.8,-120.5,-7.0,-1.92,3.28,-0.05,0.0,1.1328283188550683,2.313547060251855,0.0,0.0,2.0,0.6,0.11566027487002839,0.2,1.0,-160.0,0,0,calibrating,0,0,0,0,0,0.0
2.4201015639999923,244,182.24,92.7,4.0,13.1,2.26,-2.0,0.62,-0.15,1.16,0.09,-96.1,-120.5,2.0,-1.89,3.26,-0.24,0.0,1.173115510084152,3.080908956785318,0.0,0.0,2.0,0.6,0.15282851677712972,0.2,1.0,-160.0,0,0,calibrating,0,0,0,0,0,0.0
2.431153436000045,245,182.25,93.0,4.1,13.4,2.06,-2.61,0.97,-0.13,1.17,0.08,-97.3,-119.5,11.0,-1.86,3.21,0.07,0.0,1.179915251193915,3.46361083264272,0.0,0.0,2.0,0.6,0.15643569272915503,0.2,1.0,-160.0,0,0,calibrating,0,0,0,0,0,0.0
2.4399621740000157,246,182.26,93.2,4.2,13.7,1.55,-3.14,1.22,-0.1,1.15,0.08,-98.4,-115.9,40.0,-1.83,3.06,-0.23,0.0,1.1571084650973735,3.70816666292118,0.0,0.0,2.0,0.6,0.1309563284999613,0.2,1.0,-160.0,0,0,calibrating,0,0,0,0,0,0.0
2.4513725830000794,247,182.27,93.3,4.3,14.0,1.09,-3.6,1.35,-0.03,1.1,0.08,-99.5,-108.7,59.0,-1.8,2.87,0.11,0.0,1.103313192162588,3.9963233102440547,0.0,0.0,2.0,0.6,0.07561783445387249,0.2,1.0,-160.0,0,0,calibrating,0,0,0,0,0,0.0
2.4599960940000756,248,182.28,93.4,4.4,14.4,0.66,-3.93,1.35,0.03,1.03,0.09,-100.6,-102.1,67.0,-1.77,2.67,-0.01,0.0,1.0343597053249898,4.207493315502711,0.0,0.0,2.0,0.6,0.006531060663948596,0.2,1.0,-160.0,0,0,calibrating,0,0,0,0,0,0.0
2.471200981000038,249,182.29,93.5,4.5,14.8,0.27,-4.12,1.25,0.09,0.96,0.09,-101.5,-91.9,94.0,-1.75,2.36,0.0,0.0,0.9684007434941384,4.313907741248067,0.0,0.0,2.0,0.6,0.058239343143564826,0.2,1.0,-160.0,0,0,calibrating,0,0,0,0,0,0.0
2.4800874140000815,250,182.3,93.6,4.6,15.2,0.01,-4.19,1.04,0.14,0.9,0.1,-102.4,-80.5,112.0,-1.72,2.03,-0.02,0.0,0.9162968951164246,4.3171518388863745,0.0,0.0,2.0,0.6,0.10813632769085302,0.2,1.0,-160.0,0,0,calibrating,0,0,0,0,0,0.0
2.4912641740000936,251,182.31,93.6,4.7,15.7,-0.09,-4.17,0.88,0.19,0.85,0.09,-103.1,-68.8,108.0,-1.71,1.74,-0.03,0.0,0.8756140702387096,4.26279251195739,0.0,0.0,2.0,0.6,0.14584276951719666,0.2,1.0,-160.0,0,0,calibrating,0,0,0,0,0,0.0
2.500058234999983,252,182.32,93.6,4.7,16.1,-0.13,-4.07,0.78,0.22,0.82,0.08,-103.7,-56.0,136.0,-1.69,1.31,-0.3,0.0,0.8527602242131136,4.146106607408932,0.0,0.0,2.0,0.6,0.16532268323193677,0.2,1.0,-160.0,0,0,calibrating,0,0,0,0,0,0.0
2.5112342190000163,253,182.33,93.6,4.8,16.5,-0.04,-3.88,0.71,0.23,0.8,0.07,-104.2,-39.8,150.0,-1.68,0.89,0.0,0.0,0.8353442404182841,3.9446292601460025,0.0,0.0,2.0,0.6,0.1790838936862308,0.2,1.0,-160.0,0,0,calibrating,0,0,0,0,0,0.0
2.5200209170000107,254,182.34,93.7,4.8,16.9,0.14,-3.63,0.62,0.24,0.81,0.06,-104.4,-24.6,139.0,-1.67,0.52,-0.09,0.0,0.8469356528095864,3.6852272657191714,0.0,0.0,2.0,0.6,0.16414263166902998,0.2,1.0,-160.0,0,0,calibrating,0,0,0,0,0,0.0
2.5312225760000047,255,182.35,93.7,4.8,17.2,0.32,-3.34,0.49,0.25,0.82,0.04,-104.6,-13.9,115.0,-1.67,0.25,0.03,0.0,0.8581957818586619,3.3908848402739955,0.0,0.0,2.0,0.6,0.1498248525675554,0.2,1.0,-160.0,0,0,calibrating,0,0,0,0,0,0.0
2.539958332000083,256,182.36,93.8,4.9,17.5,0.36,-2.95,0.33,0.26,0.85,0.01,-104.7,-3.0,110.0,-1.67,-0.03,-0.04,0.0,0.8889319434017432,2.99015049788468,0.0,0.0,2.0,0.6,0.11670691720398463,0.2,1.0,-160.0,0,0,calibrating,0,0,0,0,0,0.0
2.5513630039999953,257,182.37,93.8,4.9,17.8,0.22,-2.52,0.18,0.26,0.87,0.0,-104.7,2.3,42.0,-1.67,-0.03,-0.03,0.0,0.9080198235721508,2.535981072484572,0.0,0.0,2.0,0.6,0.09566665629290538,0.2,1.0,-160.0,0,0,calibrating,0,0,0,0,0,0.0
2.559987035000063,258,182.38,93.9,4.9,18.0,0.11,-2.14,0.06,0.25,0.88,0.0,-104.7,-0.3,0.0,-1.67,0.02,-0.03,0.0,0.9148223871331528,2.143665085781825,0.0,0.0,2.0,0.6,0.08708681087726544,0.2,1.0,-160.0,0,0,calibrating,0,0,0,0,0,0.0
2.5714362859999937,259,182.39,93.9,4.9,18.2,0.11,-1.8,0.0,0.24,0.91,0.0,-104.7,-0.4,5.0,-1.67,0.0,0.03,0.0,0.9411163583744574,1.8033579788827288,0.0,0.0,2.0,0.6,0.059576982843241644,0.2,1.0,-160.0,0,0,calibrating,0,0,0,0,0,0.0
2.5800247619999936,260,182.4,93.9,4.8,18.4,0.27,-1.51,-0.02,0.22,0.93,-0.02,-104.7,-0.2,-5.0,-1.67,0.03,0.03,0.0,0.9558765610684259,1.534079528577316,0.0,0.0,2.0,0.6,0.04392044454628774,0.2,1.0,-160.0,0,0,calibrating,0,0,0,0,0,0.0
2.5911365069999874,261,182.41,94.0,4.8,18.5,0.49,-1.22,0.03,0.22,0.99,-0.03,-104.7,-1.5,-4.0,-1.67,0.04,-0.2,0.0,1.0145935146648632,1.315066538240556,0.0,0.0,2.0,0.6,0.014500578869146574,0.2,1.0,-160.0,0,0,calibrating,0,0,0,0,0,0.0
2.6000165970000353,262,182.42,94.1,4.8,18.6,0.65,-0.9,0.17,0.2,1.04,-0.03,-104.7,-1.2,0.0,-1.67,0.03,-0.03,0.0,1.0594810050208545,1.1231206524679351,0.0,0.0,2.0,0.6,0.05820030784063501,0.2,1.0,-160.0,0,0,calibrating,0,0,0,0,0,0.0
2.61135475399999,263,182.43,94.1,4.9,18.7,0.76,-0.66,0.36,0.19,1.09,-0.03,-104.7,-1.9,-9.0,-1.67,0.07,0.02,0.0,1.106842355532169,1.0690182411914213,0.0,0.0,2.0,0.6,0.10345042518491043,0.2,1.0,-160.0,0,0,calibrating,0,0,0,0,0,0.0
2.619980493000071,264,182.44,94.2,5.0,18.8,0.7,-0.5,0.56,0.18,1.12,-0.03,-104.7,-3.5,-15.0,-1.67,0.13,0.02,0.0,1.1347686988985906,1.0264501936285073,0.0,0.0,2.0,0.6,0.1287492331803055,0.2,1.0,-160.0,0,0,calibrating,0,0,0,0,0,0.0
2.631111979000025,265,182.45,94.2,5.1,18.8,0.57,-0.44,0.71,0.17,1.11,-0.03,-104.8,-7.1,-41.0,-1.67,0.28,0.11,0.0,1.1233432244866215,1.011236866416568,0.0,0.0,2.0,0.6,0.11497728359296966,0.2,1.0,-160.0,0,0,calibrating,0,0,0,0,0,0.0
2.6399801310000157,266,182.46,94.3,5.2,18.9,0.39,-0.45,0.77,0.16,1.09,-0.04,-104.9,-17.5,-92.0,-1.66,0.61,0.0,0.0,1.1024064586167845,0.9733961166965892,0.0,0.0,2.0,0.6,0.09215970736866974,0.2,1.0,-160.0,0,0,calibrating,0,0,0,0,0,0.0
2.6513559979999854,267,182.47,94.3,5.3,18.9,0.24,-0.52,0.81,0.15,1.05,-0.04,-105.2,-29.4,-105.0,-1.65,0.93,0.07,0.0,1.0614141510268271,0.9920181449953424,0.0,0.0,2.0,0.6,0.05014405178313819,0.2,1.0,-160.0,0,0,calibrating,0,0,0,0,0,0.0
2.6600133330000517,268,182.48,94.3,5.4,19.0,0.19,-0.61,0.76,0.15,1.01,-0.05,-105.6,-42.5,-128.0,-1.64,1.32,-0.01,0.0,1.02230132544177,0.9928746144403129,0.0,0.0,2.0,0.6,0.010810601674119624,0.2,1.0,-160.0,0,0,calibrating,0,0,0,0,0,0.0
2.671268879000081,269,182.49,94.3,5.5,19.1,0.15,-0.66,0.71,0.16,0.98,-0.06,-106.1,-55.2,-115.0,-1.63,1.6,-0.17,0.0,0.994786409235671,0.9809179374443104,0.0,0.0,2.0,0.6,0.016370228241339935,0.2,1.0,-160.0,0,0,calibrating,0,0,0,0,0,0.0
2.680041119000066,270,182.5,94.3,5.6,19.1,0.22,-0.69,0.66,0.17,0.98,-0.06,-106.7,-65.3,-101.0,-1.61,1.88,0.21,0.0,0.9964436762808021,0.9798469268207152,0.0,0.0,2.0,0.6,0.014418701972284675,0.2,1.0,-160.0,0,0,calibrating,0,0,0,0,0,0.0
2.6911427960000083,271,182.51,94.3,5.7,19.2,0.24,-0.65,0.69,0.17,0.98,-0.06,-107.4,-74.9,-99.0,-1.59,2.15,-0.03,0.0,0.9964436762808021,0.9778547949465708,0.0,0.0,2.0,0.6,0.01413032793283897,0.2,1.0,-160.0,0,0,calibrating,0,0,0,0,0,0.0
2.7000405040000715,272,182.52,94.4,5.8,19.3,0.26,-0.54,0.73,0.18,0.97,-0.08,-108.3,-85.0,-97.0,-1.56,2.41,-0.01,0.0,0.9897979591815695,0.9445104552094699,0.0,0.0,2.0,0.6,0.02036052413143019,0.2,1.0,-160.0,0,0,calibrating,0,0,0,0,0,0.0
2.711212862000025,273,182.53,94.4,6.0,19.3,0.32,-0.39,0.78,0.19,0.95,-0.07,-109.2,-90.6,-55.0,-1.54,2.5,-0.15,0.0,0.9713392816107047,0.9289241088485108,0.0,0.0,2.0,0.6,0.03804281766824902,0.2,1.0,-160.0,0,0,calibrating,0,0,0,0,0,0.0
2.7199914010000157,274,182.54,94.4,6.1,19.4,0.32,-0.21,0.85,0.2,0.94,-0.07,-110.1,-90.6,-7.0,-1.51,2.43,0.16,0.0,0.9635870484808313,0.9322016949137133,0.0,0.0,2.0,0.6,0.0448791497821599,0.2,1.0,-160.0,0,0,calibrating,0,0,0,0,0,0.0
2.7310184359999994,275,182.55,94.5,6.2,19.4,0.34,-0.07,0.89,0.2,0.93,-0.08,-111.0,-88.8,5.0,-1.49,2.39,-0.01,0.0,0.9546203433826456,0.9553009996854395,0.0,0.0,2.0,0.6,0.052768937782738834,0.2,1.0,-160.0,0,0,calibrating,0,0,0,0,0,0.0
2.7395164069999964,276,182.56,94.5,6.4,19.4,0.39,0.07,0.91,0.21,0.91,-0.07,-111.8,-85.7,32.0,-1.47,2.25,0.07,0.0,0.9365361712181757,0.9925220400575496,0.0,0.0,2.0,0.6,0.0694360477482645,0.2,1.0,-160.0,0,0,calibrating,0,0,0,0,0,0.0
2.7509695859999965,277,182.57,94.6,6.6,19.4,0.37,0.19,0.88,0.21,0.9,-0.07,-112.6,-80.3,46.0,-1.44,2.12,0.03,0.0,0.9268225288586808,0.973344748791506,0.0,0.0,2.0,0.6,0.0775666963056042,0.2,1.0,-160.0,0,0,calibrating,0,0,0,0,0,0.0
2.7601159330000655,278,182.58,94.6,6.7,19.4,0.27,0.27,0.83,0.22,0.89,-0.07,-113.4,-74.5,56.0,-1.42,1.94,-0.02,0.0,0.9194563611178075,0.9136191766814005,0.0,0.0,2.0,0.6,0.08323420676554782,0.2,1.0,-160.0,0,0,calibrating,0,0,0,0,0,0.0
2.7713862900000095,279,182.59,94.6,6.9,19.3,0.18,0.34,0.74,0.22,0.87,-0.07,-114.1,-67.3,76.0,-1.41,1.7,-0.14,0.0,0.9001111042532471,0.8340263784797217,0.0,0.0,2.0,0.6,0.1005278743575061,0.2,1.0,-160.0,0,0,calibrating,0,0,0,0,0,0.0
2.780073571999992,280,182.6,94.6,7.0,19.3,0.12,0.39,0.61,0.21,0.87,-0.07,-114.7,-56.9,93.0,-1.39,1.43,-0.21,0.0,0.8977193325310534,0.7338937252763509,0.0,0.0,2.0,0.6,0.10086125315810579,0.2,1.0,-160.0,0,0,calibrating,0,0,0,0,0,0.0
2.791399433000038,281,182.61,94.6,7.1,19.3,0.09,0.45,0.44,0.21,0.87,-0.07,-115.2,-47.9,87.0,-1.38,1.21,-0.1,0.0,0.8977193325310534,0.6357672530100933,0.0,0.0,2.0,0.6,0.09884402809494364,0.2,1.0,-160.0,0,0,calibrating,0,0,0,0,0,0.0
2.800019243000065,282,182.62,94.6,7.2,19.2,0.03,0.52,0.28,0.19,0.89,-0.07,-115.6,-39.4,95.0,-1.37,0.93,-0.06,0.0,0.9127431182978045,0.5913543776789009,0.0,0.0,2.0,0.6,0.08214383748162868,0.2,1.0,-160.0,0,0,calibrating,0,0,0,0,0,0.0
2.811164487000042,283,182.63,94.6,7.3,19.2,-0.05,0.6,0.13,0.17,0.91,-0.08,-116.0,-31.5,73.0,-1.36,0.77,-0.31,0.0,0.9291931984253867,0.6159545437773798,0.0,0.0,2.0,0.6,0.06437988220696556,0.2,1.0,-160.0,0,0,calibrating,0,0,0,0,0,0.0
2.82010294600002,284,182.64,94.6,7.3,19.1,-0.14,0.67,-0.03,0.16,0.92,-0.07,-116.2,-25.1,61.0,-1.35,0.62,-0.09,0.0,0.9364293886887575,0.6851277253184257,0.0,0.0,2.0,0.6,0.056000818104722905,0.2,1.0,-160.0,0,0,calibrating,0,0,0,0,0,0.0
2.831334666000089,285,182.65,94.6,7.4,19.0,-0.19,0.69,-0.2,0.16,0.94,-0.08,-116.5,-19.8,63.0,-1.35,0.44,-0.12,0.0,0.9568698971124548,0.7431016081263718,0.0,0.0,2.0,0.6,0.034849103487405,0.2,1.0,-160.0,0,0,calibrating,0,0,0,0,0,0.0
2.8400825070000337,286,182.66,94.6,7.4,19.0,-0.34,0.68,-0.34,0.17,0.95,-0.09,-116.6,-9.4,90.0,-1.35,0.14,-0.02,0.0,0.9692780818733084,0.8328265125462806,0.0,0.0,2.0,0.6,0.02199210035202037,0.2,1.0,-160.0,0,0,calibrating,0,0,0,0,0,0.0
2.8513436140000294,287,182.67,94.5,7.3,18.9,-0.46,0.69,-0.46,0.17,0.95,-0.09,-116.6,-3.3,52.0,-1.35,0.06,0.02,0.0,0.9692780818733084,0.9483142938920619,0.0,0.0,2.0,0.6,0.02155225834497998,0.2,1.0,-160.0,0,0,calibrating,0,0,0,0,0,0.0
2.8601291329999867,288,182.68,94.5,7.3,18.8,-0.49,0.68,-0.56,0.16,0.94,-0.08,-116.7,-3.3,7.0,-1.34,0.12,0.08,0.0,0.9568698971124548,1.0080178569846867,0.0,0.0,2.0,0.6,0.03328123424371687,0.2,1.0,-160.0,0,0,calibrating,0,0,0,0,0,0.0
2.87139632800006,289,182.69,94.4,7.3,18.7,-0.4,0.63,-0.66,0.15,0.94,-0.08,-116.7,-6.0,-15.0,-1.34,0.19,-0.1,0.0,0.9552486587271399,0.9962429422585638,0.0,0.0,2.0,0.6,0.034204423176451004,0.2,1.0,-160.0,0,0,calibrating,0,0,0,0,0,0.0
2.8800079220000043,290,182.7,94.4,7.2,18.7,-0.2,0.58,-0.73,0.15,0.96,-0.09,-116.8,-9.6,-36.0,-1.34,0.33,-0.18,0.0,0.9758073580374356,0.9535722311393091,0.0,0.0,2.0,0.6,0.01337280938883234,0.2,1.0,-160.0,0,0,calibrating,0,0,0,0,0,0.0
2.891195180000068,291,182.71,94.4,7.2,18.6,-0.09,0.51,-0.76,0.15,0.98,-0.11,-116.9,-14.1,-28.0,-1.34,0.38,0.15,0.0,0.9974968671630001,0.9196738552334736,0.0,0.0,2.0,0.6,0.008150365741997567,0.2,1.0,-160.0,0,0,calibrating,0,0,0,0,0,0.0
2.8999947040000507,292,182.72,94.4,7.1,18.6,-0.13,0.51,-0.76,0.15,1.0,-0.11,-117.1,-14.6,-25.0,-1.33,0.45,-0.2,0.0,1.017152889196113,0.9244457799135654,0.0,0.0,2.0,0.6,0.027250260019608286,0.2,1.0,-160.0,0,0,calibrating,0,0,0,0,0,0.0
2.9110999310000807,293,182.73,94.4,7.1,18.5,-0.25,0.51,-0.75,0.14,1.01,-0.11,-117.2,-18.8,-34.0,-1.33,0.56,0.0,0.0,1.0255730105653131,0.9407975340103736,0.0,0.0,2.0,0.6,0.03495697376103224,0.2,1.0,-160.0,0,0,calibrating,0,0,0,0,0,0.0
2.920097528000042,294,182.74,94.4,7.0,18.5,-0.36,0.52,-0.74,0.14,1.0,-0.11,-117.5,-22.7,-45.0,-1.32,0.69,-0.08,0.0,1.0157263410978372,0.9734474818910366,0.0,0.0,2.0,0.6,0.02460809820768517,0.2,1.0,-160.0,0,0,calibrating,0,0,0,0,0,0.0
2.9312837580000632,295,182.75,94.4,7.0,18.4,-0.41,0.52,-0.72,0.15,0.99,-0.11,-117.7,-29.7,-60.0,-1.31,0.87,-0.06,0.0,1.007323185477233,0.9782126558167197,0.0,0.0,2.0,0.6,0.01588084373533938,0.2,1.0,-160.0,0,0,calibrating,0,0,0,0,0,0.0
2.9400381039999957,296,182.76,94.3,6.9,18.3,-0.42,0.51,-0.68,0.15,0.98,-0.11,-118.1,-34.3,-41.0,-1.3,0.95,0.03,0.0,0.9974968671630001,0.9481033698917012,0.0,0.0,2.0,0.6,0.005933434912684277,0.2,1.0,-160.0,0,0,calibrating,0,0,0,0,0,0.0
2.951193095000008,297,182.77,94.3,6.9,18.3,-0.42,0.48,-0.61,0.15,0.97,-0.11,-118.4,-38.6,-58.0,-1.29,1.15,-0.08,0.0,0.987674035297071,0.8825531145489205,0.0,0.0,2.0,0.6,0.003811609014179984,0.2,1.0,-160.0,0,0,calibrating,0,0,0,0,0,0.0
2.9600882910000337,298,182.78,94.3,6.8,18.2,-0.43,0.46,-0.52,0.14,0.96,-0.11,-118.8,-44.4,-49.0,-1.28,1.25,-0.03,0.0,0.9763708311906906,0.816639455328972,0.0,0.0,2.0,0.6,0.014812516858149216,0.2,1.0,-160.0,0,0,calibrating,0,0,0,0,0,0.0
2.971348937000016,299,182.79,94.3,6.8,18.2,-0.49,0.51,-0.41,0.13,0.96,-0.1,-119.3,-46.2,-19.0,-1.27,1.25,0.12,0.0,0.973909646733207,0.8174961773610931,0.0,0.0,2.0,0.6,0.016928227289320086,0.2,1.0,-160.0,0,0,calibrating,0,0,0,0,0,0.0
2.9801796180000792,300,182.8,94.2,6.8,18.1,-0.57,0.56,-0.26,0.11,0.95,-0.09,-119.8,-44.3,5.0,-1.25,1.2,0.15,0.0,0.9605727458136629,0.8402975663418287,0.0,0.0,2.0,0.6,0.029659825644686943,0.2,1.0,-160.0,0,0,calibrating,0,0,0,0,0,0.0
2.9913327300000674,301,182.81,94.2,6.8,18.1,-0.63,0.57,-0.09,0.1,0.95,-0.07,-120.2,-43.4,10.0,-1.24,1.15,0.1,0.0,0.9578100020358944,0.8543418519538886,0.0,0.0,2.0,0.6,0.031774118034006316,0.2,1.0,-160.0,0,0,calibrating,0,0,0,0,0,0.0
3.0000129740000148,302,182.82,94.1,6.8,18.0,-0.66,0.54,0.04,0.1,0.94,-0.05,-120.6,-40.9,24.0,-1.23,1.06,0.09,0.0,0.9466255859631092,0.8536978388165218,0.0,0.0,2.0,0.6,0.0420993634246557,0.2,1.0,-160.0,0,0,calibrating,0,0,0,0,0,0.0
3.011138953999989,303,182.83,94.0,6.8,18.0,-0.66,0.44,0.13,0.11,0.93,-0.04,-121.0,-39.0,18.0,-1.22,1.02,-0.16,0.0,0.9373366524360393,0.8038034585643433,0.0,0.0,2.0,0.6,0.05036053101269111,0.2,1.0,-160.0,0,0,calibrating,0,0,0,0,0,0.0
3.0200932679999823,304,182.84,93.9,6.8,17.9,-0.52,0.3,0.16,0.15,0.92,-0.05,-121.4,-35.8,32.0,-1.21,0.91,-0.05,0.0,0.9334880824091971,0.6212889826803627,0.0,0.0,2.0,0.6,0.05312491901874261,0.2,1.0,-160.0,0,0,calibrating,0,0,0,0,0,0.0
3.031315972000016,305,182.85,93.9,6.9,17.9,-0.38,0.22,0.11,0.17,0.92,-0.07,-121.7,-28.1,76.0,-1.2,0.63,-0.06,0.0,0.9381897462667134,0.452658811910251,0.0,0.0,2.0,0.6,0.047454790058001795,0.2,1.0,-160.0,0,0,calibrating,0,0,0,0,0,0.0
3.040034579999997,306,182.86,93.9,6.9,17.9,-0.26,0.18,0.0,0.17,0.91,-0.09,-121.9,-20.3,70.0,-1.2,0.45,-0.08,0.0,0.9301075206662938,0.31622776601683794,0.0,0.0,2.0,0.6,0.05442627534525302,0.2,1.0,-160.0,0,0,calibrating,0,0,0,0,0,0.0
3.0512151070000755,307,182.87,93.9,6.9,17.9,-0.08,0.16,-0.13,0.16,0.91,-0.11,-122.1,-14.1,56.0,-1.2,0.32,-0.18,0.0,0.9304837451562493,0.2211334438749598,0.0,0.0,2.0,0.6,0.052969049838191506,0.2,1.0,-160.0,0,0,calibrating,0,0,0,0,0,0.0
3.060074792000023,308,182.88,93.9,7.0,17.9,0.05,0.13,-0.26,0.14,0.92,-0.14,-122.2,-9.8,39.0,-1.19,0.25,-0.21,0.0,0.9410632284814873,0.29495762407505255,0.0,0.0,2.0,0.6,0.04154177518269442,0.2,1.0,-160.0,0,0,calibrating,0,0,0,0,0,0.0
3.0711073520000127,309,182.89,94.0,6.9,17.9,0.13,0.11,-0.38,0.12,0.94,-0.16,-122.3,-12.2,-25.0,-1.19,0.43,-0.16,0.0,0.961041102138717,0.4164132562731403,0.0,0.0,2.0,0.6,0.021132623494955483,0.2,1.0,-160.0,0,0,calibrating,0,0,0,0,0,0.0
3.080018050000035,310,182.9,94.0,6.9,17.9,0.1,0.08,-0.48,0.12,0.95,-0.18,-122.5,-19.8,-55.0,-1.18,0.62,0.15,0.0,0.9743202758846805,0.4967896939349688,0.0,0.0,2.0,0.6,0.007696380754012244,0.2,1.0,-160.0,0,0,calibrating,0,0,0,0,0,0.0
3.0913189170000805,311,182.91,94.1,6.8,17.8,0.03,0.09,-0.55,0.13,0.95,-0.2,-122.7,-25.7,-67.0,-1.18,0.81,0.05,0.0,0.9794896630388705,0.558121850495033,0.0,0.0,2.0,0.6,0.002476453727825789,0.2,1.0,-160.0,0,0,calibrating,0,0,0,0,0,0.0
3.100022394000007,312,182.92,94.1,6.8,17.8,0.0,0.17,-0.58,0.15,0.95,-0.21,-123.1,-36.7,-92.0,-1.17,1.11,0.11,0.0,0.9844287683728061,0.604400529450463,0.0,0.0,2.0,0.6,0.0024133985739875907,0.2,1.0,-160.0,0,0,calibrating,0,0,0,0,0,0.0
3.111086892000003,313,182.93,94.1,6.7,17.8,0.01,0.32,-0.57,0.17,0.96,-0.22,-123.5,-45.6,-86.0,-1.15,1.34,-0.11,0.0,0.9994498486667552,0.6537583651472462,0.0,0.0,2.0,0.6,0.017085789290577913,0.2,1.0,-160.0,0,0,calibrating,0,0,0,0,0,0.0
3.1201982530000123,314,182.94,94.1,6.7,17.8,0.11,0.51,-0.56,0.2,0.95,-0.23,-124.0,-55.0,-100.0,-1.14,1.63,-0.11,0.0,0.9976973488989535,0.7653757247260983,0.0,0.0,2.0,0.6,0.015026623732320554,0.2,1.0,-160.0,0,0,calibrating,0,0,0,0,0,0.0
3.1313394100000096,315,182.95,94.1,6.6,17.7,0.29,0.76,-0.57,0.22,0.96,-0.24,-124.6,-64.0,-82.0,-1.12,1.82,0.03,0.0,1.013706071797935,0.9932774033471213,0.0,0.0,2.0,0.6,0.03041463969867597,0.2,1.0,-160.0,0,0,calibrating,0,0,0,0,0,0.0
3.140025954000066,316,182.96,94.1,6.6,17.6,0.43,1.04,-0.6,0.24,0.98,-0.24,-125.3,-71.3,-77.0,-1.1,2.03,0.12,0.0,1.037111372997134,1.27534309109353,0.0,0.0,2.0,0.6,0.05274354207991727,0.2,1.0,-160.0,0,0,calibrating,0,0,0,0,0,0.0
3.1512564990000556,317,182.97,94.2,6.5,17.5,0.51,1.35,-0.57,0.24,1.02,-0.23,-126.1,-78.0,-66.0,-1.08,2.18,0.29,0.0,1.072800074571213,1.55161206491829,0.0,0.0,2.0,0.6,0.08666359878091656,0.2,1.0,-160.0,0,0,calibrating,0,0,0,0,0,0.0
3.160237142000028,318,182.98,94.2,6.5,17.3,0.51,1.62,-0.45,0.22,1.07,-0.22,-126.9,-83.7,-54.0,-1.06,2.31,0.1,0.0,1.11431593365616,1.7569860557215589,0.0,0.0,2.0,0.6,0.12561586870854646,0.2,1.0,-160.0,0,0,calibrating,0,0,0,0,0,0.0
3.1710943950000683,319,182.99,94.2,6.5,17.1,0.52,1.84,-0.24,0.19,1.12,-0.2,-127.8,-87.6,-40.0,-1.03,2.4,0.08,0.0,1.153473016589465,1.9270703152713446,0.0,0.0,2.0,0.6,0.16147749260901445,0.2,1.0,-160.0,0,0,calibrating,0,0,0,0,0,0.0
3.180047314000035,320,183.0,94.3,6.5,16.9,0.35,1.91,0.04,0.17,1.15,-0.17,-128.3,-89.4,-40.0,-1.01,2.47,0.07,0.0,1.1748616939878496,1.94221523009166,0.0,0.0,2.0,0.6,0.17920884660725112,0.2,1.0,-160.0,0,0,calibrating,0,0,0,0,0,0.0
3.191327397000009,321,183.01,94.3,6.5,16.8,-0.03,1.8,0.3,0.15,1.12,-0.13,-129.6,-92.5,-27.0,-0.98,2.52,0.1,0.0,1.137453295744489,1.8250753409106157,0.0,0.0,2.0,0.6,0.13896443939661274,0.2,1.0,-160.0,0,0,calibrating,0,0,0,0,0,0.0
3.1997999180000534,322,183.02,94.3,6.6,16.6,-0.44,1.55,0.36,0.13,1.04,-0.1,-130.5,-92.6,-17.0,-0.96,2.55,0.01,0.0,1.052853266129711,1.650969412193939,0.0,0.0,2.0,0.6,0.053277121586197906,0.2,1.0,-160.0,0,0,calibrating,0,0,0,0,0,0.0
3.211425279000082,323,183.03,94.2,6.6,16.5,-0.73,1.28,0.28,0.12,0.99,-0.07,-131.4,-94.9,-21.0,-0.93,2.61,-0.06,0.0,0.9996999549864949,1.4998999966664444,0.0,0.0,2.0,0.6,0.00012133423412219457,0.2,1.0,-160.0,0,0,calibrating,0,0,0,0,0,0.0
3.2200890640000353,324,183.04,94.1,6.7,16.3,-0.76,1.04,0.23,0.11,0.98,-0.06,-132.4,-97.1,-20.0,-0.91,2.66,0.14,0.0,0.9879777325425912,1.3084723917607128,0.0,0.0,2.0,0.6,0.011368870445585766,0.2,1.0,-160.0,0,0,calibrating,0,0,0,0,0,0.0
3.2312483640000664,325,183.05,94.0,6.7,16.2,-0.57,0.89,0.3,0.1,0.99,-0.05,-133.4,-99.0,-23.0,-0.88,2.73,0.07,0.0,0.9962931295557548,1.0986355173577815,0.0,0.0,2.0,0.6,0.00299240396377376,0.2,1.0,-160.0,0,0,calibrating,0,0,0,0,0,0.0
3.240022321000083,326,183.06,94.0,6.7,16.2,-0.33,0.71,0.48,0.1,1.04,-0.04,-134.4,-101.3,-20.0,-0.85,2.78,-0.03,0.0,1.0455620498086187,0.9183681179135086,0.0,0.0,2.0,0.6,0.04535098596330833,0.2,1.0,-160.0,0,0,calibrating,0,0,0,0,0,0.0
3.2513413940000646,327,183.07,93.9,6.8,16.1,-0.32,0.57,0.71,0.11,1.09,-0.01,-135.4,-102.4,-10.0,-0.82,2.79,0.12,0.0,1.0955820370926133,0.965090669315583,0.0,0.0,2.0,0.6,0.09346355378235693,0.2,1.0,-160.0,0,0,calibrating,0,0,0,0,0,0.0
3.2600651190000463,328,183.08,93.8,6.9,16.1,-0.49,0.43,0.93,0.11,1.12,-0.01,-136.4,-102.9,-9.0,-0.79,2.81,-0.06,0.0,1.125433249908674,1.1357376457615553,0.0,0.0,2.0,0.6,0.12084847126644949,0.2,1.0,-160.0,0,0,calibrating,0,0,0,0,0,0.0
3.271321358000023,329,183.09,93.7,7.0,16.0,-0.79,0.31,1.04,0.1,1.1,-0.02,-137.5,-106.0,-23.0,-0.77,2.9,0.04,0.0,1.1047171583713182,1.3423114392718256,0.0,0.0,2.0,0.6,0.09812973213451182,0.2,1.0,-160.0,0,0,calibrating,0,0,0,0,0,0.0
3.280195612000057,330,183.1,93.6,7.1,16.0,-0.92,0.17,1.04,0.11,1.05,-0.02,-138.6,-108.6,-31.0,-0.74,3.0,-0.01,0.0,1.0559356040971437,1.3988924190229928,0.0,0.0,2.0,0.6,0.04836121430313045,0.2,1.0,-160.0,0,0,calibrating,0,0,0,0,0,0.0
3.2912624180000876,331,183.11,93.5,7.2,16.0,-0.84,0.0,1.02,0.13,1.01,-0.01,-139.7,-114.1,-60.0,-0.7,3.21,0.02,0.0,1.0183810681665286,1.3213629327327143,0.0,0.0,2.0,0.6,0.01059054480506516,0.2,1.0,-160.0,0,0,calibrating,0,0,0,0,0,0.0
3.2999864770000613,332,183.12,93.4,7.3,16.0,-0.62,-0.14,1.09,0.17,1.0,0.0,-140.9,-121.9,-67.0,-0.67,3.4,0.02,0.0,1.014347080638575,1.2617844506887856,0.0,0.0,2.0,0.6,0.006425426131569267,0.2,1.0,-160.0,0,0,calibrating,0,0,0,0,0,0.0
3.311169957000061,333,183.13,93.3,7.4,16.0,-0.3,-0.18,1.16,0.21,0.97,-0.02,-142.2,-129.2,-68.0,-0.64,3.59,-0.03,0.0,0.9926731586982696,1.2116104984688767,0.0,0.0,2.0,0.6,0.014943525892561427,0.2,1.0,-160.0,0,0,calibrating,0,0,0,0,0,0.0
3.320175832000018,334,183.14,93.3,7.6,16.1,0.11,-0.1,1.19,0.23,0.97,-0.04,-143.5,-134.1,-45.0,-0.6,3.67,0.02,0.0,0.9976973488989535,1.1992497654784011,0.0,0.0,2.0,0.6,0.00972094897803999,0.2,1.0,-160.0,0,0,calibrating,0,0,0,0,0,0.0
3.3311629190000076,335,183.15,93.4,7.8,16.1,0.49,0.08,1.19,0.25,1.01,-0.06,-144.9,-137.8,-49.0,-0.56,3.82,-0.05,0.0,1.0422091920531118,1.2894184735763639,0.0,0.0,2.0,0.6,0.034095076292596005,0.2,1.0,-160.0,0,0,calibrating,0,0,0,0,0,0.0
3.340198449000013,336,183.16,93.4,8.0,16.0,0.67,0.37,1.16,0.26,1.02,-0.09,-146.3,-142.6,-42.0,-0.52,3.92,-0.01,0.0,1.0564563407921788,1.3897481786280563,0.0,0.0,2.0,0.6,0.04737538053102974,0.2,1.0,-160.0,0,0,calibrating,0,0,0,0,0,0.0
3.351161302000037,337,183.17,93.5,8.1,16.0,0.74,0.69,1.04,0.25,1.03,-0.1,-147.7,-146.8,-53.0,-0.48,4.07,-0.03,0.0,1.064612605598863,1.4509651959988563,0.0,0.0,2.0,0.6,0.05442101243095965,0.2,1.0,-160.0,0,0,calibrating,0,0,0,0,0,0.0
3.360036691000005,338,183.18,93.6,8.3,15.9,0.71,0.95,0.9,0.25,1.05,-0.1,-149.2,-153.0,-60.0,-0.44,4.24,0.33,0.0,1.08397416943394,1.4888250400903391,0.0,0.0,2.0,0.6,0.07230692474071598,0.2,1.0,-160.0,0,0,calibrating,0,0,0,0,0,0.0
3.3713121380000075,339,183.19,93.7,8.4,15.8,0.6,1.16,0.8,0.23,1.06,-0.09,-150.8,-160.3,-71.0,-0.4,4.45,0.07,0.0,1.088393311262064,1.5315351775261319,0.0,0.0,2.0,0.6,0.07519154523746319,0.2,1.0,-160.0,0,0,calibrating,0,0,0,0,0,0.0
3.380162318000089,340,183.2,93.7,8.5,15.7,0.44,1.31,0.66,0.2,1.04,-0.08,-152.5,-167.9,-70.0,-0.35,4.65,-0.09,0.0,1.0620734437881403,1.531437233450983,0.0,0.0,2.0,0.6,0.0478942442082686,0.2,1.0,-160.0,0,0,calibrating,0,0,0,0,0,0.0
3.3912680570000475,341,183.21,93.7,8.6,15.6,0.31,1.45,0.45,0.18,1.02,-0.07,-154.2,-175.1,-70.0,-0.3,4.84,0.02,0.0,1.038123306741545,1.5495483212859158,0.0,0.0,2.0,0.6,0.02346522501843995,0.2,1.0,-160.0,0,0,calibrating,0,0,0,0,0,0.0
3.4041908369999874,342,183.22,93.7,8.7,15.4,0.22,1.54,0.26,0.17,1.0,-0.04,-156.0,-180.0,-49.0,-0.25,4.93,-0.31,0.0,1.0151354589413177,1.57721273137139,0.0,0.0,2.0,0.6,0.00046782967384828567,0.2,1.0,-160.0,0,0,calibrating,0,0,0,0,0,0.0
3.4121493490000603,343,183.23,93.7,8.7,15.3,0.15,1.63,0.12,0.16,0.98,-0.04,-157.8,-183.0,-35.0,-0.2,5.01,0.04,0.0,0.9937806599043875,1.6412799883018132,0.0,0.0,2.0,0.6,0.020469229975820236,0.2,1.0,-160.0,0,0,calibrating,0,0,0,0,0,0.0
3.4203330020000067,344,183.24,93.7,8.8,15.1,0.18,1.69,0.02,0.15,0.98,-0.01,-159.6,-183.7,-7.0,-0.15,4.98,0.01,0.0,0.9914635646356349,1.6996764397967044,0.0,0.0,2.0,0.6,0.02233059873968135,0.2,1.0,-160.0,0,0,calibrating,0,0,0,0,0,0.0
3.431244932000027,345,183.25,93.6,8.8,14.9,0.2,1.74,-0.03,0.14,0.96,0.0,-161.5,-181.3,23.0,-0.1,4.86,0.09,0.0,0.9701546268507922,1.7517134468856486,0.0,0.0,2.0,0.6,0.04276674579403361,0.2,1.0,-160.0,0,0,calibrating,0,0,0,0,0,0.0
3.4400937220000287,346,183.26,93.6,8.8,14.7,0.27,1.77,-0.11,0.13,0.95,0.0,-163.2,-174.9,54.0,-0.06,4.66,0.02,0.0,0.9588534820294495,1.7938506069347024,0.0,0.0,2.0,0.6,0.052986532803068864,0.2,1.0,-160.0,0,0,calibrating,0,0,0,0,0,0.0
3.4512247460000935,347,183.27,93.6,8.8,14.5,0.3,1.77,-0.17,0.13,0.95,0.0,-164.9,-166.9,69.0,-0.01,4.44,0.04,0.0,0.9588534820294495,1.8032747988035547,0.0,0.0,2.0,0.6,0.05192680214700751,0.2,1.0,-160.0,0,0,calibrating,0,0,0,0,0,0.0
3.4600910569999996,348,183.28,93.5,8.7,14.4,0.22,1.75,-0.2,0.12,0.94,0.0,-166.6,-159.4,73.0,0.02,4.24,0.0,0.0,0.9476286192385707,1.7750774630984418,0.0,0.0,2.0,0.6,0.06188863163912861,0.2,1.0,-160.0,0,0,calibrating,0,0,0,0,0,0.0
3.4713569210000514,349,183.29,93.5,8.7,14.2,0.13,1.74,-0.24,0.12,0.93,0.0,-168.1,-152.6,65.0,0.06,4.08,0.06,0.0,0.937709976485267,1.7612779451296152,0.0,0.0,2.0,0.6,0.07037112890458364,0.2,1.0,-160.0,0,0,calibrating,0,0,0,0,0,0.0
3.4800929489999817,350,183.3,93.4,8.7,14.0,0.02,1.76,-0.3,0.12,0.93,0.0,-169.6,-146.6,68.0,0.1,3.89,0.01,0.0,0.937709976485267,1.7854971296532514,0.0,0.0,2.0,0.6,0.06896370632649207,0.2,1.0,-160.0,0,0,calibrating,0,0,0,0,0,0.0
3.49121436300004,351,183.31,93.4,8.6,13.8,-0.08,1.82,-0.37,0.11,0.92,0.01,-171.0,-138.6,74.0,0.14,3.68,0.0,0.0,0.92660671268883,1.8589513172754148,0.0,0.0,2.0,0.6,0.07846563072047053,0.2,1.0,-160.0,0,0,calibrating,0,0,0,0,0,0.0
3.5001015650000227,352,183.32,93.3,8.6,13.6,-0.19,1.91,-0.46,0.1,0.92,0.02,-172.3,-130.4,83.0,0.17,3.44,-0.18,0.0,0.9256349172324908,1.9737781030298212,0.0,0.0,2.0,0.6,0.07784867765327352,0.2,1.0,-160.0,0,0,calibrating,0,0,0,0,0,0.0
3.511252001999992,353,183.33,93.2,8.5,13.4,-0.3,2.01,-0.56,0.1,0.93,0.04,-173.6,-121.9,80.0,0.21,3.22,0.15,0.0,0.9362157870918436,2.108008538882136,0.0,0.0,2.0,0.6,0.06592245163804222,0.2,1.0,-160.0,0,0,calibrating,0,0,0,0,0,0.0
3.5201502720000235,354,183.34,93.1,8.5,13.2,-0.4,2.11,-0.63,0.1,0.94,0.05,-174.7,-113.8,87.0,0.24,2.97,0.16,0.0,0.9466255859631092,2.2380795338861397,0.0,0.0,2.0,0.6,0.05440239971144112,0.2,1.0,-160.0,0,0,calibrating,0,0,0,0,0,0.0
3.531290360000071,355,183.35,93.0,8.4,13.0,-0.44,2.21,-0.66,0.09,0.94,0.05,-175.8,-104.8,86.0,0.27,2.75,0.05,0.0,0.945621488757526,2.348041737278109,0.0,0.0,2.0,0.6,0.05429836697868373,0.2,1.0,-160.0,0,0,calibrating,0,0,0,0,0,0.0
3.540113715000075,356,183.36,92.9,8.4,12.7,-0.38,2.34,-0.69,0.08,0.94,0.04,-176.8,-98.1,70.0,0.29,2.57,-0.02,0.0,0.9442457307290301,2.4690281488877357,0.0,0.0,2.0,0.6,0.05456064250703607,0.2,1.0,-160.0,0,0,calibrating,0,0,0,0,0,0.0
3.5512232390000236,357,183.37,92.9,8.3,12.5,-0.31,2.55,-0.69,0.08,0.95,0.04,-177.7,-89.8,80.0,0.32,2.34,-0.01,0.0,0.95420123663722,2.6598308216877253,0.0,0.0,2.0,0.6,0.0437130338668692,0.2,1.0,-160.0,0,0,calibrating,0,0,0,0,0,0.0
3.560013470000058,358,183.38,92.8,8.3,12.2,-0.22,2.8,-0.65,0.08,0.96,0.03,-178.6,-82.5,73.0,0.34,2.15,-0.24,0.0,0.9637945839233586,2.8828631601239763,0.0,0.0,2.0,0.6,0.03343729284911601,0.2,1.0,-160.0,0,0,calibrating,0,0,0,0,0,0.0
3.571284676999994,359,183.39,92.7,8.2,11.9,-0.22,3.11,-0.58,0.09,0.97,0.03,-179.4,-76.2,64.0,0.36,1.99,0.0,0.0,0.9746281342132496,3.1712615786150464,0.0,0.0,2.0,0.6,0.022151667708040557,0.2,1.0,-160.0,0,0,calibrating,0,0,0,0,0,0.0
3.580071385999986,360,183.4,92.6,8.1,11.5,-0.28,3.42,-0.51,0.1,0.98,0.02,-180.1,-68.6,79.0,0.38,1.73,0.09,0.0,0.985291834940288,3.469135338956957,0.0,0.0,2.0,0.6,0.011258207641382079,0.2,1.0,-160.0,0,0,calibrating,0,0,0,0,0,0.0
3.591234992000068,361,183.41,92.4,8.1,11.2,-0.38,3.67,-0.4,0.09,0.99,0.03,-180.7,-60.1,81.0,0.39,1.53,-0.1,0.0,0.9945350672550466,3.7112396850648164,0.0,0.0,2.0,0.6,0.001974675820091032,0.2,1.0,-160.0,0,0,calibrating,0,0,0,0,0,0.0
3.6000671570000122,362,183.42,92.3,8.0,10.8,-0.49,3.84,-0.27,0.08,0.99,0.03,-181.3,-52.5,71.0,0.41,1.35,0.19,0.0,0.9936800289831732,3.8805411993689747,0.0,0.0,2.0,0.6,0.0027731198101251797,0.2,1.0,-160.0,0,0,calibrating,0,0,0,0,0,0.0
3.611226970000075,363,183.43,92.2,8.0,10.4,-0.55,3.91,-0.16,0.07,0.99,0.03,-181.7,-46.6,67.0,0.42,1.18,-0.21,0.0,0.9929249719893241,3.951733796702405,0.0,0.0,2.0,0.6,0.0034576132678948435,0.2,1.0,-160.0,0,0,calibrating,0,0,0,0,0,0.0
3.6199912330000643,364,183.44,92.0,8.0,10.0,-0.57,3.9,-0.07,0.06,0.99,0.04,-182.2,-39.1,80.0,0.43,0.93,-0.08,0.0,0.992622788374315,3.942055301489313,0.0,0.0,2.0,0.6,0.0036846009452459194,0.2,1.0,-160.0,0,0,calibrating,0,0,0,0,0,0.0
3.631218970000077,365,183.45,91.9,8.0,9.6,-0.46,3.79,-0.03,0.06,0.98,0.05,-182.5,-26.6,124.0,0.44,0.52,-0.24,0.0,0.9831073186585481,3.8179313770679535,0.0,0.0,2.0,0.6,0.012936069247792559,0.2,1.0,-160.0,0,0,calibrating,0,0,0,0,0,0.0
3.640007583000056,366,183.46,91.9,8.0,9.2,-0.26,3.62,-0.04,0.05,0.98,0.05,-182.6,-10.0,152.0,0.44,0.08,-0.1,0.0,0.98254770876533,3.6295454260829967,0.0,0.0,2.0,0.6,0.013225765558190328,0.2,1.0,-160.0,0,0,calibrating,0,0,0,0,0,0.0
3.6510943850000785,367,183.47,91.8,8.0,8.9,-0.03,3.39,-0.13,0.04,0.98,0.05,-182.6,2.8,106.0,0.44,-0.13,-0.01,0.0,0.982089608946149,3.3926243529161906,0.0,0.0,2.0,0.6,0.013410188069823858,0.2,1.0,-160.0,0,0,calibrating,0,0,0,0,0,0.0
3.6600251859999844,368,183.48,91.8,8.0,8.5,0.17,3.12,-0.29,0.05,0.99,0.05,-182.6,8.2,75.0,0.44,-0.3,-0.06,0.0,0.9925220400575495,3.138056723515367,0.0,0.0,2.0,0.6,0.002918201819254951,0.2,1.0,-160.0,0,0,calibrating,0,0,0,0,0,0.0
3.6713637750000316,369,183.49,91.7,8.0,8.2,0.4,2.81,-0.51,0.06,1.0,0.05,-182.4,16.1,76.0,0.43,-0.51,-0.01,0.0,1.0030453628824572,2.8837822386581133,0.0,0.0,2.0,0.6,0.007453018585539595,0.2,1.0,-160.0,0,0,calibrating,0,0,0,0,0,0.0
3.6800235919999977,370,183.5,91.8,7.9,8.0,0.57,2.52,-0.76,0.06,1.02,0.04,-182.2,25.4,102.0,0.42,-0.84,-0.13,0.0,1.0225458424931373,2.693120866207085,0.0,0.0,2.0,0.6,0.02641442823229534,0.2,1.0,-160.0,0,0,calibrating,0,0,0,0,0,0.0
3.6912619340000674,371,183.51,91.8,7.8,7.7,0.63,2.24,-1.02,0.05,1.04,0.02,-181.8,38.6,129.0,0.41,-1.25,0.0,0.0,1.0413932974625868,2.540649523251879,0.0,0.0,2.0,0.6,0.044356645537709904,0.2,1.0,-160.0,0,0,calibrating,0,0,0,0,0,0.0
3.7000392649999867,372,183.52,91.8,7.6,7.5,0.6,1.96,-1.31,0.03,1.04,0.01,-181.4,55.1,156.0,0.4,-1.7,-0.16,0.0,1.0404806581575652,2.4326323191144197,0.0,0.0,2.0,0.6,0.04257512610803449,0.2,1.0,-160.0,0,0,calibrating,0,0,0,0,0,0.0
3.7112204020000945,373,183.53,91.8,7.4,7.3,0.49,1.75,-1.51,0.02,1.04,0.0,-180.7,74.0,189.0,0.38,-2.28,0.0,0.0,1.0401922899156675,2.362773793658631,0.0,0.0,2.0,0.6,0.041441022708814,0.2,1.0,-160.0,0,0,calibrating,0,0,0,0,0,0.0
3.7200457920000645,374,183.54,91.8,7.2,7.1,0.29,1.56,-1.62,0.02,1.04,0.0,-179.8,95.7,208.0,0.35,-2.87,-0.2,0.0,1.0401922899156675,2.267619897601889,0.0,0.0,2.0,0.6,0.040612202254637686,0.2,1.0,-160.0,0,0,calibrating,0,0,0,0,0,0.0
3.7312372690000757,375,183.55,91.7,7.0,7.0,0.06,1.39,-1.65,0.02,1.02,0.0,-178.7,116.7,211.0,0.32,-3.44,0.0,0.0,1.020196059588548,2.1582863572751414,0.0,0.0,2.0,0.6,0.020203652488967827,0.2,1.0,-160.0,0,0,calibrating,0,0,0,0,0,0.0
3.740015840000069,376,183.56,91.7,6.8,6.8,-0.05,1.26,-1.63,0.02,1.0,0.0,-177.4,139.3,226.0,0.28,-4.08,-0.15,0.0,1.000199980003999,2.06082507748717,0.0,0.0,2.0,0.6,0.00020342144633034298,0.2,1.0,-160.0,0,0,calibrating,0,0,0,0,0,0.0
3.7511916850000944,377,183.57,91.7,6.6,6.7,-0.09,1.14,-1.59,0.03,0.98,0.0,-175.8,162.3,225.0,0.23,-4.69,0.05,0.0,0.9804590761474953,1.9585198492739357,0.0,0.0,2.0,0.6,0.019146732761969765,0.2,1.0,-160.0,0,0,calibrating,0,0,0,0,0,0.0
3.7600639540000884,378,183.58,91.6,6.4,6.6,-0.04,1.05,-1.57,0.03,0.96,-0.01,-174.0,185.3,233.0,0.18,-5.32,-0.12,0.0,0.9605206921248495,1.8891797161731332,0.0,0.0,2.0,0.6,0.03830341444892327,0.2,1.0,-160.0,0,0,calibrating,0,0,0,0,0,0.0
3.771236920000092,379,183.59,91.6,6.2,6.5,-0.04,1.04,-1.55,0.05,0.97,-0.02,-172.0,208.5,228.0,0.12,-5.94,-0.18,0.0,0.9714936952960631,1.8670029459001933,0.0,0.0,2.0,0.6,0.02678380305215544,0.2,1.0,-160.0,0,0,calibrating,0,0,0,0,0,0.0
3.7799292380000225,380,183.6,91.6,6.0,6.4,-0.08,1.05,-1.54,0.05,0.96,-0.03,-169.8,230.3,213.0,0.06,-6.5,-0.1,0.0,0.9617692030835672,1.8656098198712399,0.0,0.0,2.0,0.6,0.03577812935935831,0.2,1.0,-160.0,0,0,calibrating,0,0,0,0,0,0.0
3.7912495290000834,381,183.61,91.6,5.9,6.3,-0.14,1.08,-1.52,0.06,0.97,-0.04,-167.3,249.3,201.0,0.0,-7.02,-0.16,0.0,0.9726767191621274,1.8698663053812163,0.0,0.0,2.0,0.6,0.024373201015182144,0.2,1.0,-160.0,0,0,calibrating,0,0,0,0,0,0.0
3.800094217000037,382,183.62,91.6,5.7,6.2,-0.23,1.08,-1.49,0.06,0.96,-0.04,-164.7,272.0,234.0,-0.07,-7.72,-0.01,0.0,0.9627045237246993,1.8545619428857048,0.0,0.0,2.0,0.6,0.03365848852355813,0.2,1.0,-160.0,0,0,calibrating,0,0,0,0,0,0.0
3.8110537800000657,383,183.63,91.5,5.5,6.0,-0.27,1.08,-1.45,0.06,0.95,-0.04,-161.8,298.3,242.0,-0.16,-8.39,-0.19,0.0,0.952732911156112,1.8280590800080834,0.0,0.0,2.0,0.6,0.04275749907030235,0.2,1.0,-160.0,0,0,calibrating,0,0,0,0,0,0.0
3.8200450140000157,384,183.64,91.5,5.4,5.9,-0.25,1.11,-1.43,0.05,0.94,-0.04,-158.6,319.3,210.0,-0.24,-8.91,0.02,0.0,0.942178327069775,1.8274298892159995,0.0,0.0,2.0,0.6,0.05224584149350664,0.2,1.0,-160.0,0,0,calibrating,0,0,0,0,0,0.0
3.831210535000082,385,183.65,91.5,5.2,5.8,-0.2,1.14,-1.41,0.05,0.94,-0.05,-155.3,339.3,211.0,-0.34,-9.49,-0.17,0.0,0.9426558226627574,1.824198454116218,0.0,0.0,2.0,0.6,0.05073297898251372,0.2,1.0,-160.0,0,0,calibrating,0,0,0,0,0,0.0
3.8399099970000634,386,183.66,91.5,5.0,5.7,-0.15,1.19,-1.38,0.04,0.94,-0.06,-151.8,361.5,213.0,-0.44,-10.07,-0.13,0.0,0.942761899951414,1.8283872675120005,0.0,0.0,2.0,0.6,0.049614363659979954,0.2,1.0,-160.0,0,0,calibrating,0,0,0,0,0,0.0
3.851059229000043,387,183.67,91.5,4.9,5.6,-0.1,1.23,-1.33,0.04,0.95,-0.07,-148.0,382.1,220.0,-0.54,-10.69,-0.23,0.0,0.9534149149242422,1.8143318329346483,0.0,0.0,2.0,0.6,0.038182121713408845,0.2,1.0,-160.0,0,0,calibrating,0,0,0,0,0,0.0
3.8600150529999837,388,183.68,91.5,4.7,5.4,-0.1,1.26,-1.22,0.03,0.95,-0.07,-144.0,408.2,238.0,-0.65,-11.36,-0.18,0.0,0.9530477427705287,1.7567014544310027,0.0,0.0,2.0,0.6,0.03777830798977977,0.2,1.0,-160.0,0,0,calibrating,0,0,0,0,0,0.0
3.871089399000084,389,183.69,91.5,4.6,5.3,-0.09,1.26,-1.09,0.03,0.97,-0.08,-139.8,423.8,168.0,-0.77,-11.7,-0.14,0.0,0.973755616158387,1.6684723551800311,0.0,0.0,2.0,0.6,0.01672902590988301,0.2,1.0,-160.0,0,0,calibrating,0,0,0,0,0,0.0
3.880007413000044,390,183.7,91.5,4.5,5.2,-0.11,1.23,-0.89,0.03,0.97,-0.07,-135.5,442.3,194.0,-0.89,-12.28,-0.03,0.0,0.9729850975220535,1.5222023518573344,0.0,0.0,2.0,0.6,0.017149553655292138,0.2,1.0,-160.0,0,0,calibrating,0,0,0,0,0,0.0
3.891087467000034,391,183.71,91.5,4.4,5.1,-0.09,1.2,-0.68,0.03,0.98,-0.07,-130.9,456.1,127.0,-1.01,-12.51,-0.19,0.0,0.9829547293746543,1.382208377922808,0.0,0.0,2.0,0.6,0.007036323366637509,0.2,1.0,-160.0,0,0,calibrating,0,0,0,0,0,0.0
3.9000020189999987,392,183.72,91.5,4.3,5.0,-0.01,1.15,-0.49,0.04,0.98,-0.07,-126.3,473.7,196.0,-1.14,-13.16,-0.26,0.0,0.9833107342035884,1.2500799974401637,0.0,0.0,2.0,0.6,0.006546712166949464,0.2,1.0,-160.0,0,0,calibrating,0,0,0,0,0,0.0
3.9109403969999903,393,183.73,91.6,4.2,4.8,0.03,1.09,-0.29,0.03,0.99,-0.07,-121.4,485.5,78.0,-1.28,-13.16,-0.11,0.0,0.9929249719893241,1.1283173312503891,0.0,0.0,2.0,0.6,0.003006175106410547,0.2,1.0,-160.0,0,0,calibrating,0,0,0,0,0,0.0
3.919996867000009,394,183.74,91.6,4.2,4.7,0.02,1.04,-0.11,0.02,1.0,-0.08,-116.6,479.9,-28.0,-1.41,-12.9,0.17,0.0,1.0033942395688744,1.0459923517884824,0.0,0.0,2.0,0.6,0.013205933832241668,0.2,1.0,-160.0,0,0,calibrating,0,0,0,0,0,0.0
3.9311721889999944,395,183.75,91.6,4.2,4.6,-0.13,0.96,0.08,0.0,1.01,-0.07,-111.9,459.4,-186.0,-1.53,-12.13,0.27,0.0,1.0124228365658292,0.97205966895042,0.0,0.0,2.0,0.6,0.021789840212612543,0.2,1.0,-160.0,0,0,calibrating,0,0,0,0,0,0.0
3.9399979739999935,396,183.76,91.6,4.1,4.5,-0.31,0.84,0.27,0.0,1.02,-0.06,-107.5,426.6,-312.0,-1.64,-11.08,0.11,0.0,1.0217631819555841,0.935200513259055,0.0,0.0,2.0,0.6,0.0305075818903201,0.2,1.0,-160.0,0,0,calibrating,0,0,0,0,0,0.0
3.951217075000045,397,183.77,91.6,4.1,4.5,-0.45,0.64,0.42,0.01,1.01,-0.06,-103.6,378.7,-439.0,-1.74,-9.67,0.26,0.0,1.011830025251277,0.8879752248796134,0.0,0.0,2.0,0.6,0.020162936682292742,0.2,1.0,-160.0,0,0,calibrating,0,0,0,0,0,0.0
3.9600945820000106,398,183.78,91.6,4.2,4.4,-0.48,0.42,0.5,0.04,0.99,-0.07,-100.1,332.7,-427.0,-1.83,-8.55,-0.23,0.0,0.9932774033471213,0.8104319835741923,0.0,0.0,2.0,0.6,0.0015781084825742253,0.2,1.0,-160.0,0,0,calibrating,0,0,0,0,0,0.0
3.970911698000009,399,183.79,91.5,4.2,4.4,-0.4,0.22,0.51,0.07,0.99,-0.08,-97.1,291.2,-430.0,-1.91,-7.36,0.0,0.0,0.9956907150315303,0.6844705983459042,0.0,0.0,2.0,0.6,0.003911591763643529,0.2,1.0,-160.0,0,0,calibrating,0,0,0,0,0,0.0
3.9801158430000214,400,183.8,91.5,4.3,4.4,-0.47,0.07,0.51,0.08,0.98,-0.09,-94.5,247.6,-421.0,-1.98,-6.24,0.0,0.0,0.9873702446397703,0.6970652767137379,0.0,0.0,2.0,0.6,0.004320701055554155,0.2,1.0,-160.0,0,0,calibrating,0,0,0,0,0,0.0
3.991031122000095,401,183.81,91.5,4.3,4.4,-0.48,0.03,0.49,0.09,0.97,-0.1,-92.3,213.1,-340.0,-2.03,-5.46,0.11,0.0,0.9792854537876073,0.6865857557508749,0.0,0.0,2.0,0.6,0.012157382069562739,0.2,1.0,-160.0,0,0,calibrating,0,0,0,0,0,0.0
3.9999841570000854,402,183.82,91.5,4.4,4.4,-0.36,0.02,0.48,0.08,0.96,-0.1,-90.3,188.3,-268.0,-2.08,-4.85,-0.08,0.0,0.96850400102426,0.6003332407921453,0.0,0.0,2.0,0.6,0.022480058136251868,0.2,1.0,-160.0,0,0,calibrating,0,0,0,0,0,0.0
4.011188882000056,403,183.83,91.5,4.4,4.4,-0.22,-0.02,0.5,0.07,0.94,-0.1,-88.6,166.5,-228.0,-2.13,-4.28,-0.03,0.0,0.9478923989567593,0.5466260147486579,0.0,0.0,2.0,0.6,0.04222982699967759,0.2,1.0,-160.0,0,0,calibrating,0,0,0,0,0,0.0
4.019993126000031,404,183.84,91.6,4.5,4.4,-0.06,-0.14,0.51,0.06,0.93,-0.1,-87.0,146.7,-202.0,-2.17,-3.76,0.08,0.0,0.9372833082905084,0.5322593352868505,0.0,0.0,2.0,0.6,0.05178213931261,0.2,1.0,-160.0,0,0,calibrating,0,0,0,0,0,0.0
4.031124865000038,405,183.85,91.6,4.5,4.4,0.14,-0.31,0.5,0.06,0.93,-0.1,-85.7,131.2,-160.0,-2.2,-3.41,-0.11,0.0,0.9372833082905084,0.6047313453096342,0.0,0.0,2.0,0.6,0.050746496526357765,0.2,1.0,-160.0,0,0,calibrating,0,0,0,0,0,0.0
4.0401059580000265,406,183.86,91.7,4.6,4.5,0.27,-0.51,0.45,0.06,0.94,-0.1,-84.5,119.8,-120.0,-2.23,-3.14,-0.03,0.0,0.9472064188971694,0.7317786550590282,0.0,0.0,2.0,0.6,0.040006918201302755,0.2,1.0,-160.0,0,0,calibrating,0,0,0,0,0,0.0
4.051137587000085,407,183.87,91.8,4.6,4.6,0.34,-0.69,0.42,0.06,0.95,-0.11,-83.3,112.1,-77.0,-2.27,-3.0,-0.19,0.0,0.9582275303913993,0.8764131445842194,0.0,0.0,2.0,0.6,0.02840609057293142,0.2,1.0,-160.0,0,0,calibrating,0,0,0,0,0,0.0
4.059991408000087,408,183.88,91.9,4.6,4.6,0.3,-0.82,0.39,0.05,0.96,-0.12,-82.2,110.1,-26.0,-2.3,-3.01,0.0,0.0,0.9687620966986683,0.9562949335848224,0.0,0.0,2.0,0.6,0.017514093780349183,0.2,1.0,-160.0,0,0,calibrating,0,0,0,0,0,0.0
4.071195370000055,409,183.89,92.0,4.7,4.7,0.26,-0.92,0.36,0.04,0.96,-0.12,-81.1,112.1,8.0,-2.33,-3.08,0.09,0.0,0.9682974749528164,1.0215674231297707,0.0,0.0,2.0,0.6,0.017619141215677092,0.2,1.0,-160.0,0,0,calibrating,0,0,0,0,0,0.0
4.07998912000005,410,183.9,92.1,4.7,4.8,0.29,-0.98,0.34,0.03,0.97,-0.12,-80.0,116.5,39.0,-2.36,-3.24,-0.13,0.0,0.9778547949465708,1.0770793842609745,0.0,0.0,2.0,0.6,0.007900584797484234,0.2,1.0,-160.0,0,0,calibrating,0,0,0,0,0,0.0
4.091066959000045,411,183.91,92.1,4.7,4.9,0.25,-1.04,0.36,0.01,0.99,-0.12,-78.7,121.6,43.0,-2.39,-3.35,0.02,0.0,0.9972963451251589,1.128583182578936,0.0,0.0,2.0,0.6,0.011310146073481797,0.2,1.0,-160.0,0,0,calibrating,0,0,0,0,0,0.0
4.099988327999995,412,183.92,92.1,4.7,5.0,0.13,-1.16,0.44,0.0,1.01,-0.12,-77.5,123.7,18.0,-2.42,-3.36,-0.02,0.0,1.0171037311896953,1.2474373731775075,0.0,0.0,2.0,0.6,0.030495181495257873,0.2,1.0,-160.0,0,0,calibrating,0,0,0,0,0,0.0
4.111118052000052,413,183.93,92.1,4.8,5.2,-0.03,-1.31,0.57,0.0,1.01,-0.11,-76.3,121.3,-21.0,-2.46,-3.22,0.11,0.0,1.0159724405711013,1.4289506639488994,0.0,0.0,2.0,0.6,0.028776613059130485,0.2,1.0,-160.0,0,0,calibrating,0,0,0,0,0,0.0
4.119977691000031,414,183.94,92.1,4.8,5.3,-0.08,-1.49,0.69,-0.01,1.0,-0.11,-75.1,114.6,-64.0,-2.49,-2.99,-0.04,0.0,1.006081507632458,1.643958636949239,0.0,0.0,2.0,0.6,0.018507966518077512,0.2,1.0,-160.0,0,0,calibrating,0,0,0,0,0,0.0
4.131173739000019,415,183.95,92.1,4.9,5.5,-0.07,-1.71,0.8,-0.01,0.99,-0.11,-74.0,103.2,-114.0,-2.52,-2.6,0.01,0.0,0.9961425600786264,1.8891797161731332,0.0,0.0,2.0,0.6,0.008397638584961009,0.2,1.0,-160.0,0,0,calibrating,0,0,0,0,0,0.0
4.1400956969999925,416,183.96,92.2,5.0,5.7,0.03,-1.93,0.88,-0.01,0.99,-0.12,-73.1,85.5,-167.0,-2.54,-2.06,0.24,0.0,0.9972963451251589,2.1213674834879503,0.0,0.0,2.0,0.6,0.009360395158863555,0.2,1.0,-160.0,0,0,calibrating,0,0,0,0,0,0.0
4.151012749000074,417,183.97,92.2,5.1,5.9,0.06,-2.13,0.97,0.0,0.99,-0.13,-72.4,61.3,-232.0,-2.55,-1.33,0.12,0.0,0.9984988733093293,2.341238988228241,0.0,0.0,2.0,0.6,0.010351664876173339,0.2,1.0,-160.0,0,0,calibrating,0,0,0,0,0,0.0
4.1600769679999985,418,183.98,92.2,5.2,6.1,0.06,-2.28,1.03,0.02,0.97,-0.13,-72.0,37.1,-227.0,-2.56,-0.74,0.04,0.0,0.9788769074812216,2.502578670092111,0.0,0.0,2.0,0.6,0.00908489493289566,0.2,1.0,-160.0,0,0,calibrating,0,0,0,0,0,0.0
4.171187706000069,419,183.99,92.2,5.3,6.3,0.1,-2.39,1.04,0.04,0.95,-0.15,-71.8,15.2,-221.0,-2.57,-0.14,0.15,0.0,0.9626006440887104,2.608390308216928,0.0,0.0,2.0,0.6,0.024853935158898777,0.2,1.0,-160.0,0,0,calibrating,0,0,0,0,0,0.0
4.180097042000057,420,184.0,92.3,5.4,6.6,0.2,-2.47,1.03,0.06,0.94,-0.15,-71.8,1.6,-215.0,-2.57,0.15,0.04,0.0,0.9537819457297354,2.6836169622358557,0.0,0.0,2.0,0.6,0.032999180847516296,0.2,1.0,-160.0,0,0,calibrating,0,0,0,0,0,0.0
4.190928420000091,421,184.01,92.3,5.4,6.9,0.26,-2.51,1.03,0.06,0.94,-0.16,-71.8,-4.0,-58.0,-2.56,0.05,-0.02,0.0,0.9554056729996949,2.725545816896131,0.0,0.0,2.0,0.6,0.030747944506005598,0.2,1.0,-160.0,0,0,calibrating,0,0,0,0,0,0.0
4.1999719220000316,422,184.02,92.4,5.5,7.1,0.19,-2.52,1.04,0.05,0.94,-0.17,-71.8,-0.4,-9.0,-2.56,0.01,0.05,0.0,0.9565563234854495,2.7327824648149366,0.0,0.0,2.0,0.6,0.02900534813984601,0.2,1.0,-160.0,0,0,calibrating,0,0,0,0,0,0.0
4.211178754000002,423,184.03,92.4,5.6,7.4,0.2,-2.52,1.07,0.04,0.94,-0.18,-71.8,-2.6,-29.0,-2.56,0.12,0.13,0.0,0.9579144011862437,2.7450500906176556,0.0,0.0,2.0,0.6,0.02709432503027076,0.2,1.0,-160.0,0,0,calibrating,0,0,0,0,0,0.0
4.219998525000051,424,184.04,92.5,5.7,7.6,0.2,-2.52,1.08,0.04,0.95,-0.18,-71.9,-7.6,-47.0,-2.56,0.28,0.04,0.0,0.9677293009927931,2.748963441008265,0.0,0.0,2.0,0.6,0.016933836719246975,0.2,1.0,-160.0,0,0,calibrating,0,0,0,0,0,0.0
4.230997565000052,425,184.05,92.5,5.8,7.9,0.12,-2.52,1.05,0.03,0.96,-0.19,-72.0,-18.3,-97.0,-2.56,0.64,-0.05,0.0,0.979081201943945,2.7326360899322104,0.0,0.0,2.0,0.6,0.005470297052733164,0.2,1.0,-160.0,0,0,calibrating,0,0,0,0,0,0.0
4.240047764999986,426,184.06,92.5,5.9,8.1,0.0,-2.55,1.04,0.04,0.98,-0.2,-72.3,-29.9,-114.0,-2.55,0.98,0.17,0.0,1.000999500499376,2.7539244724574417,0.0,0.0,2.0,0.6,0.016119041472643758,0.2,1.0,-160.0,0,0,calibrating,0,0,0,0,0,0.0
4.251176249000082,427,184.07,92.6,6.0,8.4,-0.13,-2.55,1.04,0.04,1.0,-0.21,-72.7,-45.2,-143.0,-2.53,1.42,0.1,0.0,1.0225947388873073,2.756991113514877,0.0,0.0,2.0,0.6,0.036959994263363716,0.2,1.0,-160.0,0,0,calibrating,0,0,0,0,0,0.0
4.2601732500000935,428,184.08,92.6,6.1,8.7,-0.24,-2.52,1.07,0.03,1.0,-0.21,-73.3,-61.5,-164.0,-2.52,1.89,-0.05,0.0,1.0222524150130436,2.748253991173305,0.0,0.0,2.0,0.6,0.03588531698131803,0.2,1.0,-160.0,0,0,calibrating,0,0,0,0,0,0.0
4.271181038000009,429,184.09,92.6,6.2,8.9,-0.28,-2.46,1.12,0.03,1.01,-0.21,-74.0,-82.8,-206.0,-2.49,2.54,0.04,0.0,1.0320368210485515,2.7174252519618642,0.0,0.0,2.0,0.6,0.044756328556489366,0.2,1.0,-160.0,0,0,calibrating,0,0,0,0,0,0.0
4.280091711000068,430,184.1,92.6,6.3,9.2,-0.31,-2.41,1.22,0.02,1.0,-0.19,-75.0,-104.1,-191.0,-2.46,3.02,0.04,0.0,1.0180864403379508,2.7189336144893277,0.0,0.0,2.0,0.6,0.030189828888970816,0.2,1.0,-160.0,0,0,calibrating,0,0,0,0,0,0.0
4.29099450800004,431,184.11,92.6,6.4,9.4,-0.27,-2.47,1.28,0.06,0.98,-0.11,-76.1,-115.8,-105.0,-2.43,3.16,-0.16,0.0,0.9879777325425912,2.7950313057280773,0.0,0.0,2.0,0.6,7.949867173906444e-05,0.2,1.0,-160.0,0,0,calibrating,0,0,0,0,0,0.0
4.300025719000018,432,184.12,92.7,6.5,9.7,0.99,-2.73,1.0,0.14,0.96,-0.12,-77.3,-112.9,8.0,-2.4,2.96,-0.24,0.0,0.9775479527879949,3.0713189349203054,0.0,0.0,2.0,0.6,0.010143275461200085,0.2,1.0,-160.0,0,0,calibrating,0,0,0,0,0,0.0
4.3111769020000565,433,184.13,92.9,6.6,10.0,1.94,-2.49,0.55,0.18,1.02,-0.18,-78.4,-106.8,10.0,-2.37,2.95,-0.14,0.0,1.0512849280761138,3.2040911347837784,0.0,0.0,2.0,0.6,0.06232182583038037,0.2,1.0,-160.0,0,0,calibrating,0,0,0,0,0,0.0
4.3201212139999825,434,184.14,93.1,6.6,10.2,1.51,-1.87,0.2,0.1,1.07,-0.2,-79.5,-115.5,-95.0,-2.34,3.37,0.1,0.0,1.0931148155614763,2.4118457662130885,0.0,0.0,2.0,0.6,0.10206867904942796,0.2,1.0,-160.0,0,0,calibrating,0,0,0,0,0,0.0
4.331075897000005,435,184.15,93.2,6.6,10.3,0.42,-1.33,0.07,0.04,1.07,-0.16,-80.8,-136.2,-174.0,-2.3,3.96,0.01,0.0,1.082635672791175,1.3964956140282,0.0,0.0,2.0,0.6,0.08975774555354421,0.2,1.0,-160.0,0,0,calibrating,0,0,0,0,0,0.0
4.340170823999983,436,184.16,93.2,6.6,10.5,0.28,-1.07,0.11,0.08,1.01,-0.1,-82.3,-154.6,-158.0,-2.26,4.35,0.03,0.0,1.0180864403379508,1.1114854924829203,0.0,0.0,2.0,0.6,0.024704342838313575,0.2,1.0,-160.0,0,0,calibrating,0,0,0,0,0,0.0
4.351082295000083,437,184.17,93.4,6.6,10.6,1.29,-1.1,0.11,0.13,0.96,-0.09,-83.9,-164.4,-105.0,-2.22,4.56,0.17,0.0,0.9729337079164233,1.6988819853068078,0.0,0.0,2.0,0.6,0.020039421791549605,0.2,1.0,-160.0,0,0,calibrating,0,0,0,0,0,0.0
4.3601818780000485,438,184.18,93.6,6.6,10.7,2.14,-1.3,-0.01,0.16,1.0,-0.1,-85.6,-171.3,-80.0,-2.17,4.74,0.13,0.0,1.0176443386566842,2.5039369001634206,0.0,0.0,2.0,0.6,0.024177784769737087,0.2,1.0,-160.0,0,0,calibrating,0,0,0,0,0,0.0
4.371163316000093,439,184.19,93.8,6.6,10.8,2.08,-1.2,-0.2,0.17,1.08,-0.11,-87.4,-177.3,-62.0,-2.12,4.88,-0.24,0.0,1.0988175462741756,2.4096472770926454,0.0,0.0,2.0,0.6,0.10324397253948392,0.2,1.0,-160.0,0,0,calibrating,0,0,0,0,0,0.0
4.38005703500005,440,184.2,94.0,6.6,10.9,1.52,-0.77,-0.46,0.16,1.1,-0.11,-89.1,-179.3,-15.0,-2.07,4.83,-0.07,0.0,1.11700492389246,1.764907929609927,0.0,0.0,2.0,0.6,0.11900272315461291,0.2,1.0,-160.0,0,0,calibrating,0,0,0,0,0,0.0
4.390905399000076,441,184.21,94.2,6.6,11.0,1.2,-0.33,-0.79,0.14,1.08,-0.11,-90.9,-174.7,38.0,-2.02,4.65,-0.04,0.0,1.0945775440780796,1.4741099009232657,0.0,0.0,2.0,0.6,0.09464383647342789,0.2,1.0,-160.0,0,0,calibrating,0,0,0,0,0,0.0
4.400169693000066,442,184.22,94.3,6.5,11.0,1.34,0.0,-1.08,0.14,1.07,-0.09,-92.6,-163.8,94.0,-1.98,4.29,-0.1,0.0,1.082866566110525,1.721046193453273,0.0,0.0,2.0,0.6,0.08127420133575591,0.2,1.0,-160.0,0,0,calibrating,0,0,0,0,0,0.0
4.411157058000072,443,184.23,94.5,6.4,11.0,1.52,0.19,-1.25,0.12,1.05,-0.05,-94.1,-149.6,131.0,-1.94,3.87,0.01,0.0,1.0580170130957252,1.9771191162901642,0.0,0.0,2.0,0.6,0.055296155354537024,0.2,1.0,-160.0,0,0,calibrating,0,0,0,0,0,0.0
4.420064781000065,444,184.24,94.6,6.2,10.9,1.91,0.17,-1.44,0.09,1.05,-0.06,-95.5,-135.5,131.0,-1.9,3.53,0.04,0.0,1.0555567251455509,2.3980408670412605,0.0,0.0,2.0,0.6,0.051779150056275425,0.2,1.0,-160.0,0,0,calibrating,0,0,0,0,0,0.0
4.431264229000021,445,184.25,94.8,6.1,10.9,2.1,0.12,-1.55,0.06,1.07,-0.07,-96.8,-123.4,114.0,-1.87,3.23,-0.16,0.0,1.0739646176667088,2.61283371074395,0.0,0.0,2.0,0.6,0.06878330172588476,0.2,1.0,-160.0,0,0,calibrating,0,0,0,0,0,0.0
4.439948775000062,446,184.26,95.0,5.9,10.9,2.05,0.02,-1.55,0.01,1.09,-0.08,-98.0,-113.7,94.0,-1.84,3.0,-0.02,0.0,1.092977584399607,2.5700972744236745,0.0,0.0,2.0,0.6,0.08604034308960729,0.2,1.0,-160.0,0,0,calibrating,0,0,0,0,0,0.0
4.451141001999986,447,184.27,95.2,5.7,10.9,1.86,-0.23,-1.33,-0.02,1.11,-0.07,-99.1,-108.8,51.0,-1.81,2.94,0.02,0.0,1.112384825498802,2.2981296743221433,0.0,0.0,2.0,0.6,0.10333863250502628,0.2,1.0,-160.0,0,0,calibrating,0,0,0,0,0,0.0
4.459968434000075,448,184.28,95.4,5.5,10.9,1.61,-0.62,-0.99,-0.06,1.1,-0.05,-100.1,-107.0,27.0,-1.78,2.89,-0.04,0.0,1.102769241500687,1.9891204086228667,0.0,0.0,2.0,0.6,0.09184858753677294,0.2,1.0,-160.0,0,0,calibrating,0,0,0,0,0,0.0
4.471164570000042,449,184.29,95.6,5.5,11.0,1.45,-1.15,-0.57,-0.09,1.08,-0.03,-101.2,-106.2,8.0,-1.75,2.9,0.0,0.0,1.084158659975559,1.9364658530425989,0.0,0.0,2.0,0.6,0.07177324589141221,0.2,1.0,-160.0,0,0,calibrating,0,0,0,0,0,0.0
4.480037530000004,450,184.3,95.7,5.4,11.1,1.59,-1.84,-0.16,-0.11,1.07,0.0,-102.3,-109.1,-16.0,-1.72,2.99,0.25,0.0,1.0756393447619885,2.437067910420225,0.0,0.0,2.0,0.6,0.06198885206428484,0.2,1.0,-160.0,0,0,calibrating,0,0,0,0,0,0.0
4.491091415000028,451,184.31,95.9,5.4,11.4,1.88,-2.56,0.21,-0.1,1.07,0.01,-103.4,-111.9,-24.0,-1.69,3.05,-0.01,0.0,1.074709263010234,3.1830959771895038,0.0,0.0,2.0,0.6,0.05983759490627971,0.2,1.0,-160.0,0,0,calibrating,0,0,0,0,0,0.0
4.500054356000078,452,184.32,96.1,5.4,11.7,1.88,-3.17,0.52,-0.05,1.08,0.01,-104.5,-113.6,-16.0,-1.66,3.1,0.09,0.0,1.0812030336620408,3.722055883513841,0.0,0.0,2.0,0.6,0.06500473824692476,0.2,1.0,-160.0,0,0,calibrating,0,0,0,0,0,0.0
4.510865843000033,453,184.33,96.3,5.4,12.0,1.63,-3.58,0.76,0.02,1.09,0.01,-105.7,-113.1,4.0,-1.63,3.05,-0.02,0.0,1.0902293336725077,4.006357447857093,0.0,0.0,2.0,0.6,0.07255041749224378,0.2,1.0,-160.0,0,0,calibrating,0,0,0,0,0,0.0
4.52003417200001,454,184.34,96.5,5.5,12.4,1.22,-3.83,0.9,0.1,1.06,0.0,-106.8,-108.0,48.0,-1.6,2.84,-0.05,0.0,1.0647065323364933,4.1191382593935835,0.0,0.0,2.0,0.6,0.04608706383310479,0.2,1.0,-160.0,0,0,calibrating,0,0,0,0,0,0.0
4.530948570000078,455,184.35,96.6,5.5,12.8,0.84,-3.84,0.89,0.15,1.03,0.0,-107.8,-99.0,82.0,-1.57,2.55,0.06,0.0,1.0408650248711404,4.030297755749568,0.0,0.0,2.0,0.6,0.021800645240396932,0.2,1.0,-160.0,0,0,calibrating,0,0,0,0,0,0.0
4.540036624000095,456,184.36,96.7,5.6,13.2,0.45,-3.73,0.72,0.2,0.99,0.03,-108.7,-88.5,104.0,-1.55,2.24,0.06,0.0,1.0104454463255301,3.825415010165564,0.0,0.0,2.0,0.6,0.008446554639109038,0.2,1.0,-160.0,0,0,calibrating,0,0,0,0,0,0.0
4.550938330000008,457,184.37,96.8,5.6,13.5,0.11,-3.61,0.48,0.24,0.95,0.06,-109.5,-76.2,107.0,-1.53,1.95,-0.06,0.0,0.9816822296446035,3.6434324475691873,0.0,0.0,2.0,0.6,0.03646557589363497,0.2,1.0,-160.0,0,0,calibrating,0,0,0,0,0,0.0
4.559934836000025,458,184.38,96.8,5.6,13.9,-0.23,-3.46,0.26,0.24,0.91,0.07,-110.2,-64.2,122.0,-1.51,1.58,0.1,0.0,0.9437160589923221,3.477369695617652,0.0,0.0,2.0,0.6,0.07294311161499811,0.2,1.0,-160.0,0,0,calibrating,0,0,0,0,0,0.0
4.571112220000032,459,184.39,96.8,5.5,14.2,-0.45,-3.33,0.13,0.23,0.88,0.09,-110.7,-50.5,124.0,-1.5,1.23,-0.16,0.0,0.9140021881811881,3.362781586722516,0.0,0.0,2.0,0.6,0.10060384277760959,0.2,1.0,-160.0,0,0,calibrating,0,0,0,0,0,0.0
4.579934313000081,460,184.4,96.8,5.5,14.6,-0.45,-3.22,0.1,0.21,0.86,0.11,-111.1,-38.8,117.0,-1.49,0.91,-0.07,0.0,0.8920762299265685,3.25282953749501,0.0,0.0,2.0,0.6,0.12007920501158442,0.2,1.0,-160.0,0,0,calibrating,0,0,0,0,0,0.0
4.591100724000057,461,184.41,96.8,5.5,14.9,-0.26,-3.19,0.1,0.18,0.85,0.1,-111.5,-26.0,121.0,-1.48,0.57,0.0,0.0,0.8745856161634491,3.202139909498022,0.0,0.0,2.0,0.6,0.13481842239920971,0.2,1.0,-160.0,0,0,calibrating,0,0,0,0,0,0.0
4.599935931999994,462,184.42,96.8,5.5,15.2,-0.05,-3.13,0.08,0.15,0.86,0.09,-111.6,-14.5,112.0,-1.48,0.28,-0.18,0.0,0.8776103919165952,3.1314214024944005,0.0,0.0,2.0,0.6,0.1291577737131424,0.2,1.0,-160.0,0,0,calibrating,0,0,0,0,0,0.0
4.610981969000022,463,184.43,96.8,5.4,15.5,-0.02,-3.05,0.04,0.12,0.88,0.08,-111.7,-5.3,95.0,-1.48,0.04,0.07,0.0,0.8917398723843181,3.0503278512317324,0.0,0.0,2.0,0.6,0.11272772738051096,0.2,1.0,-160.0,0,0,calibrating,0,0,0,0,0,0.0
4.619929952000007,464,184.44,96.8,5.4,15.8,-0.11,-3.0,0.0,0.12,0.9,0.07,-111.7,1.3,55.0,-1.48,-0.04,0.05,0.0,0.910659101969557,3.0020159892978584,0.0,0.0,2.0,0.6,0.09193232783936678,0.2,1.0,-160.0,0,0,calibrating,0,0,0,0,0,0.0
4.631095348000031,465,184.45,96.9,5.3,16.1,-0.19,-2.96,-0.06,0.12,0.91,0.04,-111.7,-0.2,1.0,-1.48,0.03,-0.1,0.0,0.9187491496594705,2.9666985017018495,0.0,0.0,2.0,0.6,0.0821654345464643,0.2,1.0,-160.0,0,0,calibrating,0,0,0,0,0,0.0
4.639917687000093,466,184.46,96.9,5.3,16.4,-0.14,-2.89,-0.15,0.13,0.93,0.01,-111.7,0.5,13.0,-1.48,-0.03,0.05,0.0,0.939095309327014,2.8972745813954193,0.0,0.0,2.0,0.6,0.060582889381342375,0.2,1.0,-160.0,0,0,calibrating,0,0,0,0,0,0.0
4.651086931999998,467,184.47,96.9,5.2,16.7,-0.03,-2.74,-0.23,0.16,0.97,0.0,-111.7,-0.2,-3.0,-1.48,0.0,-0.19,0.0,0.9831073186585481,2.749799992726744,0.0,0.0,2.0,0.6,0.016239462448812136,0.2,1.0,-160.0,0,0,calibrating,0,0,0,0,0,0.0
4.659931231000087,468,184.48,96.9,5.2,16.9,0.0,-2.48,-0.3,0.19,1.0,-0.03,-111.7,0.1,3.0,-1.48,0.0,-0.19,0.0,1.0183319694480772,2.4980792621532246,0.0,0.0,2.0,0.6,0.018605484573902764,0.2,1.0,-160.0,0,0,calibrating,0,0,0,0,0,0.0
4.670943555999997,469,184.49,96.9,5.1,17.2,-0.02,-2.13,-0.32,0.21,1.03,-0.07,-111.7,-0.1,0.0,-1.48,0.0,-0.11,0.0,1.0535179163165664,2.153996285976371,0.0,0.0,2.0,0.6,0.05271560281354404,0.2,1.0,-160.0,0,0,calibrating,0,0,0,0,0,0.0
4.679908162000061,470,184.5,96.9,5.1,17.4,-0.11,-1.7,-0.27,0.22,1.06,-0.09,-111.7,-0.1,-1.0,-1.48,0.0,-0.04,0.0,1.086324076875773,1.724818831066034,0.0,0.0,2.0,0.6,0.08381132810529546,0.2,1.0,-160.0,0,0,calibrating,0,0,0,0,0,0.0
4.691112865000036,471,184.51,96.9,5.1,17.5,-0.06,-1.26,-0.13,0.21,1.08,-0.1,-111.7,-0.6,0.0,-1.48,0.0,0.14,0.0,1.1047624178980746,1.2681088281373962,0.0,0.0,2.0,0.6,0.10020467574504521,0.2,1.0,-160.0,0,0,calibrating,0,0,0,0,0,0.0
4.6999874250000175,472,184.52,96.9,5.1,17.6,0.17,-0.89,0.08,0.2,1.11,-0.1,-111.7,-0.9,-9.0,-1.48,0.06,-0.04,0.0,1.1322985472038725,0.9096153033013462,0.0,0.0,2.0,0.6,0.12518598894982613,0.2,1.0,-160.0,0,0,calibrating,0,0,0,0,0,0.0
4.7109995819999995,473,184.53,97.0,5.2,17.7,0.29,-0.63,0.35,0.18,1.13,-0.09,-111.8,-3.9,-29.0,-1.48,0.16,0.22,0.0,1.1477804668141027,0.7768526243760782,0.0,0.0,2.0,0.6,0.1378545503888553,0.2,1.0,-160.0,0,0,calibrating,0,0,0,0,0,0.0
4.719907590000048,474,184.54,97.0,5.2,17.7,0.19,-0.51,0.6,0.16,1.12,-0.09,-111.8,-10.3,-67.0,-1.47,0.4,-0.11,0.0,1.134944932584837,0.8100617260431454,0.0,0.0,2.0,0.6,0.12251863583639788,0.2,1.0,-160.0,0,0,calibrating,0,0,0,0,0,0.0
4.731080782000049,475,184.55,97.0,5.3,17.8,-0.03,-0.47,0.79,0.14,1.09,-0.08,-112.0,-20.7,-84.0,-1.47,0.67,0.07,0.0,1.1018620603324176,0.9197282207261013,0.0,0.0,2.0,0.6,0.08764704831229886,0.2,1.0,-160.0,0,0,calibrating,0,0,0,0,0,0.0
4.7400272600000335,476,184.56,96.9,5.4,17.8,-0.28,-0.46,0.94,0.13,1.05,-0.08,-112.3,-32.3,-121.0,-1.46,1.06,0.01,0.0,1.061037228376083,1.0833282051160673,0.0,0.0,2.0,0.6,0.04588577202884481,0.2,1.0,-160.0,0,0,calibrating,0,0,0,0,0,0.0
4.750814744000081,477,184.57,96.9,5.5,17.9,-0.37,-0.45,1.05,0.13,1.01,-0.08,-112.7,-45.4,-111.0,-1.45,1.34,0.03,0.0,1.0214695296483394,1.2007914056987583,0.0,0.0,2.0,0.6,0.006191711835079383,0.2,1.0,-160.0,0,0,calibrating,0,0,0,0,0,0.0
4.759823718999996,478,184.58,96.8,5.7,18.0,-0.39,-0.4,1.17,0.14,0.97,-0.08,-113.2,-53.5,-92.0,-1.43,1.57,0.32,0.0,0.9833107342035883,1.2965338406690354,0.0,0.0,2.0,0.6,0.03132774193747834,0.2,1.0,-160.0,0,0,calibrating,0,0,0,0,0,0.0
4.7705382120000195,479,184.59,96.8,5.8,18.0,-0.3,-0.36,1.27,0.14,0.96,-0.09,-113.8,-61.6,-80.0,-1.41,1.75,-0.07,0.0,0.9743202758846805,1.3536986370680884,0.0,0.0,2.0,0.6,0.039511836251258536,0.2,1.0,-160.0,0,0,calibrating,0,0,0,0,0,0.0
4.779946470000027,480,184.6,96.7,6.0,18.1,-0.17,-0.31,1.34,0.15,0.95,-0.09,-114.5,-66.1,-47.0,-1.4,1.83,-0.08,0.0,0.9659710140578753,1.3858571354941318,0.0,0.0,2.0,0.6,0.046903876116502485,0.2,1.0,-160.0,0,0,calibrating,0,0,0,0,0,0.0
4.791152214000022,481,184.61,96.7,6.1,18.1,-0.08,-0.25,1.38,0.15,0.94,-0.09,-115.1,-67.8,-21.0,-1.38,1.86,0.14,0.0,0.9561380653441217,1.4047419691886478,0.0,0.0,2.0,0.6,0.05560208833365088,0.2,1.0,-160.0,0,0,calibrating,0,0,0,0,0,0.0
4.800142023000035,482,184.62,96.7,6.3,18.1,-0.06,-0.19,1.38,0.16,0.93,-0.1,-115.8,-67.4,-1.0,-1.36,1.82,0.07,0.0,0.9489467845985886,1.3943098651304162,0.0,0.0,2.0,0.6,0.061537501697600305,0.2,1.0,-160.0,0,0,calibrating,0,0,0,0,0,0.0
4.810949389000029,483,184.63,96.7,6.5,18.2,-0.06,-0.12,1.35,0.16,0.93,-0.11,-116.5,-66.5,14.0,-1.34,1.75,-0.09,0.0,0.9500526301210896,1.3566502865514016,0.0,0.0,2.0,0.6,0.05922302305159732,0.2,1.0,-160.0,0,0,calibrating,0,0,0,0,0,0.0
4.824217529000066,484,184.64,96.7,6.7,18.2,-0.08,-0.06,1.32,0.17,0.92,-0.11,-117.1,-61.7,45.0,-1.33,1.58,-0.01,0.0,0.942019108086455,1.323782459469833,0.0,0.0,2.0,0.6,0.0659114141845073,0.2,1.0,-160.0,0,0,calibrating,0,0,0,0,0,0.0
4.836103729000001,485,184.65,96.7,6.8,18.2,-0.12,-0.01,1.27,0.18,0.92,-0.11,-117.7,-54.8,59.0,-1.31,1.4,-0.07,0.0,0.9438749917229505,1.275695888525161,0.0,0.0,2.0,0.6,0.06277441993705146,0.2,1.0,-160.0,0,0,calibrating,0,0,0,0,0,0.0
4.844192909000071,486,184.66,96.7,7.0,18.2,-0.14,0.01,1.15,0.19,0.91,-0.1,-118.2,-46.6,76.0,-1.3,1.17,-0.09,0.0,0.9349866309204641,1.1585335558368604,0.0,0.0,2.0,0.6,0.07022952512474723,0.2,1.0,-160.0,0,0,calibrating,0,0,0,0,0,0.0
4.852171650000059,487,184.67,96.7,7.2,18.2,-0.18,0.03,0.99,0.2,0.9,-0.1,-118.6,-38.8,84.0,-1.29,0.92,0.07,0.0,0.9273618495495705,1.006677704133751,0.0,0.0,2.0,0.6,0.07629722036572806,0.2,1.0,-160.0,0,0,calibrating,0,0,0,0,0,0.0
4.860121094000078,488,184.68,96.6,7.3,18.2,-0.28,0.08,0.78,0.2,0.89,-0.1,-118.9,-29.9,85.0,-1.28,0.7,-0.05,0.0,0.9176600677810929,0.8325863318599459,0.0,0.0,2.0,0.6,0.0842790220915215,0.2,1.0,-160.0,0,0,calibrating,0,0,0,0,0,0.0
4.871046049000029,489,184.69,96.6,7.4,18.2,-0.35,0.12,0.54,0.2,0.89,-0.11,-119.2,-20.4,96.0,-1.28,0.42,-0.06,0.0,0.9188035698668133,0.6545991139621257,0.0,0.0,2.0,0.6,0.08147280960568493,0.2,1.0,-160.0,0,0,calibrating,0,0,0,0,0,0.0
4.880012704000023,490,184.7,96.6,7.5,18.2,-0.41,0.19,0.33,0.19,0.89,-0.12,-119.3,-13.0,73.0,-1.27,0.26,0.05,0.0,0.9179324593890337,0.5595533933415112,0.0,0.0,2.0,0.6,0.08069704168179526,0.2,1.0,-160.0,0,0,calibrating,0,0,0,0,0,0.0
4.891014394000081,491,184.71,96.6,7.6,18.2,-0.44,0.24,0.15,0.18,0.89,-0.11,-119.4,-6.7,66.0,-1.27,0.1,0.08,0.0,0.91465840618233,0.5231634543811332,0.0,0.0,2.0,0.6,0.08229167299072904,0.2,1.0,-160.0,0,0,calibrating,0,0,0,0,0,0.0
4.900011092999989,492,184.72,96.5,7.6,18.2,-0.47,0.26,0.0,0.17,0.9,-0.11,-119.4,-2.1,45.0,-1.27,0.02,0.11,0.0,0.922496612459905,0.5371219600798314,0.0,0.0,2.0,0.6,0.07296439737889093,0.2,1.0,-160.0,0,0,calibrating,0,0,0,0,0,0.0
4.910903937000057,493,184.73,96.5,7.6,18.2,-0.56,0.26,-0.13,0.15,0.92,-0.11,-119.4,0.0,22.0,-1.27,0.0,-0.1,0.0,0.9386160024205852,0.6309516621738943,0.0,0.0,2.0,0.6,0.05570810726984654,0.2,1.0,-160.0,0,0,calibrating,0,0,0,0,0,0.0
4.92003034600009,494,184.74,96.4,7.6,18.1,-0.61,0.23,-0.26,0.14,0.93,-0.11,-119.4,-0.7,1.0,-1.27,0.01,0.05,0.0,0.9468896451012653,0.7018546858146635,0.0,0.0,2.0,0.6,0.04648577529738307,0.2,1.0,-160.0,0,0,calibrating,0,0,0,0,0,0.0
4.930809199999999,495,184.75,96.3,7.6,18.1,-0.69,0.19,-0.37,0.13,0.95,-0.11,-119.4,-0.7,2.0,-1.27,0.01,-0.01,0.0,0.9651424765287248,0.8056674251823763,0.0,0.0,2.0,0.6,0.02766828499252516,0.2,1.0,-160.0,0,0,calibrating,0,0,0,0,0,0.0
4.940007335000018,496,184.76,96.3,7.6,18.1,-0.81,0.13,-0.43,0.12,0.97,-0.1,-119.5,-0.6,3.0,-1.27,0.0,0.09,0.0,0.9824968193332739,0.9262289133902051,0.0,0.0,2.0,0.6,0.010107663344216422,0.2,1.0,-160.0,0,0,calibrating,0,0,0,0,0,0.0
4.950901505000047,497,184.77,96.2,7.5,18.1,-0.89,0.04,-0.46,0.11,0.98,-0.1,-119.5,-1.0,-4.0,-1.27,0.03,0.09,0.0,0.9912113800799505,1.0026464980241043,0.0,0.0,2.0,0.6,0.0013652405455890637,0.2,1.0,-160.0,0,0,calibrating,0,0,0,0,0,0.0
4.960002584999984,498,184.78,96.1,7.5,18.1,-0.94,-0.07,-0.49,0.11,0.99,-0.1,-119.5,-2.9,-12.0,-1.27,0.09,-0.05,0.0,1.0010993956645864,1.0623558725775464,0.0,0.0,2.0,0.6,0.008352319538265873,0.2,1.0,-160.0,0,0,calibrating,0,0,0,0,0,0.0
4.97089336800002,499,184.79,96.0,7.4,18.1,-0.97,-0.18,-0.56,0.11,0.99,-0.1,-119.5,-3.3,-3.0,-1.27,0.09,0.11,0.0,1.0010993956645864,1.1344161493913951,0.0,0.0,2.0,0.6,0.008185273147500505,0.2,1.0,-160.0,0,0,calibrating,0,0,0,0,0,0.0
4.9800107749999825,500,184.8,95.9,7.3,18.1,-1.0,-0.25,-0.64,0.12,0.98,-0.11,-119.5,-2.2,4.0,-1.27,0.06,0.12,0.0,0.9934284070832683,1.2133012816279392,0.0,0.0,2.0,0.6,0.0005039988748587465,0.2,1.0,-160.0,0,0,calibrating,0,0,0,0,0,0.0
4.990912332999983,501,184.81,95.8,7.3,18.1,-0.99,-0.3,-0.7,0.13,0.97,-0.12,-119.6,-2.6,-4.0,-1.27,0.09,-0.04,0.0,0.9860020283954795,1.2490396310766123,0.0,0.0,2.0,0.6,0.006783932216671507,0.2,1.0,-160.0,0,0,calibrating,0,0,0,0,0,0.0
5.00000126000009,502,184.82,95.7,7.2,18.1,-0.9,-0.34,-0.73,0.14,0.97,-0.12,-119.6,-3.9,-15.0,-1.26,0.14,-0.22,0.0,0.9873702446397703,1.2076837334335508,0.0,0.0,2.0,0.6,0.005307401652932975,0.2,1.0,-160.0,0,0,calibrating,0,0,0,0,0,0.0
5.010914525000089,503,184.83,95.7,7.1,18.2,-0.81,-0.36,-0.75,0.15,0.98,-0.13,-119.7,-9.2,-60.0,-1.26,0.38,0.24,0.0,0.9998999949994999,1.1611201488218177,0.0,0.0,2.0,0.6,0.007077901732660541,0.2,1.0,-160.0,0,0,calibrating,0,0,0,0,0,0.0
5.0199998960000585,504,184.84,95.6,7.1,18.2,-0.79,-0.36,-0.76,0.16,0.99,-0.13,-119.8,-20.6,-96.0,-1.26,0.7,0.22,0.0,1.011236866416568,1.153819743287486,0.0,0.0,2.0,0.6,0.018046477686734175,0.2,1.0,-160.0,0,0,calibrating,0,0,0,0,0,0.0
5.0307973080000465,505,184.85,95.6,7.0,18.2,-0.87,-0.32,-0.74,0.17,0.99,-0.14,-120.1,-30.1,-86.0,-1.25,0.9,0.0,0.0,1.0141991914806479,1.1861281549647154,0.0,0.0,2.0,0.6,0.02058862669579764,0.2,1.0,-160.0,0,0,calibrating,0,0,0,0,0,0.0
5.039997496000069,506,184.86,95.5,7.0,18.3,-0.9,-0.24,-0.73,0.17,0.99,-0.14,-120.5,-38.8,-84.0,-1.24,1.15,0.08,0.0,1.0141991914806479,1.183427226321923,0.0,0.0,2.0,0.6,0.02017685416188164,0.2,1.0,-160.0,0,0,calibrating,0,0,0,0,0,0.0
5.050889529000074,507,184.87,95.4,6.9,18.3,-0.87,-0.15,-0.71,0.17,0.99,-0.14,-120.9,-47.4,-85.0,-1.22,1.38,0.08,0.0,1.0141991914806479,1.1329165900453573,0.0,0.0,2.0,0.6,0.019773317078644048,0.2,1.0,-160.0,0,0,calibrating,0,0,0,0,0,0.0
5.059991604000061,508,184.88,95.4,6.9,18.3,-0.8,-0.05,-0.64,0.17,0.98,-0.14,-121.4,-54.4,-76.0,-1.21,1.57,-0.11,0.0,1.0044401425669924,1.0257192598367255,0.0,0.0,2.0,0.6,0.00981398280168888,0.2,1.0,-160.0,0,0,calibrating,0,0,0,0,0,0.0
5.070895074000077,509,184.89,95.3,6.9,18.3,-0.72,0.03,-0.56,0.17,0.98,-0.14,-122.0,-59.8,-49.0,-1.19,1.65,-0.09,0.0,1.0044401425669924,0.912633551870629,0.0,0.0,2.0,0.6,0.009617703145655132,0.2,1.0,-160.0,0,0,calibrating,0,0,0,0,0,0.0
5.079998687000057,510,184.9,95.3,6.8,18.3,-0.68,0.13,-0.49,0.16,0.98,-0.14,-122.7,-63.1,-40.0,-1.17,1.77,-0.07,0.0,1.0027960909377338,0.848174510345601,0.0,0.0,2.0,0.6,0.00781417848606858,0.2,1.0,-160.0,0,0,calibrating,0,0,0,0,0,0.0
5.0907704979999835,511,184.91,95.3,6.8,18.3,-0.68,0.26,-0.44,0.16,0.98,-0.14,-123.3,-67.4,-40.0,-1.16,1.87,0.06,0.0,1.0027960909377338,0.8506468127254696,0.0,0.0,2.0,0.6,0.007657894916347163,0.2,1.0,-160.0,0,0,calibrating,0,0,0,0,0,0.0
5.100010230000066,512,184.92,95.2,6.8,18.2,-0.72,0.39,-0.42,0.17,0.98,-0.14,-124.0,-70.0,-28.0,-1.14,1.92,0.07,0.0,1.0044401425669924,0.9202716990106781,0.0,0.0,2.0,0.6,0.009115907614693719,0.2,1.0,-160.0,0,0,calibrating,0,0,0,0,0,0.0
5.111021628000003,513,184.93,95.2,6.8,18.2,-0.76,0.52,-0.42,0.17,0.97,-0.13,-124.7,-69.1,6.0,-1.12,1.84,0.11,0.0,0.993327740476425,1.0121264743103997,0.0,0.0,2.0,0.6,0.00195656458635618,0.2,1.0,-160.0,0,0,calibrating,0,0,0,0,0,0.0
5.119990432000009,514,184.94,95.1,6.8,18.1,-0.79,0.64,-0.46,0.17,0.95,-0.13,-125.4,-66.0,20.0,-1.1,1.77,-0.05,0.0,0.9738069623903908,1.1159301053381434,0.0,0.0,2.0,0.6,0.02104779581894267,0.2,1.0,-160.0,0,0,calibrating,0,0,0,0,0,0.0
5.131030691000092,515,184.95,95.0,6.8,18.0,-0.8,0.77,-0.5,0.17,0.93,-0.13,-126.0,-63.7,17.0,-1.08,1.71,-0.01,0.0,0.9543060305792896,1.2177438154226037,0.0,0.0,2.0,0.6,0.03973775307744287,0.2,1.0,-160.0,0,0,calibrating,0,0,0,0,0,0.0
