host_time_s,seq,device_time_s,roll,pitch,yaw,gyro_x,gyro_y,gyro_z,accel_x,accel_y,accel_z,belt_length,belt_velocity,belt_acceleration,motor_pos,motor_vel,motor_iq_meas,motor_iq_set,acc_mag,gyro_mag,acc_residual,threshold,heel_strike,hs_count,torque_cmd_nm
2.0683836249991145,1,729.31,99.0,6.0,-36.1,1.32,1.68,-0.56,0.03,0.87,0.01,-156.3,303.0,23.0,-0.34,-7.53,-0.17,0.0,0.8705745229444749,2.2087100307645637,0.0,0.35,0,0,0.0
2.0766397539991885,2,729.32,99.5,5.9,-36.3,2.84,0.74,-0.64,0.02,1.0,-0.02,-152.1,269.4,-66.0,-0.41,-7.52,-0.14,0.0,1.000399920031984,3.0037975963769594,0.12722888914575892,0.35,0,0,0.0
2.0845423489990935,3,729.33,99.8,5.9,-36.4,2.87,0.42,-0.76,0.0,1.06,-0.1,-149.6,284.8,84.0,-0.48,-7.96,0.03,0.0,1.0647065323364933,2.9984829497597616,0.18770479142126284,0.35,0,0,0.0
2.092503173998921,4,729.34,100.0,5.8,-36.4,1.79,0.27,-0.74,0.02,1.14,-0.15,-146.6,305.3,171.0,-0.57,-8.56,-0.3,0.0,1.15,1.9556584568886255,0.26753829390307415,0.35,0,0,0.0
2.1041215419991204,5,729.35,100.1,5.6,-36.5,1.29,0.14,-0.83,0.02,1.08,-0.17,-143.2,327.7,185.0,-0.67,-9.1,0.07,0.0,1.0934806811279292,1.540324641106543,0.20679859553038338,0.35,0,0,0.0
2.112584133999917,6,729.36,100.2,5.5,-36.5,0.99,0.13,-0.87,0.05,1.05,-0.19,-139.8,339.4,132.0,-0.76,-9.38,-0.2,0.0,1.0682228231974826,1.3243488966280752,0.17790992284793805,0.35,0,0,0.0
2.124138902998311,7,729.37,100.3,5.4,-36.5,1.0,0.25,-0.88,0.08,1.03,-0.2,-136.3,352.4,129.0,-0.86,-9.72,-0.14,0.0,1.0522832318344715,1.355322839769182,0.15873092485522833,0.35,0,0,0.0
2.1325358979993325,8,729.38,100.4,5.3,-36.6,1.1,0.52,-0.89,0.1,1.02,-0.21,-132.7,359.5,60.0,-0.94,-9.77,-0.15,0.0,1.0461835403025608,1.5074813431681335,0.14957860865685124,0.35,0,0,0.0
2.1441353319987684,9,729.39,100.5,5.3,-36.7,1.23,0.85,-0.87,0.12,1.01,-0.22,-129.2,360.1,50.0,-1.05,-9.9,0.08,0.0,1.0406248123122954,1.7298265809034152,0.1411394830532542,0.35,0,0,0.0
2.1525442419988394,10,729.4,100.7,5.2,-36.8,1.23,1.13,-0.88,0.13,1.01,-0.22,-125.5,369.9,74.0,-1.14,-10.12,-0.03,0.0,1.0418253212511202,1.8879088961070127,0.13949319215223732,0.35,0,0,0.0
2.1641630829999485,11,729.41,100.8,5.2,-36.9,1.07,1.36,-0.96,0.12,1.0,-0.22,-121.8,371.9,13.0,-1.24,-10.07,0.03,0.0,1.0309219175087898,1.9789138435010252,0.12601799264170888,0.35,0,0,0.0
2.1725576389999333,12,729.42,100.9,5.1,-37.1,0.8,1.53,-1.1,0.1,1.01,-0.2,-118.1,370.0,2.0,-1.36,-10.07,-0.02,0.0,1.034456378974,2.0471687766278577,0.1269614050247807,0.35,0,0,0.0
2.1840851069991913,13,729.43,100.9,5.0,-37.3,0.46,1.57,-1.24,0.07,1.01,-0.18,-114.3,369.6,-13.0,-1.45,-10.0,-0.07,0.0,1.0282995672468214,2.052827318602322,0.11838850143165003,0.35,0,0,0.0
2.1924220219989365,14,729.44,100.9,4.9,-37.5,0.02,1.57,-1.33,0.04,1.0,-0.15,-110.7,366.5,-17.0,-1.56,-9.95,0.22,0.0,1.0119782606360672,2.0577171817331945,0.10002585092447791,0.35,0,0,0.0
2.204096932999164,15,729.45,100.9,4.8,-37.6,-0.3,1.53,-1.34,0.01,0.98,-0.14,-107.0,361.8,-69.0,-1.65,-9.66,-0.02,0.0,0.9899999999999999,2.0558453249211137,0.07648663848264237,0.35,0,0,0.0
2.212461152999822,16,729.46,100.8,4.7,-37.8,-0.49,1.45,-1.3,0.0,0.97,-0.12,-103.5,344.0,-163.0,-1.75,-9.07,0.1,0.0,0.9773944955850733,2.008133461700193,0.06260351138636144,0.35,0,0,0.0
2.223863030998473,17,729.47,100.7,4.6,-38.0,-0.45,1.34,-1.23,0.0,0.96,-0.12,-100.2,325.0,-169.0,-1.83,-8.6,0.23,0.0,0.9674709297958259,1.8737662607700034,0.05162634668517185,0.35,0,0,0.0
2.2325455199988937,18,729.48,100.7,4.5,-38.1,-0.39,1.25,-1.14,-0.01,0.97,-0.12,-97.1,304.6,-212.0,-1.91,-8.0,-0.01,0.0,0.977445650662992,1.736145155221763,0.06036904620129124,0.35,0,0,0.0
2.2441338169992378,19,729.49,100.6,4.4,-38.3,-0.5,1.13,-0.98,-0.01,0.99,-0.1,-94.3,274.8,-276.0,-1.98,-7.14,0.06,0.0,0.9950879358127099,1.5771176240217466,0.07645110472398897,0.35,0,0,0.0
2.2525832899991656,20,729.5,100.5,4.3,-38.4,-0.76,1.0,-0.83,0.0,0.99,-0.1,-91.7,244.0,-286.0,-2.05,-6.27,-0.14,0.0,0.9950376877284598,1.505489953470298,0.07487283950694401,0.35,0,0,0.0
2.2640126879996387,21,729.51,100.4,4.2,-38.5,-0.92,0.92,-0.71,0.01,0.97,-0.1,-89.5,214.2,-294.0,-2.1,-5.5,0.17,0.0,0.9751922887307918,1.4821943192442752,0.053926891699090485,0.35,0,0,0.0
2.2725605189989437,22,729.52,100.3,4.2,-38.6,-0.84,0.83,-0.65,0.02,0.94,-0.09,-87.6,181.2,-326.0,-2.16,-4.5,0.05,0.0,0.9445104552094699,1.3479614237803692,0.02278015701421321,0.35,0,0,0.0
2.284127675999116,23,729.53,100.2,4.1,-38.7,-0.51,0.71,-0.68,0.04,0.91,-0.1,-86.0,146.5,-349.0,-2.2,-3.54,-0.03,0.0,0.916351460958076,1.1075197515168749,0.005271260492437091,0.35,0,0,0.0
2.292539158999716,24,729.54,100.1,4.0,-38.8,-0.07,0.65,-0.76,0.05,0.94,-0.1,-84.8,111.3,-350.0,-2.23,-2.58,0.01,0.0,0.9466255859631092,1.002496882788171,0.024502807222344214,0.35,0,0,0.0
2.304129654999997,25,729.55,100.0,3.9,-38.8,0.03,0.62,-0.77,0.06,0.98,-0.11,-83.9,76.5,-350.0,-2.24,-1.62,0.07,0.0,0.9879777325425912,0.9890399385262457,0.06453785472578977,0.35,0,0,0.0
2.3123661289992015,26,729.56,100.0,3.9,-38.9,-0.21,0.7,-0.73,0.08,1.01,-0.12,-83.4,41.3,-353.0,-2.25,-0.67,0.07,0.0,1.0202450685987166,1.0329569206893383,0.09486908696627672,0.35,0,0,0.0
2.323982536998301,27,729.57,99.9,3.8,-39.0,-0.56,0.85,-0.67,0.09,1.0,-0.15,-83.2,10.4,-303.0,-2.26,0.04,0.0,0.0,1.0151847122568385,1.2186057606953942,0.08801255601191071,0.35,0,0,0.0
2.332548965998285,28,729.58,99.8,3.8,-39.1,-0.84,1.02,-0.6,0.09,0.99,-0.13,-83.2,-5.3,-148.0,-2.25,0.16,-0.17,0.0,1.002546757014355,1.4512063946937388,0.07386710875403857,0.35,0,0,0.0
2.344125126999643,29,729.59,99.7,3.8,-39.2,-1.07,1.16,-0.48,0.07,0.97,-0.12,-83.3,-5.4,-46.0,-2.25,0.13,-0.1,0.0,0.9798979538707079,1.6495150802584375,0.05019393949818374,0.35,0,0,0.0
2.352568552998491,30,729.6,99.6,3.8,-39.4,-0.98,1.25,-0.41,0.06,0.93,-0.11,-83.3,-7.3,-40.0,-2.25,0.25,0.05,0.0,0.9384028985462481,1.6404267737390779,0.008524906490249506,0.35,0,0,0.0
2.3640763459989103,31,729.61,99.5,3.7,-39.5,-0.65,1.32,-0.36,0.04,0.94,-0.12,-83.4,-10.6,-30.0,-2.25,0.32,0.16,0.0,0.94847245611035,1.514760707174569,0.01822257477326439,0.35,0,0,0.0
2.372473692999847,32,729.62,99.4,3.7,-39.7,-0.37,1.43,-0.26,0.02,0.98,-0.12,-83.6,-14.7,-43.0,-2.24,0.46,-0.09,0.0,0.9875221516502807,1.4997999866648886,0.056126824906931105,0.35,0,0,0.0
2.3838395079983457,33,729.63,99.3,3.7,-39.8,-0.2,1.48,-0.11,0.0,1.0,-0.14,-83.7,-19.9,-62.0,-2.24,0.65,0.06,0.0,1.009752444909147,1.4974979131871937,0.07678997580248159,0.35,0,0,0.0
2.392475373999332,34,729.64,99.3,3.7,-40.0,-0.2,1.42,0.0,0.0,1.02,-0.13,-84.0,-30.1,-91.0,-2.23,0.93,0.01,0.0,1.0282509421342632,1.434015341619468,0.0933827035670457,0.35,0,0,0.0
2.4039517429991974,35,729.65,99.2,3.7,-40.1,-0.52,1.29,0.08,0.01,1.03,-0.15,-84.4,-44.0,-134.0,-2.22,1.39,0.17,0.0,1.0409130607308181,1.3931618714277247,0.1039239257203286,0.35,0,0,0.0
2.4124123049987247,36,729.66,99.1,3.7,-40.2,-0.98,1.22,0.09,0.01,1.03,-0.16,-85.0,-61.1,-155.0,-2.2,1.86,0.02,0.0,1.042401074443038,1.5674501586972391,0.1033037006438976,0.35,0,0,0.0
2.4244809049996547,37,729.67,99.0,3.7,-40.3,-1.45,1.24,0.1,0.02,1.02,-0.16,-85.7,-75.7,-147.0,-2.18,2.22,0.27,0.0,1.032666451474047,1.9105234884711573,0.09169769612140832,0.35,0,0,0.0
2.4325725309990958,38,729.68,98.8,3.7,-40.5,-1.75,1.3,0.12,0.03,1.0,-0.16,-86.5,-90.6,-146.0,-2.15,2.63,0.29,0.0,1.01316336293808,2.183323155192561,0.07075071543373268,0.35,0,0,0.0
2.444104302998312,39,729.69,98.7,3.7,-40.6,-1.68,1.36,0.13,0.04,0.96,-0.15,-87.6,-107.4,-159.0,-2.12,3.11,-0.15,0.0,0.9724710792614863,2.165386801474508,0.029457263121996147,0.35,0,0,0.0
2.452534130999993,40,729.7,98.5,3.7,-40.7,-1.41,1.39,0.13,0.04,0.94,-0.13,-88.7,-121.9,-138.0,-2.09,3.46,0.02,0.0,0.9497894503520241,1.9842126902124175,0.006640121528283194,0.35,0,0,0.0
2.4641725069996028,41,729.71,98.4,3.8,-40.9,-1.13,1.38,0.13,0.04,0.94,-0.12,-90.0,-134.6,-130.0,-2.05,3.8,0.04,0.0,0.94847245611035,1.7883511959344003,0.005216664740876897,0.35,0,0,0.0
2.4723659439987387,42,729.72,98.2,3.8,-41.0,-0.8,1.33,0.14,0.03,0.95,-0.11,-91.5,-145.7,-106.0,-2.02,4.05,0.01,0.0,0.9568176419778223,1.5583645273170204,0.01329061359618211,0.35,0,0,0.0
2.4840561659984814,43,729.73,98.1,3.8,-41.1,-0.5,1.26,0.08,0.03,0.97,-0.11,-93.0,-152.8,-79.0,-1.97,4.23,-0.07,0.0,0.9766780431646859,1.3579396157414365,0.03248799448738482,0.35,0,0,0.0
2.4925372439993225,44,729.74,98.1,3.8,-41.2,-0.39,1.17,0.04,0.03,1.0,-0.13,-94.5,-158.1,-56.0,-1.93,4.34,0.02,0.0,1.008860743611327,1.2339367893048654,0.06337728103534546,0.35,0,0,0.0
2.50411804399846,45,729.75,98.0,3.8,-41.4,-0.54,1.17,0.02,0.02,1.01,-0.15,-96.1,-161.3,-31.0,-1.89,4.39,-0.09,0.0,1.0212737145349429,1.2887590930814028,0.07427444691978202,0.35,0,0,0.0
2.51246732799882,46,729.76,98.0,3.8,-41.5,-0.8,0.98,0.04,0.0,1.01,-0.12,-97.8,-163.1,-24.0,-1.84,4.45,0.03,0.0,1.0171037311896953,1.2657013865837392,0.06870237430304382,0.35,0,0,0.0
2.5239940239989664,47,729.77,97.9,3.8,-41.6,-0.91,0.85,0.03,0.0,0.98,-0.14,-99.4,-161.6,16.0,-1.8,4.34,-0.04,0.0,0.9899494936611665,1.2455922286205867,0.04071717403902464,0.35,0,0,0.0
2.532487049998963,48,729.78,97.8,3.7,-41.6,-0.84,0.69,0.0,-0.02,0.99,-0.13,-101.0,-156.3,49.0,-1.75,4.15,-0.09,0.0,0.9986991538997116,1.0870602559196063,0.04847749759201847,0.35,0,0,0.0
2.543963234998955,49,729.79,97.7,3.7,-41.7,-0.96,0.52,0.02,-0.03,0.99,-0.14,-102.5,-150.4,50.0,-1.71,4.02,-0.05,0.0,1.000299955013495,1.0919706955774957,0.04907673273168578,0.35,0,0,0.0
2.5525398109984963,50,729.8,97.6,3.6,-41.7,-1.05,0.39,0.07,-0.03,0.98,-0.14,-104.0,-145.9,49.0,-1.67,3.91,-0.16,0.0,0.9904039579888602,1.1222744762311936,0.03839712099290993,0.35,0,0,0.0
2.564057399999001,51,729.81,97.5,3.6,-41.8,-1.11,0.18,0.11,-0.02,0.96,-0.14,-105.4,-142.2,38.0,-1.63,3.82,0.0,0.0,0.9703607576566562,1.129867248839438,0.017986842247491808,0.35,0,0,0.0
2.57235437899908,52,729.82,97.4,3.5,-41.8,-0.87,0.0,0.12,-0.01,0.94,-0.15,-106.8,-137.2,47.0,-1.6,3.66,-0.07,0.0,0.9519453765841819,0.8782368700982668,0.00041996804848287717,0.35,0,0,0.0
2.584094551999442,53,729.83,97.3,3.5,-41.8,-0.66,-0.08,0.09,0.0,0.95,-0.18,-108.2,-133.2,35.0,-1.56,3.6,-0.09,0.0,0.966902270139025,0.6708949247087803,0.014246186996233035,0.35,0,0,0.0
2.592539671999475,54,729.84,97.3,3.5,-41.7,-0.56,-0.05,0.03,0.02,0.95,-0.21,-109.5,-130.2,31.0,-1.52,3.5,0.0,0.0,0.973139250056229,0.5630275304103699,0.02007350357516835,0.35,0,0,0.0
2.6040552139984356,55,729.85,97.3,3.5,-41.7,-0.52,0.1,-0.03,0.04,0.97,-0.22,-110.8,-127.8,19.0,-1.49,3.47,0.08,0.0,0.9954396013822235,0.5303772242470448,0.041526377803139614,0.35,0,0,0.0
2.6125067109987867,56,729.86,97.3,3.5,-41.8,-0.55,0.29,-0.03,0.06,0.97,-0.24,-112.0,-126.5,20.0,-1.46,3.41,-0.02,0.0,1.001049449328054,0.6224949798994367,0.046193501233990575,0.35,0,0,0.0
2.6240076949998183,57,729.87,97.3,3.5,-41.8,-0.48,0.48,0.0,0.06,0.96,-0.23,-113.3,-125.6,4.0,-1.42,3.42,-0.03,0.0,0.9889893831583836,0.6788225099390857,0.03345076636303379,0.35,0,0,0.0
2.6325420679986564,58,729.88,97.4,3.5,-41.8,-0.39,0.61,0.05,0.07,0.96,-0.22,-114.5,-125.4,14.0,-1.39,3.37,-0.08,0.0,0.9873702446397704,0.725741000633146,0.031194995287532223,0.35,0,0,0.0
2.644573922998461,59,729.89,97.4,3.5,-41.9,-0.38,0.72,0.13,0.06,0.94,-0.22,-115.8,-124.7,0.0,-1.35,3.41,0.0,0.0,0.9672641831474997,0.8244392033376384,0.01086715511935632,0.35,0,0,0.0
2.6525300499997684,60,729.9,97.4,3.5,-42.0,-0.34,0.78,0.22,0.03,0.93,-0.2,-117.0,-123.6,13.0,-1.32,3.34,-0.02,0.0,0.9517352573063583,0.8788629017087933,0.004568535307349353,0.35,0,0,0.0
2.664057714999217,61,729.91,97.4,3.6,-42.1,-0.18,0.75,0.3,0.01,0.93,-0.19,-118.3,-121.4,19.0,-1.29,3.28,-0.15,0.0,0.9492628719169417,0.8275868534480233,0.006900102282830667,0.35,0,0,0.0
2.672522035998554,62,729.92,97.4,3.6,-42.1,0.03,0.66,0.36,0.0,0.93,-0.17,-119.4,-119.4,24.0,-1.25,3.2,-0.25,0.0,0.9454099639838794,0.7523961722390672,0.010537950011575092,0.35,0,0,0.0
2.6841443799985427,63,729.93,97.5,3.6,-42.2,0.08,0.52,0.39,0.0,0.94,-0.17,-120.6,-116.7,27.0,-1.22,3.13,-0.07,0.0,0.95524865872714,0.6549045732013177,0.0006852701629481706,0.35,0,0,0.0
2.6925595349985088,64,729.94,97.5,3.6,-42.2,-0.02,0.38,0.42,0.0,0.92,-0.18,-121.8,-113.4,35.0,-1.19,3.01,0.05,0.0,0.9374433316206372,0.5667450926121902,0.018120785324062028,0.35,0,0,0.0
2.7040021319990046,65,729.95,97.5,3.6,-42.2,0.07,0.24,0.4,0.01,0.89,-0.19,-122.9,-109.2,34.0,-1.16,2.92,0.02,0.0,0.9101098834756164,0.47169905660283024,0.04454514879970117,0.35,0,0,0.0
2.712417392998759,66,729.96,97.6,3.6,-42.2,0.46,0.06,0.4,0.01,0.87,-0.21,-124.0,-105.7,36.0,-1.13,2.82,-0.17,0.0,0.8950418984606252,0.6125357132445423,0.058420871138398556,0.35,0,0,0.0
2.724142484999902,67,729.97,97.7,3.7,-42.2,0.89,-0.09,0.42,0.01,0.87,-0.22,-125.0,-100.5,53.0,-1.11,2.65,0.13,0.0,0.897440805847383,0.9882307422864358,0.05490152447660801,0.35,0,0,0.0
2.7325647409998055,68,729.98,97.8,3.7,-42.2,1.32,-0.27,0.44,0.01,0.86,-0.24,-125.9,-95.9,41.0,-1.08,2.56,0.01,0.0,0.8929165694509201,1.4173566946961518,0.05823724565560939,0.35,0,0,0.0
2.7441138419999334,69,729.99,97.9,3.8,-42.2,1.66,-0.5,0.42,0.0,0.88,-0.24,-126.9,-94.0,23.0,-1.06,2.53,-0.05,0.0,0.9121403400793103,1.7838161340227865,0.03823320552667486,0.35,0,0,0.0
2.7525485979986115,70,730.0,98.1,3.8,-42.1,1.53,-0.77,0.48,-0.01,0.9,-0.24,-127.4,-93.6,16.0,-1.03,2.55,-0.02,0.0,0.9315041599477697,1.7788198334851115,0.018491997945051186,0.35,0,0,0.0
2.7639622719998442,71,730.01,98.2,3.8,-42.0,1.15,-1.04,0.57,-0.03,0.89,-0.26,-128.8,-95.6,-16.0,-1.0,2.65,0.01,0.0,0.9276852914647294,1.6519685227025362,0.021864649099529565,0.35,0,0,0.0
2.7724939719992108,72,730.02,98.4,3.9,-41.9,0.92,-1.3,0.67,-0.05,0.88,-0.25,-129.8,-101.6,-51.0,-0.98,2.84,0.03,0.0,0.9161877536837086,1.7278020719978318,0.032694943142939414,0.35,0,0,0.0
2.784013522999885,73,730.03,98.5,3.9,-41.7,0.99,-1.6,0.75,-0.04,0.88,-0.21,-130.8,-110.2,-82.0,-0.95,3.12,0.17,0.0,0.9055937278934744,2.025487595617411,0.04242318955451019,0.35,0,0,0.0
2.792497620999711,74,730.04,98.6,4.0,-41.5,1.29,-1.87,0.73,-0.03,0.89,-0.21,-132.0,-123.0,-125.0,-0.91,3.53,0.11,0.0,0.9149316914393119,2.3861894308709024,0.03242352148849925,0.35,0,0,0.0
2.8038842959995236,75,730.05,98.7,4.0,-41.3,1.53,-1.96,0.52,-0.01,0.93,-0.22,-133.4,-138.7,-156.0,-0.87,4.01,0.18,0.0,0.9557196241576292,2.5402558926218437,0.008197123005221796,0.35,0,0,0.0
2.8124898919995758,76,730.06,98.9,4.0,-41.1,1.28,-1.87,0.3,0.03,1.02,-0.22,-134.9,-155.4,-151.0,-0.83,4.39,0.15,0.0,1.0438869670610893,2.2858915109864686,0.09443717659050821,0.35,0,0,0.0
2.8239875699982804,77,730.07,99.0,4.0,-40.9,0.3,-1.65,0.33,0.12,1.09,-0.2,-136.5,-162.6,-65.0,-0.79,4.4,-0.19,0.0,1.1146748404803977,1.7092103439892936,0.16192054900962027,0.35,0,0,0.0
2.832543126998644,78,730.08,99.0,4.1,-40.8,-0.9,-1.26,0.48,0.25,1.05,-0.13,-138.1,-156.5,57.0,-0.74,4.05,-0.09,0.0,1.0871522432483869,1.6211107303327557,0.1317099927420573,0.35,0,0,0.0
2.844582987998365,79,730.09,98.9,4.1,-40.7,-0.3,-0.6,0.17,0.38,0.93,-0.08,-139.5,-137.5,159.0,-0.71,3.46,0.0,0.0,1.0078194282707593,0.6920260110718383,0.05132963420914116,0.35,0,0,0.0
2.852343185999416,80,730.1,99.0,4.0,-40.7,2.33,0.18,-0.87,0.49,0.9,-0.14,-140.7,-112.2,241.0,-0.68,2.67,-0.18,0.0,1.0342630226397926,2.493631889433563,0.07621776400661096,0.35,0,0,0.0
2.864072687998487,81,730.11,99.4,3.9,-40.8,4.19,1.4,-1.94,0.53,1.05,-0.15,-141.6,-81.2,286.0,-0.66,1.83,0.04,0.0,1.1857065404222076,4.8249041441255605,0.22310805615324536,0.35,0,0,0.0
2.872548346998883,82,730.12,99.8,3.7,-41.0,2.94,2.81,-2.47,0.45,1.16,-0.28,-142.2,-50.4,294.0,-0.64,1.01,-0.21,0.0,1.27534309109353,4.7582139506331576,0.3064897146880764,0.35,0,0,0.0
2.884145477999482,83,730.13,99.9,3.5,-41.4,1.38,4.16,-2.38,0.27,1.1,-0.27,-142.5,-23.3,261.0,-0.64,0.35,-0.08,0.0,1.1643882514007087,4.987424184887425,0.19162417749535,0.35,0,0,0.0
2.892379956998411,84,730.14,100.0,3.4,-41.9,1.42,4.62,-1.96,0.08,1.03,-0.13,-142.6,-2.9,203.0,-0.64,-0.09,-0.05,0.0,1.0412492496996095,5.215592008583494,0.06711547227836578,0.35,0,0,0.0
2.9041415579995373,85,730.15,100.2,3.3,-42.4,2.08,4.11,-1.25,-0.08,1.03,-0.07,-142.6,1.7,45.0,-0.64,0.06,-0.02,0.0,1.0354709073653396,4.772944583797302,0.06011038734521401,0.35,0,0,0.0
2.9124710299984145,86,730.16,100.4,3.3,-42.7,3.08,2.95,-0.52,-0.2,1.02,-0.01,-142.7,-6.2,-29.0,-0.64,0.24,-0.07,0.0,1.0394710193170371,4.296428749554681,0.06282828931097328,0.35,0,0,0.0
2.923923932999969,87,730.17,100.7,3.3,-43.0,3.91,1.64,-0.03,-0.29,1.08,0.03,-142.8,-13.1,-63.0,-0.63,0.46,0.0,0.0,1.1186599125739691,4.240117922888467,0.1391768389165472,0.35,0,0,0.0
2.932491616998959,88,730.18,101.1,3.4,-43.0,3.41,0.21,0.24,-0.29,1.22,0.07,-142.9,-20.2,-71.0,-0.63,0.65,0.03,0.0,1.2559458587057006,3.4248795599261594,0.2709335293473132,0.35,0,0,0.0
2.9445154529985302,89,730.19,101.4,3.4,-43.0,1.55,-1.0,0.3,-0.24,1.31,0.05,-143.2,-26.8,-54.0,-0.62,0.76,-0.2,0.0,1.332741535332339,1.8688231591030757,0.3407746218544726,0.35,0,0,0.0
2.9524682859992026,90,730.2,101.4,3.4,-42.8,-1.27,-1.79,0.3,-0.14,1.35,0.02,-143.5,-27.7,-22.0,-0.61,0.77,0.13,0.0,1.357387196049823,2.2151749366585025,0.3581118769205174,0.35,0,1,0.0
2.964521223999327,91,730.21,101.1,3.4,-42.6,-3.81,-2.21,0.25,-0.02,1.25,0.01,-143.7,-28.2,-9.0,-0.61,0.78,-0.05,0.0,1.2501999840025595,4.411655018244287,0.24590617157578887,0.35,0,1,0.0
2.9724818659997254,92,730.22,100.7,3.4,-42.4,-4.48,-2.55,0.21,0.07,1.08,0.04,-144.0,-30.0,-14.0,-0.6,0.82,-0.03,0.0,1.0830050784737808,5.159166599364669,0.07713704072607008,0.35,0,1,0.0
2.9840171359992382,93,730.23,100.3,3.3,-42.1,-3.61,-2.84,0.11,0.16,0.95,0.03,-144.3,-29.0,1.0,-0.59,0.79,0.08,0.0,0.9638464608017192,4.594540238152235,0.04118114540707163,0.35,0,1,0.0
2.9923913169986918,94,730.24,100.0,3.3,-41.8,-2.18,-2.86,0.01,0.23,0.89,-0.03,-144.6,-31.0,-15.0,-0.58,0.86,0.02,0.0,0.9197282207261013,3.5961229122486897,0.08359339777303587,0.35,0,1,0.0
3.0040587939984107,95,730.25,99.9,3.2,-41.6,-0.96,-2.51,-0.08,0.27,0.9,-0.09,-145.0,-35.2,-39.0,-0.57,1.01,0.05,0.0,0.9439279633531364,2.688512599933279,0.05820578204308069,0.35,0,1,0.0
3.012470191999455,96,730.26,99.8,3.2,-41.4,-0.43,-1.91,-0.11,0.28,0.95,-0.13,-145.4,-42.4,-68.0,-0.56,1.25,0.06,0.0,0.9988993943335835,1.9608926538696603,0.0031696640413809707,0.35,0,1,0.0
3.0239297059997625,97,730.27,99.8,3.1,-41.2,-0.63,-1.27,-0.04,0.29,0.98,-0.16,-145.9,-50.8,-79.0,-0.54,1.5,0.15,0.0,1.034456378974,1.4182383438618489,0.03173957418705475,0.35,0,1,0.0
3.0325112249993253,98,730.28,99.7,3.1,-41.1,-0.88,-0.64,0.08,0.26,0.98,-0.15,-146.4,-61.7,-99.0,-0.53,1.8,0.01,0.0,1.0249390225764652,1.0910545357588683,0.02177777343372944,0.35,0,1,0.0
3.0439335880000726,99,730.29,99.6,3.1,-41.1,-0.89,-0.18,0.19,0.2,0.99,-0.12,-147.1,-72.7,-107.0,-0.51,2.11,0.11,0.0,1.0171037311896953,0.9276852914647294,0.01366363240602042,0.35,0,1,0.0
3.052522144998875,100,730.3,99.6,3.2,-41.1,-0.7,0.17,0.4,0.15,0.99,-0.11,-147.9,-83.5,-104.0,-0.48,2.39,-0.05,0.0,1.007323185477233,0.8239538822045807,0.0038054249596870537,0.35,0,1,0.0
3.0641554389985686,101,730.31,99.5,3.3,-41.1,-0.17,0.48,0.7,0.11,1.0,-0.14,-148.8,-91.9,-86.0,-0.46,2.6,0.01,0.0,1.0157263410978372,0.8656211642514292,0.011964408968685447,0.35,0,1,0.0
3.0724088799997844,102,730.32,99.5,3.4,-41.1,0.46,0.72,1.07,0.07,1.01,-0.13,-149.8,-100.6,-87.0,-0.43,2.84,-0.12,0.0,1.020735029280371,1.3692698784388708,0.01663363520819483,0.35,0,1,0.0
3.0841110219989787,103,730.33,99.5,3.5,-41.2,0.89,0.72,1.39,0.06,1.0,-0.1,-150.9,-110.7,-86.0,-0.4,3.08,0.15,0.0,1.0067770358922576,1.8007220773900672,0.002622128983679861,0.35,0,1,0.0
3.092509866999535,104,730.34,99.6,3.7,-41.2,0.96,0.58,1.56,0.06,0.99,-0.1,-152.0,-115.6,-60.0,-0.37,3.18,0.24,0.0,0.9968450230602548,1.9213536894595957,0.0071636861713564315,0.35,0,1,0.0
3.1040187209982832,105,730.35,99.6,3.8,-41.3,0.55,0.41,1.61,0.07,0.97,-0.12,-153.2,-119.6,-42.0,-0.34,3.28,-0.11,0.0,0.9798979538707079,1.7500571419242288,0.023628540253685215,0.35,0,1,0.0
3.1124698639996495,106,730.36,99.7,4.0,-41.3,0.17,0.27,1.56,0.08,0.93,-0.13,-154.4,-120.7,-14.0,-0.3,3.28,0.09,0.0,0.942443632266673,1.5922939427128397,0.059861204620565656,0.35,0,1,0.0
3.1239335969985405,107,730.37,99.6,4.2,-41.3,-0.06,0.14,1.4,0.09,0.9,-0.13,-155.6,-121.2,-6.0,-0.27,3.28,-0.19,0.0,0.9137833441248533,1.4082613393827155,0.08675106290713774,0.35,0,1,0.0
3.1325676679989556,108,730.38,99.6,4.3,-41.3,-0.16,-0.04,1.17,0.11,0.89,-0.12,-156.8,-118.8,19.0,-0.24,3.18,0.03,0.0,0.9047651629014017,1.1815667564721004,0.09385385924797751,0.35,0,1,0.0
3.1442000239985646,109,730.39,99.6,4.5,-41.2,-0.18,-0.17,0.9,0.11,0.89,-0.13,-158.0,-115.5,20.0,-0.21,3.13,0.0,0.0,0.9061456836513652,0.9334345183246654,0.09062387172805386,0.35,0,1,0.0
3.152562555998884,110,730.4,99.6,4.6,-41.2,-0.24,-0.28,0.68,0.11,0.91,-0.14,-159.1,-112.1,39.0,-0.18,2.97,-0.06,0.0,0.9272540105062905,0.7735631842325487,0.06812523397566594,0.35,0,1,0.0
3.1639847539991024,111,730.41,99.5,4.6,-41.1,-0.35,-0.39,0.57,0.1,0.95,-0.15,-160.2,-104.9,65.0,-0.15,2.75,0.12,0.0,0.9669539802906858,0.7742738533619742,0.02785675890744521,0.35,0,1,0.0
3.1725869169986254,112,730.42,99.5,4.7,-41.1,-0.42,-0.47,0.56,0.1,0.97,-0.15,-161.2,-96.5,91.0,-0.12,2.47,0.05,0.0,0.986610358753647,0.8431488599292536,0.00803637283559433,0.35,0,1,0.0
3.1840525409988913,113,730.43,99.5,4.7,-41.0,-0.54,-0.48,0.58,0.1,0.98,-0.16,-162.1,-84.8,104.0,-0.1,2.18,0.0,0.0,0.9979979959899719,0.9264987857520376,0.0032842391127159143,0.35,0,1,0.0
3.1925951179982803,114,730.44,99.4,4.8,-41.0,-0.84,-0.45,0.7,0.09,0.99,-0.17,-162.9,-73.0,115.0,-0.08,1.83,-0.05,0.0,1.0085137579626764,1.1824127874815968,0.013524001063712099,0.35,0,1,0.0
3.2043409579982836,115,730.45,99.3,4.9,-40.9,-1.02,-0.37,0.78,0.08,0.96,-0.17,-163.5,-60.9,115.0,-0.06,1.53,-0.08,0.0,0.9782126558167197,1.3363008643265932,0.016441559060599742,0.35,0,1,0.0
3.2124717199985753,116,730.46,99.2,4.9,-40.9,-0.98,-0.32,0.81,0.08,0.94,-0.16,-164.0,-48.9,124.0,-0.05,1.16,-0.02,0.0,0.9568698971124548,1.3110682667199294,0.03702863140956725,0.35,0,1,0.0
3.224381292999169,117,730.47,99.1,5.0,-40.8,-0.91,-0.27,0.88,0.08,0.93,-0.17,-164.4,-36.7,114.0,-0.04,0.86,0.05,0.0,0.9487887014504337,1.2943724348115577,0.04420763053015664,0.35,0,1,0.0
3.2325913829990895,118,730.48,99.1,5.1,-40.8,-0.69,-0.3,0.94,0.08,0.91,-0.17,-164.7,-26.0,103.0,-0.04,0.61,-0.05,0.0,0.9291931984253867,1.2040348832155985,0.06252707088409959,0.35,0,1,0.0
3.2441008209989377,119,730.49,99.0,5.2,-40.7,-0.33,-0.4,0.96,0.09,0.92,-0.17,-164.9,-18.6,84.0,-0.03,0.41,-0.01,0.0,0.9398936110007345,1.0911003620199198,0.05079012514257675,0.35,0,1,0.0
3.2526163419988734,120,730.5,99.0,5.3,-40.7,-0.06,-0.54,0.94,0.1,0.93,-0.18,-165.1,-11.7,71.0,-0.03,0.24,0.0,0.0,0.9525229656024048,1.0857255638511971,0.037397555130088356,0.35,0,1,0.0
3.264212776999557,121,730.51,99.1,5.4,-40.6,-0.07,-0.7,0.87,0.11,0.97,-0.19,-165.1,-5.4,62.0,-0.03,0.09,-0.01,0.0,0.9945350672550466,1.1188386836358493,0.004522255592102398,0.35,0,1,0.0
3.272683875999064,122,730.52,99.1,5.5,-40.5,-0.46,-0.75,0.73,0.13,1.0,-0.22,-165.2,-1.2,40.0,-0.03,0.0,0.05,0.0,1.0321337122679406,1.143241006962224,0.04127848259289646,0.35,0,1,0.0
3.283992064998529,123,730.53,99.1,5.5,-40.4,-1.16,-0.7,0.57,0.15,1.01,-0.25,-165.2,0.0,14.0,-0.03,0.0,0.04,0.0,1.0512373661547614,1.469863939281456,0.05917449375012285,0.35,0,1,0.0
3.292543857000055,124,730.54,98.9,5.6,-40.3,-2.04,-0.52,0.42,0.18,1.01,-0.26,-165.2,0.0,5.0,-0.03,0.0,0.05,0.0,1.058347768930421,2.146718425877041,0.06495919859526689,0.35,0,1,0.0
3.3043361639993236,125,730.55,98.7,5.6,-40.3,-2.63,-0.24,0.35,0.19,0.98,-0.23,-165.2,-0.4,0.0,-0.03,0.0,-0.03,0.0,1.0244022647378324,2.6640195194480087,0.03039342051462468,0.35,0,1,0.0
3.312410546999672,126,730.56,98.4,5.7,-40.3,-2.69,-0.07,0.3,0.19,0.93,-0.17,-165.2,-0.1,2.0,-0.03,0.0,-0.08,0.0,0.9643132271207319,2.7075819470516493,0.029101704760426284,0.35,0,1,0.0
3.3241311169986147,127,730.57,98.2,5.7,-40.3,-2.32,0.0,0.25,0.19,0.88,-0.16,-165.2,-0.1,0.0,-0.03,0.0,0.04,0.0,0.9143850392476902,2.3334309503390065,0.07744929478079854,0.35,0,1,0.0
3.332527257000038,128,730.58,98.0,5.8,-40.3,-1.94,0.1,0.18,0.18,0.84,-0.16,-165.2,-0.5,-6.0,-0.03,0.03,-0.06,0.0,0.873842090998139,1.9508972294818607,0.11563239816974269,0.35,0,1,0.0
3.343957055998544,129,730.59,97.8,5.8,-40.3,-1.42,0.14,0.12,0.16,0.83,-0.14,-165.2,-2.7,-21.0,-0.03,0.12,0.0,0.0,0.856796358535679,1.4319217855734998,0.13002456801955864,0.35,0,1,0.0
3.3525312379988463,130,730.6,97.7,5.9,-40.3,-0.78,0.09,0.1,0.14,0.84,-0.15,-165.3,-7.9,-49.0,-0.02,0.3,0.02,0.0,0.8646964785403025,0.7915175298121957,0.11968195905463641,0.35,0,1,0.0
3.364197184999284,131,730.61,97.7,5.9,-40.3,-0.19,0.03,0.15,0.13,0.88,-0.16,-165.4,-14.5,-59.0,-0.02,0.47,-0.02,0.0,0.9038252043398657,0.24392621835300934,0.07894216858997183,0.35,0,1,0.0
3.3725403959997493,132,730.62,97.7,5.9,-40.3,0.13,-0.11,0.2,0.11,0.93,-0.16,-165.6,-21.3,-61.0,-0.01,0.64,0.18,0.0,0.9500526301210896,0.26267851073127396,0.0320604479525729,0.35,0,1,0.0
3.38416374299959,133,730.63,97.8,6.0,-40.3,0.21,-0.24,0.19,0.1,0.96,-0.17,-165.8,-30.6,-97.0,0.0,0.98,0.25,0.0,0.9800510190801294,0.3712142238654117,0.002020817813662479,0.35,0,1,0.0
3.392524743998365,134,730.64,97.8,6.0,-40.2,0.0,-0.45,0.11,0.11,0.98,-0.18,-166.2,-40.2,-84.0,0.0,1.18,0.0,0.0,1.0024470060806208,0.4632493928760188,0.019967665803092283,0.35,0,1,0.0
3.4038608129994827,135,730.65,97.8,6.0,-40.2,-0.42,-0.6,0.05,0.12,0.99,-0.19,-166.7,-45.5,-59.0,0.01,1.29,-0.2,0.0,1.0151847122568385,0.7340980860893181,0.032051264539723845,0.35,0,1,0.0
3.411925138998413,136,730.66,97.8,6.0,-40.1,-0.78,-0.69,0.03,0.14,0.98,-0.19,-167.2,-50.0,-47.0,0.02,1.39,-0.17,0.0,1.0080178569846865,1.0418253212511202,0.024386721082220397,0.35,0,1,0.0
3.423717757999839,137,730.67,97.7,6.0,-40.0,-1.04,-0.65,0.01,0.16,0.94,-0.21,-167.7,-54.4,-45.0,0.04,1.52,0.01,0.0,0.9763708311906906,1.2264583156389786,0.0071150986175400055,0.35,0,1,0.0
3.4318928299999243,138,730.68,97.6,6.0,-40.0,-0.98,-0.58,0.0,0.18,0.9,-0.21,-168.3,-59.4,-58.0,0.06,1.71,0.01,0.0,0.941541289588513,1.1387712676389408,0.041105747415323246,0.35,0,1,0.0
3.4437386069985223,139,730.69,97.6,6.0,-39.9,-0.66,-0.45,-0.04,0.2,0.89,-0.21,-168.9,-67.5,-70.0,0.07,1.91,0.02,0.0,0.936055553906925,0.7998124780221925,0.045659653434973024,0.35,0,1,0.0
3.451905217998501,140,730.7,97.5,6.0,-39.9,-0.25,-0.33,-0.09,0.21,0.9,-0.21,-169.6,-70.3,-20.0,0.09,1.88,-0.02,0.0,0.947734139935879,0.4236744032862972,0.03330144605789864,0.35,0,1,0.0
3.4639018069992744,141,730.71,97.5,6.0,-39.9,0.02,-0.14,-0.14,0.22,0.91,-0.23,-170.3,-67.8,11.0,0.11,1.82,-0.08,0.0,0.9640539403996023,0.198997487421324,0.016642012682291707,0.35,0,1,0.0
3.4717310899995937,142,730.72,97.5,5.9,-39.9,0.24,0.14,-0.21,0.22,0.94,-0.25,-171.0,-63.8,33.0,0.13,1.68,-0.05,0.0,0.9972462083156797,0.34828149534535996,0.016219250129109852,0.35,0,1,0.0
3.48376473099961,143,730.73,97.6,5.9,-39.9,0.2,0.49,-0.25,0.21,0.96,-0.26,-171.5,-60.0,36.0,0.14,1.55,-0.04,0.0,1.0165136496870075,0.5853204250664759,0.03477695767042899,0.35,0,1,0.0
3.4922115959998337,144,730.74,97.6,5.9,-40.0,0.32,0.95,-0.27,0.21,0.97,-0.29,-172.1,-52.6,73.0,0.16,1.29,-0.07,0.0,1.0339729203417274,1.0381714694596456,0.051191503758645895,0.35,0,1,0.0
3.5043098969999846,145,730.75,97.6,5.9,-40.1,0.71,1.32,-0.17,0.19,0.99,-0.25,-172.6,-41.9,96.0,0.17,1.01,0.09,0.0,1.03860483341837,1.5084429057806596,0.05470694849858271,0.35,0,1,0.0
3.5125164659984875,146,730.76,97.7,5.9,-40.2,1.13,1.49,-0.02,0.17,1.01,-0.23,-172.9,-31.6,103.0,0.18,0.72,-0.14,0.0,1.0497142468310126,1.870133685061044,0.0645000346730008,0.35,0,1,0.0
3.5242390899984457,147,730.77,97.8,6.0,-40.4,1.36,1.46,0.13,0.13,1.01,-0.2,-173.2,-21.1,96.0,0.18,0.46,-0.1,0.0,1.0377861051295685,1.9995249435803497,0.05152045511212555,0.35,0,1,0.0
3.5325392529994133,148,730.78,98.0,6.0,-40.5,1.45,1.17,0.16,0.1,0.98,-0.17,-173.3,-9.7,115.0,0.19,0.11,-0.1,0.0,0.9996499387285531,1.8700267377767623,0.013116602936887989,0.35,0,1,0.0
3.5442600899987156,149,730.79,98.2,6.0,-40.6,1.28,0.85,0.06,0.09,0.96,-0.17,-173.3,0.0,90.0,0.18,-0.08,0.02,0.0,0.979081201943945,1.5376930773076922,0.007303091170765774,0.35,0,1,0.0
3.552529238999341,150,730.8,98.3,6.0,-40.7,0.95,0.52,-0.03,0.08,0.94,-0.17,-173.3,3.4,39.0,0.18,-0.09,0.02,0.0,0.9585927185202274,1.0834205093129814,0.02723574310259369,0.35,0,1,0.0
3.5640023209998617,151,730.81,98.4,6.0,-40.7,0.97,0.29,-0.12,0.07,0.94,-0.16,-173.3,1.9,-8.0,0.18,0.0,0.1,0.0,0.9560857702110203,1.0195096860746344,0.029147837583564873,0.35,0,1,0.0
3.572501297998315,152,730.82,98.5,6.0,-40.7,1.46,0.1,-0.09,0.07,0.98,-0.14,-173.3,-0.5,-1.0,0.18,-0.01,0.13,0.0,0.9924212815130478,1.4661855271417734,0.0070439202440933935,0.35,0,1,0.0
3.5840561659988452,153,730.83,98.7,6.0,-40.7,2.14,-0.08,0.02,0.06,1.02,-0.12,-173.3,0.8,5.0,0.18,-0.03,0.08,0.0,1.0287856919689349,2.1415881957089695,0.042540164085980936,0.35,0,1,0.0
3.592527737999262,154,730.84,98.9,5.9,-40.7,2.72,-0.21,0.12,0.04,1.07,-0.12,-173.2,1.2,8.0,0.18,-0.05,0.13,0.0,1.0774506949276148,2.730732502461565,0.08938106370376764,0.35,0,1,0.0
3.604154478000055,155,730.85,99.2,5.9,-40.7,2.82,-0.37,0.19,0.03,1.14,-0.1,-173.2,4.2,27.0,0.18,-0.16,0.06,0.0,1.1447707194019245,2.8505087265258457,0.15356706641451578,0.35,0,1,0.0
3.61248432299908,156,730.86,99.4,5.9,-40.6,2.33,-0.47,0.27,0.06,1.15,-0.13,-173.1,7.7,31.0,0.18,-0.25,-0.01,0.0,1.1588787684654507,2.3922165453821274,0.16432161316848104,0.35,0,1,0.0
3.6238437029987836,157,730.87,99.6,5.9,-40.6,1.72,-0.39,0.33,0.09,1.13,-0.15,-173.0,13.4,69.0,0.18,-0.5,-0.06,0.0,1.143459662602927,1.7942686532400882,0.14592445715983815,0.35,0,1,0.0
3.6324798979985644,158,730.88,99.7,5.9,-40.6,1.12,-0.08,0.38,0.13,1.07,-0.16,-172.8,26.1,111.0,0.17,-0.87,-0.03,0.0,1.0896788517723925,1.1854113210189956,0.0903007734027177,0.35,0,1,0.0
3.6442804999987857,159,730.89,99.8,6.0,-40.6,0.71,0.36,0.37,0.17,1.01,-0.14,-172.4,41.3,153.0,0.16,-1.36,0.03,0.0,1.0337311062360464,0.8778382538941898,0.03366596730904403,0.35,0,1,0.0
3.652507874998264,160,730.9,99.8,6.1,-40.6,0.45,1.05,0.39,0.21,0.97,-0.14,-171.9,61.5,191.0,0.14,-1.93,0.0,0.0,1.002297361066066,1.2071039723238426,0.0021875776962823057,0.35,0,1,0.0
3.663875966998603,161,730.91,99.8,6.1,-40.8,0.23,2.02,0.52,0.24,0.93,-0.12,-171.1,83.6,203.0,0.11,-2.51,-0.19,0.0,0.9679359482941008,2.0984994639027192,0.031530358374169176,0.35,0,1,0.0
3.672621186999095,162,730.92,99.8,6.3,-41.0,0.36,2.8,0.72,0.24,0.91,-0.07,-170.1,105.0,215.0,0.09,-3.13,0.01,0.0,0.9437160589923221,2.913417237540823,0.05463524272242892,0.35,0,1,0.0
3.684557329999734,163,730.93,99.8,6.4,-41.3,0.73,3.36,0.94,0.23,0.91,-0.03,-168.9,128.5,226.0,0.05,-3.76,-0.25,0.0,0.9390953093270139,3.5645616841345302,0.05807087253998244,0.35,0,1,0.0
3.6925445109991415,164,730.94,99.9,6.6,-41.6,1.17,3.59,1.16,0.2,0.94,0.01,-167.5,150.4,222.0,0.01,-4.37,0.0,0.0,0.9610931276416453,3.950012658207566,0.03535159314084402,0.35,0,1,0.0
3.704181377999703,165,730.95,100.0,6.7,-42.0,1.63,3.51,1.28,0.14,0.98,0.03,-165.8,174.0,234.0,-0.03,-5.02,-0.12,0.0,0.9904039579888602,4.076199210048498,0.005919947537756598,0.35,0,1,0.0
3.7124658319989976,166,730.96,100.2,6.9,-42.3,2.03,3.12,1.25,0.07,1.05,0.04,-163.9,199.1,255.0,-0.09,-5.75,0.01,0.0,1.0530906893520615,3.9265506491066686,0.055631448148935836,0.35,0,1,0.0
3.7240063339995686,167,730.97,100.3,7.1,-42.5,2.33,2.49,1.08,0.01,1.11,0.03,-161.7,224.7,242.0,-0.15,-6.38,-0.06,0.0,1.1104503590885997,3.5770658366879413,0.1107312955277645,0.35,0,1,0.0
3.732570536998537,168,730.98,100.6,7.2,-42.7,2.34,1.71,0.73,-0.03,1.14,0.0,-159.3,246.9,225.0,-0.22,-6.97,-0.14,0.0,1.1403946685248927,2.9887455562493104,0.13786209286477646,0.35,0,1,0.0
3.7442042629991192,169,730.99,100.8,7.3,-42.9,1.78,0.9,0.28,-0.06,1.15,-0.05,-156.7,268.3,221.0,-0.29,-7.56,-0.14,0.0,1.1526491226735045,2.0141499447657814,0.14711421607312047,0.35,0,1,0.0
3.752486607998435,170,731.0,100.9,7.3,-42.9,0.96,0.2,-0.18,-0.06,1.12,-0.1,-154.6,285.7,293.0,-0.37,-8.2,-0.34,0.0,1.1260550608207398,0.9969954864491614,0.11810975113594857,0.35,0,1,0.0
3.7639000569997734,171,731.01,100.9,7.3,-42.9,0.3,-0.22,-0.54,-0.03,1.06,-0.13,-150.8,315.4,257.0,-0.46,-8.84,-0.07,0.0,1.068363234110946,0.6557438524302001,0.05920956593763149,0.35,0,1,0.0
3.7724458849988878,172,731.02,101.0,7.2,-42.9,0.17,-0.48,-0.76,0.0,0.99,-0.14,-147.5,339.3,261.0,-0.55,-9.56,-0.19,0.0,0.9998499887483121,0.9148223871331528,0.00911760583650234,0.35,0,1,0.0
3.7841998629992304,173,731.03,101.0,7.1,-42.8,0.58,-0.58,-0.89,0.05,0.93,-0.16,-143.9,367.3,260.0,-0.65,-10.26,-0.19,0.0,0.944986772394196,1.2103305333668155,0.06270120574680593,0.35,0,1,0.0
3.792460441998628,174,731.04,101.1,6.9,-42.8,1.37,-0.55,-1.02,0.09,0.9,-0.18,-140.1,387.9,220.0,-0.76,-10.81,-0.28,0.0,0.9222255689363639,1.7943801158060129,0.08375316102054531,0.35,0,1,0.0
3.804003080998882,175,731.05,101.3,6.8,-42.8,2.09,-0.44,-1.16,0.11,0.91,-0.19,-136.0,411.7,245.0,-0.87,-11.51,-0.01,0.0,0.9361089680160104,2.4304937769926505,0.06847236670208079,0.35,0,1,0.0
3.8125124709986267,176,731.06,101.5,6.7,-42.8,2.29,-0.38,-1.31,0.11,0.96,-0.2,-131.8,431.9,175.0,-0.99,-11.86,-0.12,0.0,0.9867623827447011,2.6654455537489414,0.017462572933922282,0.35,0,1,0.0
3.8241173139995226,177,731.07,101.7,6.5,-42.8,1.81,-0.34,-1.38,0.09,0.99,-0.2,-127.3,448.6,210.0,-1.11,-12.51,-0.02,0.0,1.0140019723846694,2.3013257048927254,0.00958147637192508,0.35,0,1,0.0
3.8325965119984176,178,731.08,101.9,6.4,-42.7,1.03,-0.33,-1.37,0.07,0.99,-0.2,-122.7,465.8,126.0,-1.24,-12.7,-0.16,0.0,1.0124228365658292,1.7454798767101272,0.007842293742023276,0.35,0,1,0.0
3.844149666998419,179,731.09,101.9,6.2,-42.7,0.36,-0.33,-1.34,0.05,0.96,-0.18,-118.1,466.2,46.0,-1.36,-12.69,-0.09,0.0,0.978008179924892,1.4262187770464951,0.02604091564093569,0.35,0,1,0.0
3.8524896949984395,180,731.1,101.9,6.0,-42.7,-0.07,-0.38,-1.31,0.01,0.95,-0.15,-113.4,468.1,19.0,-1.49,-12.71,0.15,0.0,0.9618211892030659,1.3657964709282273,0.0413833482355066,0.35,0,1,0.0
3.8639849989995128,181,731.11,101.9,5.9,-42.7,-0.33,-0.48,-1.26,-0.01,0.94,-0.13,-108.7,471.2,36.0,-1.62,-12.84,-0.07,0.0,0.9489994731294639,1.388128236151113,0.05312096302292646,0.35,0,1,0.0
3.872496689999025,182,731.12,101.9,5.8,-42.7,-0.57,-0.65,-1.16,-0.04,0.96,-0.12,-104.0,463.1,-101.0,-1.75,-12.32,0.17,0.0,0.9682974749528164,1.4467204291085407,0.033146501975582554,0.35,0,1,0.0
3.8840551869998308,183,731.13,101.8,5.7,-42.6,-0.91,-0.82,-0.97,-0.06,0.97,-0.12,-99.5,445.5,-136.0,-1.87,-11.92,0.48,0.0,0.9792343948207701,1.5624979999987199,0.02176539046547632,0.35,0,1,0.0
3.892532557998493,184,731.14,101.7,5.6,-42.6,-1.26,-0.99,-0.73,-0.05,0.98,-0.12,-95.2,421.8,-256.0,-1.98,-11.02,0.06,0.0,0.9885848471426213,1.7608520664723655,0.012166639380752686,0.35,0,1,0.0
3.904047139998511,185,731.15,101.5,5.5,-42.5,-1.46,-1.15,-0.52,-0.02,0.99,-0.12,-91.2,390.9,-253.0,-2.08,-10.36,-0.02,0.0,0.9974467404327911,1.9298963702748393,0.0032386511687712005,0.35,0,1,0.0
3.912511195998377,186,731.16,101.4,5.4,-42.4,-1.6,-1.17,-0.36,0.0,1.01,-0.14,-87.5,363.2,-310.0,-2.18,-9.4,0.21,0.0,1.0196568050084303,2.0145719148245864,0.018591985138730616,0.35,0,1,0.0
3.923969548999594,187,731.17,101.2,5.3,-42.3,-1.92,-1.12,-0.16,0.05,1.04,-0.16,-84.1,319.6,-420.0,-2.27,-8.07,-0.01,0.0,1.0534229919647664,2.228542124349459,0.0513110086531654,0.35,0,1,0.0
3.932517906998328,188,731.18,101.0,5.3,-42.2,-2.24,-0.84,0.05,0.1,1.04,-0.18,-81.3,265.3,-524.0,-2.34,-6.47,-0.04,0.0,1.0601886624558858,2.392843496762795,0.056915145561399205,0.35,0,1,0.0
3.9439392919994134,189,731.19,100.7,5.3,-42.1,-2.73,-0.5,0.26,0.12,0.99,-0.18,-79.1,199.1,-649.0,-2.39,-4.5,0.24,0.0,1.0133607452432722,2.7875616585108927,0.009885483781809867,0.35,0,1,0.0
3.952578700998856,190,731.2,100.5,5.4,-42.1,-2.97,-0.19,0.36,0.13,0.94,-0.18,-77.6,121.6,-741.0,-2.42,-2.33,0.29,0.0,0.9658674857349738,2.99776583475094,0.03685562021195876,0.35,0,1,0.0
3.964096175999657,191,731.21,100.2,5.4,-42.0,-2.84,0.09,0.37,0.14,0.92,-0.16,-77.0,43.6,-767.0,-2.43,-0.22,0.42,0.0,0.9442457307290301,2.8654144551879406,0.05730782771354448,0.35,0,1,0.0
3.972515614999793,192,731.22,99.9,5.5,-42.1,-2.67,0.18,0.38,0.14,0.93,-0.14,-77.0,-20.5,-575.0,-2.42,0.98,0.07,0.0,0.9508417323613851,2.702905843717091,0.049697589559565714,0.35,0,1,0.0
3.984206336999705,193,731.23,99.6,5.6,-42.1,-2.65,0.37,0.42,0.14,0.94,-0.15,-77.4,-49.1,-354.0,-2.41,1.6,0.1,0.0,0.9621330469326993,2.7084682017701445,0.03763814948848654,0.35,0,1,0.0
3.992557252999177,194,731.24,99.3,5.6,-42.1,-2.6,0.61,0.49,0.13,0.94,-0.14,-78.1,-73.0,-286.0,-2.38,2.3,0.0,0.0,0.959218431849597,2.7151795520738586,0.03974170928015708,0.35,0,1,0.0
4.004302770999857,195,731.25,99.1,5.7,-42.2,-2.28,0.85,0.5,0.11,0.92,-0.12,-79.0,-100.3,-281.0,-2.36,3.07,0.0,0.0,0.9342911751697112,2.48412962624739,0.06337558664084209,0.35,0,1,0.0
4.0125532199999725,196,731.26,98.8,5.8,-42.3,-1.92,0.94,0.47,0.09,0.92,-0.09,-80.2,-127.1,-266.0,-2.32,3.76,0.18,0.0,0.9287626176801045,2.1888124634148083,0.06752606124783977,0.35,0,1,0.0
4.0245369209987985,197,731.27,98.6,5.8,-42.4,-1.7,0.77,0.39,0.08,0.91,-0.1,-81.6,-153.4,-272.0,-2.28,4.51,0.14,0.0,0.9189668111526118,1.9065675964937618,0.07577543041982582,0.35,0,1,0.0
4.032484097999259,198,731.28,98.4,5.9,-42.4,-1.56,0.55,0.25,0.07,0.92,-0.12,-83.3,-179.9,-267.0,-2.23,5.23,0.13,0.0,0.9304300081145277,1.6729016707505557,0.06302598878875176,0.35,0,1,0.0
4.044119985999714,199,731.29,98.3,5.9,-42.5,-1.48,0.27,0.11,0.06,0.94,-0.14,-85.3,-206.5,-263.0,-2.17,5.92,0.0,0.0,0.9522604685693931,1.5084429057806596,0.040371617767208656,0.35,0,1,0.0
4.052511562998916,200,731.3,98.1,5.9,-42.5,-1.55,0.12,-0.01,0.06,0.96,-0.16,-87.6,-230.7,-239.0,-2.11,6.53,0.15,0.0,0.9750897394599125,1.5546703830716018,0.017191499939155475,0.35,0,1,0.0
4.064437559998623,201,731.31,98.0,5.8,-42.5,-2.02,0.0,-0.14,0.07,0.97,-0.14,-90.0,-248.6,-178.0,-2.04,6.91,-0.09,0.0,0.98254770876533,2.0248456731316584,0.009538860021063189,0.35,0,1,0.0
4.072442949998731,202,731.32,97.7,5.8,-42.5,-2.54,-0.11,-0.23,0.06,0.95,-0.12,-92.6,-258.7,-117.0,-1.97,7.13,-0.09,0.0,0.9594269122762817,2.5527632087602643,0.03200646337990931,0.35,0,1,0.0
4.08388059599929,203,731.33,97.5,5.8,-42.5,-2.66,-0.18,-0.36,0.04,0.9,-0.1,-95.2,-267.4,-102.0,-1.9,7.39,-0.1,0.0,0.9064215354899728,2.6902787959614893,0.0833116033628939,0.35,0,1,0.0
4.092482367999764,204,731.34,97.2,5.7,-42.4,-2.35,-0.24,-0.46,0.03,0.9,-0.11,-98.0,-275.8,-73.0,-1.82,7.53,0.0,0.0,0.9071934744033381,2.4065951051225882,0.08088887116053811,0.35,0,1,0.0
4.104188068999065,205,731.35,97.0,5.6,-42.4,-1.83,-0.18,-0.39,0.01,0.93,-0.13,-100.7,-276.2,-9.0,-1.74,7.46,-0.02,0.0,0.939095309327014,1.879734023738465,0.0480072955121249,0.35,0,1,0.0
4.112491531999694,206,731.36,96.9,5.5,-42.4,-1.22,-0.19,-0.14,-0.01,0.97,-0.12,-103.5,-272.6,13.0,-1.67,7.4,-0.07,0.0,0.977445650662992,1.2426182036329583,0.00946381509262395,0.35,0,1,0.0
4.124415218999275,207,731.37,96.8,5.5,-42.4,-0.56,-0.41,0.16,-0.03,1.01,-0.13,-106.2,-271.9,7.0,-1.6,7.38,-0.1,0.0,1.0187737727287642,0.7122499561249548,0.031227020833685226,0.35,0,1,0.0
4.132470474000002,208,731.38,96.8,5.5,-42.3,-0.05,-0.79,0.45,-0.04,1.04,-0.15,-108.9,-269.5,25.0,-1.52,7.27,0.06,0.0,1.05152270541344,0.9105492847726586,0.06269643444799367,0.35,0,1,0.0
4.144074976999036,209,731.39,96.8,5.5,-42.2,-0.07,-1.2,0.62,-0.02,1.07,-0.19,-111.6,-266.5,25.0,-1.45,7.21,0.13,0.0,1.086922260329597,1.3525161736556055,0.09613406957686765,0.35,0,1,0.0
4.15250449999985,210,731.4,96.8,5.6,-42.1,-0.57,-1.46,0.69,0.01,1.07,-0.23,-114.2,-265.2,18.0,-1.38,7.17,0.01,0.0,1.0944861808172819,1.7124835765635826,0.1016240302632615,0.35,0,1,0.0
4.16444607899939,211,731.41,96.7,5.6,-41.9,-1.11,-1.54,0.68,0.05,1.02,-0.26,-116.9,-263.0,29.0,-1.31,7.09,-0.08,0.0,1.0538026380684384,2.0164572894063486,0.05972167776412973,0.35,0,1,0.0
4.172349291999126,212,731.42,96.6,5.7,-41.7,-1.36,-1.55,0.62,0.08,0.98,-0.25,-119.4,-257.5,47.0,-1.24,6.93,-0.04,0.0,1.0145442326483356,2.1532533524878117,0.020054006897146315,0.35,0,1,0.0
4.184465400998306,213,731.43,96.5,5.7,-41.6,-1.34,-1.46,0.54,0.11,0.92,-0.24,-122.0,-252.4,47.0,-1.17,6.81,-0.07,0.0,0.9571311299921239,2.053971762220698,0.03661191384388407,0.35,0,1,0.0
4.192478526998457,214,731.44,96.4,5.7,-41.4,-1.08,-1.28,0.47,0.12,0.89,-0.25,-124.5,-246.6,69.0,-1.1,6.57,-0.03,0.0,0.9322016949137134,1.7394539373033135,0.06031052194384867,0.35,0,1,0.0
4.204274884999904,215,731.45,96.3,5.8,-41.3,-0.68,-1.07,0.45,0.11,0.86,-0.24,-126.9,-234.0,122.0,-1.04,6.15,-0.34,0.0,0.8996110270555825,1.3452880732393342,0.09104316600593998,0.35,0,1,0.0
4.212471343998914,216,731.46,96.3,5.8,-41.2,-0.21,-0.97,0.43,0.11,0.85,-0.24,-129.1,-215.5,165.0,-0.98,5.63,0.04,0.0,0.8900561780022651,1.0816191566350883,0.09858605475807225,0.35,0,1,0.0
4.2242172389996995,217,731.47,96.3,5.8,-41.1,0.18,-0.9,0.39,0.1,0.83,-0.24,-131.1,-196.2,186.0,-0.93,5.09,-0.07,0.0,0.8697700845625814,0.9972462083156797,0.11649470523380079,0.35,0,1,0.0
4.232515150999461,218,731.48,96.3,5.9,-41.0,0.71,-0.9,0.28,0.08,0.82,-0.24,-132.9,-175.7,201.0,-0.88,4.52,0.0,0.0,0.8581375181169972,1.1800423721205946,0.1255647262457973,0.35,0,1,0.0
4.24410426599934,219,731.49,96.4,5.9,-40.9,1.34,-1.01,0.16,0.06,0.84,-0.26,-134.5,-155.6,198.0,-0.84,3.99,-0.01,0.0,0.8813625814612281,1.6856156145456176,0.10029286964353501,0.35,0,1,0.0
4.252499077998436,220,731.5,96.6,5.9,-40.8,1.62,-1.17,0.16,0.04,0.89,-0.26,-135.9,-134.9,204.0,-0.81,3.41,-0.13,0.0,0.9280624978954812,2.0047194317410106,0.052521094145096314,0.35,0,1,0.0
4.264359719998538,221,731.51,96.8,5.9,-40.7,1.57,-1.44,0.3,0.02,0.93,-0.23,-137.2,-115.0,197.0,-0.77,2.89,0.0,0.0,0.9582275303913993,2.1513948963405114,0.021908940416194733,0.35,0,1,0.0
4.272421290999773,222,731.52,97.0,5.9,-40.5,1.41,-1.98,0.62,0.01,1.0,-0.15,-138.2,-95.3,192.0,-0.75,2.37,-0.14,0.0,1.011236866416568,2.5085653270345585,0.030478387696794562,0.35,0,1,0.0
4.284194188998299,223,731.53,97.1,5.9,-40.3,1.3,-2.73,1.0,-0.01,1.01,-0.1,-139.0,-78.4,171.0,-0.73,1.94,0.03,0.0,1.0149876846543509,3.1847919869278747,0.0335446218158858,0.35,0,1,0.0
4.292519865999566,224,731.54,97.3,6.0,-39.9,1.45,-3.47,1.05,-0.05,1.02,-0.07,-139.7,-65.1,131.0,-0.71,1.67,0.0,0.0,1.0236210236215353,3.9045998514572524,0.04133440156740886,0.35,0,1,0.0
4.3041018529984285,225,731.55,97.5,6.0,-39.5,1.09,-4.07,0.93,-0.04,1.09,0.01,-140.3,-56.6,108.0,-0.7,1.38,-0.23,0.0,1.0907795377618708,4.314846463085332,0.10632305739358949,0.35,0,1,0.0
4.312480023998432,226,731.56,97.5,6.0,-39.1,-0.37,-4.65,0.68,0.0,1.07,0.09,-140.8,-43.4,127.0,-0.69,1.02,0.0,0.0,1.0737783756436894,4.714000424268119,0.08753545736989998,0.35,0,1,0.0
4.324235017998944,227,731.57,97.5,6.0,-38.6,-1.86,-4.98,0.17,0.1,0.95,0.05,-141.1,-26.4,180.0,-0.68,0.42,-0.1,0.0,0.9565563234854495,5.3187310516701265,0.029092862892573068,0.35,0,1,0.0
4.332453274999352,228,731.58,97.3,5.9,-38.1,-2.21,-4.69,-0.54,0.22,0.89,0.03,-141.2,-4.2,201.0,-0.68,-0.12,-0.12,0.0,0.9172785836374902,5.212657671476231,0.0670031906857218,0.35,0,1,0.0
4.344135876999644,229,731.59,97.2,5.8,-37.7,-1.16,-4.41,-1.4,0.35,0.87,0.09,-141.1,12.1,167.0,-0.68,-0.51,-0.02,0.0,0.9420721840708386,4.770083856705247,0.041365398447325896,0.35,0,1,0.0
4.352543628998319,230,731.6,97.2,5.5,-37.3,0.55,-3.77,-2.23,0.46,0.94,0.01,-140.9,23.9,116.0,-0.69,-0.75,-0.02,0.0,1.0465658125507444,4.414555470259718,0.061865665431928396,0.35,0,1,0.0
4.3639420609997615,231,731.61,97.3,5.2,-37.0,1.17,-2.63,-2.65,0.48,1.06,-0.04,-140.6,31.2,90.0,-0.7,-0.94,-0.01,0.0,1.1643023662262308,3.912582267505694,0.17601017472526648,0.35,0,1,0.0
4.371877327999755,232,731.62,97.4,5.0,-36.8,0.66,-1.36,-2.64,0.39,1.11,-0.07,-140.3,37.4,60.0,-0.71,-1.06,-0.02,0.0,1.1786008654332476,3.042170277943035,0.1865025004536376,0.35,0,1,0.0
4.384063585999684,233,731.63,97.5,4.7,-36.8,0.4,-0.6,-2.41,0.25,1.04,-0.03,-139.9,36.2,-20.0,-0.72,-0.86,0.01,0.0,1.0700467279516348,2.5155715056424057,0.0763893957125843,0.35,0,1,0.0
4.392335335998723,234,731.64,97.5,4.5,-36.8,0.73,-0.38,-2.18,0.13,1.01,0.0,-139.6,24.9,-94.0,-0.72,-0.49,-0.06,0.0,1.0183319694480772,2.330171667495766,0.024181144464846205,0.35,0,1,0.0
4.404160307998609,235,731.65,97.6,4.3,-36.8,1.58,-0.64,-1.91,0.02,1.02,0.0,-139.5,6.9,-169.0,-0.73,0.08,0.21,0.0,1.020196059588548,2.560097654387426,0.02552432991321063,0.35,0,1,0.0
4.412516858999879,236,731.66,97.9,4.1,-36.7,2.71,-1.1,-1.64,-0.03,1.1,0.0,-139.5,-6.9,-97.0,-0.72,0.19,-0.03,0.0,1.100409014866745,3.35316268618151,0.10362253948757938,0.35,0,1,0.0
4.424077975998443,237,731.67,98.2,3.9,-36.6,3.13,-1.53,-1.26,-0.07,1.23,-0.04,-139.6,-7.0,-34.0,-0.72,0.2,0.06,0.0,1.2326394444443192,3.704780695263891,0.23113590968385056,0.35,0,1,0.0
4.432458631999907,238,731.68,98.5,3.8,-36.4,2.73,-2.01,-0.81,-0.07,1.31,-0.09,-139.7,-10.7,-52.0,-0.72,0.37,0.02,0.0,1.3149524706239386,3.4855559097509823,0.3071799571462006,0.35,0,1,0.0
4.444336557999122,239,731.69,98.7,3.7,-36.2,1.7,-2.38,-0.46,-0.04,1.29,-0.14,-139.8,-22.0,-113.0,-0.71,0.79,0.1,0.0,1.2981910491141126,2.960743149954079,0.2846101649236472,0.35,0,1,0.0
4.452499706998424,240,731.7,98.8,3.6,-36.0,-0.12,-2.65,-0.24,0.0,1.24,-0.15,-140.2,-37.4,-131.0,-0.7,1.19,-0.01,0.0,1.2490396310766123,2.6635502623378446,0.23074957194842383,0.35,0,1,0.0
4.464000588999625,241,731.71,98.7,3.5,-35.7,-1.39,-2.83,-0.07,0.02,1.16,-0.12,-140.6,-52.1,-140.0,-0.69,1.57,0.09,0.0,1.1663618649458665,3.1537120984642844,0.14511036970132452,0.35,0,1,0.0
4.472518250999201,242,731.72,98.5,3.4,-35.4,-1.92,-2.97,0.07,0.07,1.08,-0.14,-141.3,-68.3,-158.0,-0.67,2.06,0.14,0.0,1.091283647820309,3.537258825701054,0.06863150952425157,0.35,0,1,0.0
4.484262603999014,243,731.73,98.3,3.4,-35.1,-2.06,-2.81,0.14,0.15,1.01,-0.16,-142.1,-85.2,-171.0,-0.64,2.54,0.06,0.0,1.0335376142163382,3.4870187840044684,0.010667766401875056,0.35,0,1,0.0
4.4924593179985095,244,731.74,98.2,3.5,-34.8,-1.86,-2.52,0.28,0.21,0.98,-0.16,-143.1,-103.2,-169.0,-0.61,3.0,0.06,0.0,1.0149384217774002,3.1445826432135635,0.007772797516321539,0.35,0,1,0.0
4.504177996999715,245,731.75,98.0,3.5,-34.6,-1.56,-1.83,0.46,0.26,0.94,-0.18,-144.2,-119.1,-159.0,-0.58,3.41,0.02,0.0,0.991766101457395,2.448285114115593,0.03032621547960035,0.35,0,1,0.0
4.512549897999634,246,731.76,97.9,3.5,-34.5,-1.15,-1.14,0.58,0.29,0.9,-0.16,-145.5,-132.7,-134.0,-0.54,3.74,0.07,0.0,0.9590099061010788,1.7200290695217915,0.06182076261919822,0.35,0,1,0.0
4.524094215999867,247,731.77,97.8,3.5,-34.4,-0.64,-0.42,0.63,0.3,0.86,-0.18,-146.9,-142.0,-93.0,-0.51,3.92,-0.07,0.0,0.9284395510748128,0.9914131328563285,0.090543295292555,0.35,0,1,0.0
4.53229938199911,248,731.78,97.8,3.6,-34.4,-0.13,0.42,0.65,0.29,0.85,-0.18,-148.3,-149.0,-75.0,-0.46,4.11,0.17,0.0,0.9159694318043587,0.784729252672538,0.10095314627174878,0.35,0,1,0.0
4.544203449999259,249,731.79,97.8,3.7,-34.4,0.39,1.13,0.71,0.27,0.86,-0.17,-149.9,-154.5,-60.0,-0.42,4.27,0.78,0.0,0.9172785836374902,1.3903596656980524,0.0976511145498451,0.35,0,1,0.0
4.552506901000015,250,731.8,97.8,3.8,-34.6,0.91,1.74,0.76,0.23,0.88,-0.17,-151.5,-158.7,-42.0,-0.38,4.34,-0.03,0.0,0.9253107586103168,2.1055403107041193,0.08782656078547812,0.35,0,1,0.0
4.56390848799856,251,731.81,97.9,3.9,-34.8,1.11,2.18,0.8,0.2,0.91,-0.16,-153.0,-158.7,0.0,-0.34,4.28,0.02,0.0,0.9453570753953239,2.5738104048278307,0.06642463912046159,0.35,0,1,0.0
4.57249490599861,252,731.82,98.0,4.0,-35.0,0.95,2.52,0.87,0.15,0.93,-0.14,-154.6,-153.8,34.0,-0.29,4.11,0.11,0.0,0.9523654760647301,2.8301590061337545,0.05822791368203417,0.35,0,1,0.0
4.5839847959996405,253,731.83,98.1,4.2,-35.2,0.77,2.69,0.92,0.12,0.91,-0.13,-156.1,-149.3,42.0,-0.26,4.0,-0.01,0.0,0.9270382947861432,2.945403198205638,0.0818839930614087,0.35,0,1,0.0
4.592487142999744,254,731.84,98.1,4.4,-35.5,0.62,2.77,0.92,0.09,0.91,-0.13,-157.6,-142.8,61.0,-0.22,3.79,0.07,0.0,0.9236341266973628,2.98390683500675,0.08358239792718536,0.35,0,1,0.0
4.604042038999978,255,731.85,98.2,4.5,-35.8,0.44,2.68,0.94,0.07,0.92,-0.09,-158.9,-137.0,60.0,-0.18,3.64,-0.09,0.0,0.9270382947861432,2.873951982897418,0.07857466524163692,0.35,0,1,0.0
4.612506371999189,256,731.86,98.1,4.6,-36.0,0.41,2.47,0.96,0.06,0.93,-0.07,-160.3,-129.2,72.0,-0.15,3.43,-0.06,0.0,0.9345587193964862,2.6815294143454778,0.06963315581866802,0.35,0,1,0.0
4.623975539998355,257,731.87,98.1,4.7,-36.2,0.36,2.22,0.96,0.06,0.94,-0.08,-161.5,-120.7,86.0,-0.11,3.15,-0.01,0.0,0.9453041838477179,2.44532206467778,0.057709937540087575,0.35,0,1,0.0
4.6325115649997315,258,731.88,98.1,4.8,-36.4,0.15,1.9,0.92,0.06,0.94,-0.07,-162.6,-110.3,94.0,-0.08,2.89,-0.06,0.0,0.9445104552094699,2.116341182323871,0.05733359285476891,0.35,0,1,0.0
4.644020747999093,259,731.89,98.1,4.9,-36.6,-0.12,1.54,0.8,0.06,0.93,-0.07,-163.7,-99.9,105.0,-0.05,2.57,0.04,0.0,0.9345587193964862,1.7395401691251628,0.06593962209439752,0.35,0,1,0.0
4.652435084999524,260,731.9,98.0,5.0,-36.7,-0.3,1.19,0.65,0.07,0.92,-0.09,-164.6,-89.3,103.0,-0.03,2.3,0.02,0.0,0.9270382947861432,1.3887404365107254,0.07199084577064563,0.35,0,1,0.0
4.664118947999668,261,731.91,97.9,5.1,-36.8,-0.37,0.88,0.51,0.07,0.92,-0.12,-165.4,-79.9,90.0,-0.01,2.09,-0.2,0.0,0.9304300081145277,1.0823123393919152,0.06722714979341593,0.35,0,1,0.0
4.672514934998617,262,731.92,97.9,5.1,-36.9,-0.27,0.64,0.32,0.08,0.91,-0.15,-166.2,-73.8,67.0,0.0,1.94,-0.05,0.0,0.9257429448826494,0.7647875521999558,0.07047592876478836,0.35,0,1,0.0
4.68402789099855,263,731.93,97.9,5.2,-36.9,-0.15,0.52,0.12,0.09,0.91,-0.19,-166.9,-68.0,61.0,0.02,1.78,-0.1,0.0,0.9339700209321496,0.554346462061408,0.06100387566098242,0.35,0,1,0.0
4.692564690998552,264,731.94,98.0,5.2,-37.0,-0.26,0.58,-0.09,0.09,0.92,-0.24,-167.5,-62.7,48.0,0.04,1.65,0.04,0.0,0.9550392662084632,0.6419501538281613,0.03913593777697544,0.35,0,1,0.0
4.70415631799915,265,731.95,97.9,5.2,-37.0,-0.47,0.77,-0.25,0.1,0.94,-0.26,-168.1,-59.7,29.0,0.05,1.61,-0.17,0.0,0.9804080783020915,0.9361089680160104,0.01349178316968025,0.35,0,1,0.0
4.712549568999748,266,731.96,97.9,5.2,-37.1,-0.79,0.98,-0.34,0.11,0.94,-0.26,-168.7,-58.5,17.0,0.07,1.57,-0.05,0.0,0.9814784765851974,1.3038788287260439,0.012172957188842926,0.35,0,1,0.0
4.724035145998641,267,731.97,97.8,5.1,-37.2,-1.01,1.16,-0.38,0.13,0.93,-0.24,-169.3,-58.6,8.0,0.08,1.58,0.02,0.0,0.9692264957170744,1.5843295111813072,0.02393643929582656,0.35,0,1,0.0
4.732556135999403,268,731.98,97.7,5.1,-37.4,-0.98,1.26,-0.41,0.13,0.92,-0.22,-169.9,-57.4,3.0,0.1,1.57,0.18,0.0,0.954829827770373,1.6480594649465776,0.03756644509767748,0.35,0,1,0.0
4.744099418998303,269,731.99,97.6,5.1,-37.5,-0.79,1.35,-0.41,0.13,0.91,-0.23,-170.4,-57.4,0.0,0.11,1.57,0.02,0.0,0.9475758544834287,1.6170034013569667,0.04392401001692925,0.35,0,1,0.0
4.752560431999882,270,732.0,97.5,5.1,-37.7,-0.75,1.54,-0.35,0.13,0.87,-0.25,-170.9,-57.3,4.0,0.13,1.55,0.0,0.0,0.9144943958275523,1.7483134730362286,0.0754653592993495,0.35,0,1,0.0
4.7641018819995224,271,732.01,97.4,5.1,-37.8,-0.47,1.6,-0.3,0.12,0.86,-0.22,-171.6,-58.1,-5.0,0.15,1.57,0.02,0.0,0.8957678270623476,1.6943730403898665,0.09230808950326319,0.35,0,1,0.0
4.77245667599891,272,732.02,97.4,5.1,-38.0,0.22,1.6,-0.21,0.11,0.85,-0.24,-172.2,-58.2,-1.0,0.16,1.57,-0.01,0.0,0.8900561780022651,1.6286497474902333,0.09605934379207881,0.35,0,1,0.0
4.784218806998979,273,732.03,97.4,5.1,-38.1,0.89,1.64,-0.15,0.09,0.88,-0.25,-172.8,-58.7,-6.0,0.18,1.61,-0.07,0.0,0.9192388155425117,1.8719508540557361,0.0655391721267955,0.35,0,1,0.0
4.792549271998723,274,732.04,97.5,5.1,-38.3,1.16,1.65,-0.11,0.08,0.94,-0.21,-173.3,-59.4,-3.0,0.19,1.61,0.06,0.0,0.9664884893261791,2.0199504944428712,0.017923708376265557,0.35,0,1,0.0
4.804094195998914,275,732.05,97.7,5.1,-38.5,0.9,1.56,-0.09,0.06,0.99,-0.2,-173.9,-58.9,9.0,0.21,1.57,0.08,0.0,1.0117806086301517,1.8032470712578463,0.026821042709152865,0.35,0,1,0.0
4.812456314999508,276,732.06,97.7,5.1,-38.6,0.22,1.29,-0.13,0.04,0.99,-0.16,-174.5,-56.8,15.0,0.23,1.52,-0.04,0.0,1.0036433629531958,1.3150665382405562,0.018310121091552944,0.35,0,1,0.0
4.824150656999336,277,732.07,97.7,5.0,-38.7,-0.24,0.97,-0.3,0.02,0.96,-0.16,-175.1,-54.1,21.0,0.24,1.44,0.1,0.0,0.9734474818910366,1.0433120338613948,0.011648044771194188,0.35,0,1,0.0
4.83246192399929,278,732.08,97.7,5.0,-38.8,-0.54,0.6,-0.55,0.02,0.93,-0.16,-175.6,-50.5,42.0,0.25,1.29,-0.06,0.0,0.9438749917229505,0.9767804256842988,0.04039612424049466,0.35,0,1,0.0
4.844047343000057,279,732.09,97.7,4.9,-38.9,-0.76,0.42,-0.81,0.04,0.89,-0.21,-176.1,-45.2,44.0,0.27,1.18,0.11,0.0,0.9153141537199128,1.187476315553283,0.06757782299866177,0.35,0,1,0.0
4.852463784000065,280,732.1,97.6,4.8,-38.9,-0.82,0.5,-0.97,0.07,0.87,-0.27,-176.5,-40.4,54.0,0.28,1.02,0.09,0.0,0.9136191766814005,1.3650274722510165,0.0678873440364306,0.35,0,1,0.0
4.864123404999191,281,732.11,97.5,4.7,-39.0,-0.75,0.8,-1.05,0.1,0.84,-0.3,-176.9,-34.8,64.0,0.29,0.83,-0.17,0.0,0.897552226892675,1.5182226450688978,0.08227520794865295,0.35,0,1,0.0
4.872437694999462,282,732.12,97.5,4.6,-39.1,-0.2,1.3,-1.05,0.11,0.85,-0.3,-177.1,-24.3,92.0,0.29,0.53,0.03,0.0,0.9080748867797193,1.6830032679706834,0.07031749710037649,0.35,0,1,0.0
4.88407778599867,283,732.13,97.5,4.5,-39.3,0.49,1.78,-1.02,0.13,0.85,-0.32,-177.3,-14.0,98.0,0.29,0.25,-0.03,0.0,0.9174965939991276,2.1092415698539604,0.05967787408334879,0.35,0,1,0.0
4.892460991999542,284,732.14,97.5,4.4,-39.5,1.42,2.25,-0.92,0.13,0.91,-0.29,-177.4,-2.8,109.0,0.3,-0.06,-0.02,0.0,0.9638983348880732,2.8151909349100994,0.013010610530515221,0.35,0,1,0.0
4.903981647999899,285,732.15,97.7,4.4,-39.7,2.35,2.48,-0.72,0.13,0.99,-0.28,-177.3,3.3,31.0,0.29,0.0,0.21,0.0,1.0370149468546728,3.4916042158297382,0.05890388140736269,0.35,0,1,0.0
4.912478475998796,286,732.16,98.0,4.4,-40.0,3.14,2.67,-0.52,0.13,1.08,-0.3,-177.3,-1.2,5.0,0.29,0.0,-0.26,0.0,1.1284059553192725,4.154383227387671,0.14728899207452317,0.35,0,1,0.0
4.924248247998548,287,732.17,98.3,4.4,-40.3,3.4,2.71,-0.39,0.12,1.14,-0.28,-177.3,0.6,2.0,0.29,0.0,-0.02,0.0,1.18,4.365340765621855,0.19490537602014568,0.35,0,1,0.0
4.932459354999082,288,732.18,98.6,4.4,-40.6,2.55,2.59,-0.42,0.13,1.17,-0.23,-177.3,-0.1,12.0,0.29,-0.05,-0.03,0.0,1.1994582110269618,3.65882494798535,0.21007631530616544,0.35,0,1,0.0
4.9442007889992965,289,732.19,98.8,4.4,-40.8,0.9,2.57,-0.47,0.12,1.17,-0.19,-177.3,0.1,0.0,0.29,0.0,0.04,0.0,1.191385747774414,2.7632951344364214,0.19796377501254536,0.35,0,1,0.0
4.952491399999417,290,732.2,98.8,4.4,-41.1,-0.1,2.63,-0.39,0.09,1.16,-0.11,-177.3,1.0,5.0,0.29,-0.03,-0.18,0.0,1.1686744627996284,2.6606390209872512,0.1717474402370045,0.35,0,1,0.0
4.963932326998474,291,732.21,98.7,4.4,-41.4,0.08,2.76,-0.12,0.04,1.19,0.0,-177.3,0.7,2.0,0.29,-0.02,-0.02,0.0,1.1906720791217034,2.763765547219952,0.18987015542789787,0.35,0,1,0.0
4.972498088998691,292,732.22,98.8,4.5,-41.6,0.83,2.8,0.41,0.0,1.24,0.09,-177.3,2.4,15.0,0.29,-0.1,0.05,0.0,1.2432618388738552,2.9490676492749364,0.23761071687644875,0.35,0,1,0.0
4.9841756589994475,293,732.23,98.9,4.6,-41.9,1.31,2.72,1.1,-0.04,1.26,0.14,-177.3,6.7,46.0,0.29,-0.28,-0.21,0.0,1.2683847996566342,3.21317599891447,0.2574790041060431,0.35,0,1,0.0
4.992482316998576,294,732.24,99.0,4.8,-42.1,1.22,2.58,1.7,-0.04,1.2,0.15,-177.1,17.0,90.0,0.29,-0.59,-0.04,0.0,1.21,3.3218669449573084,0.1951123203604206,0.35,0,1,0.0
5.004021249998914,295,732.25,99.1,5.0,-42.3,0.94,2.35,2.07,-0.01,1.12,0.15,-176.9,31.0,138.0,0.28,-1.06,0.14,0.0,1.1300442469213319,3.269709467215703,0.11285343593611752,0.35,0,1,0.0
5.012422059999153,296,732.26,99.1,5.2,-42.5,0.89,2.02,2.25,0.05,1.08,0.15,-176.4,45.6,139.0,0.26,-1.42,0.25,0.0,1.091512711790385,3.1519835024948972,0.07283546278906705,0.35,0,1,0.0
5.0241591750000225,297,732.27,99.2,5.5,-42.7,1.1,1.64,2.31,0.15,1.04,0.1,-175.9,62.9,170.0,0.25,-1.93,-0.16,0.0,1.0555093557141026,3.039029450334432,0.03609546457852919,0.35,0,1,0.0
5.032506169000044,298,732.28,99.3,5.8,-42.8,1.66,1.36,2.17,0.24,1.02,0.05,-175.1,81.5,176.0,0.22,-2.43,0.04,0.0,1.049047186736612,3.0519010468886436,0.029040629689017772,0.35,0,1,0.0
5.044008914999722,299,732.29,99.5,6.0,-42.9,2.3,1.15,1.81,0.3,1.01,-0.01,-174.2,102.1,207.0,0.19,-3.05,-0.15,0.0,1.0536602868097478,3.1446144437752617,0.03298065516691051,0.35,0,1,0.0
5.052489118999802,300,732.3,99.8,6.1,-43.0,2.7,1.11,1.21,0.31,1.05,-0.07,-173.0,125.2,223.0,0.16,-3.68,-0.15,0.0,1.0970414759707128,3.1600949352827996,0.07483460744131798,0.35,0,1,0.0
5.064400348999698,301,732.31,100.0,6.2,-43.1,2.46,1.05,0.52,0.28,1.12,-0.11,-171.6,148.8,229.0,0.12,-4.31,-0.05,0.0,1.1596982366115764,2.7247935701627015,0.13474154072053812,0.35,0,1,0.0
5.072571305998281,302,732.32,100.2,6.3,-43.2,1.42,1.04,-0.08,0.22,1.16,-0.15,-169.9,171.7,224.0,0.07,-4.93,-0.07,0.0,1.1901680553602503,1.7619307591389624,0.16190713227982778,0.35,0,1,0.0
5.08402551799918,303,732.33,100.3,6.3,-43.3,0.27,1.19,-0.58,0.15,1.14,-0.19,-168.0,191.9,203.0,0.02,-5.44,-0.36,0.0,1.1654183798104438,1.351073647141413,0.13441430759542095,0.35,0,1,0.0
5.092484461998538,304,732.34,100.2,6.2,-43.4,-0.32,1.4,-0.87,0.1,1.1,-0.18,-166.0,212.7,218.0,-0.03,-6.07,0.0,0.0,1.1191067866830227,1.6790771274721121,0.08634066017863984,0.35,0,1,0.0
5.103990749999866,305,732.35,100.2,6.2,-43.6,-0.49,1.6,-0.94,0.05,1.05,-0.15,-163.7,238.1,249.0,-0.1,-6.8,-0.13,0.0,1.061838029079765,1.9192967462067976,0.028490464523874603,0.35,0,1,0.0
5.112633654998717,306,732.36,100.1,6.1,-43.8,-0.26,1.7,-0.95,0.04,0.98,-0.12,-161.1,263.7,245.0,-0.17,-7.45,-0.04,0.0,0.98812954616285,1.9647137196039528,0.044313658025179614,0.35,0,1,0.0
5.124143404998904,307,732.37,100.0,5.9,-44.0,0.15,1.7,-0.93,0.03,0.96,-0.1,-158.3,285.4,214.0,-0.25,-7.98,-0.22,0.0,0.9656603957913983,1.9435534466538344,0.06544715222869879,0.35,0,1,0.0
5.132563219000076,308,732.38,100.0,5.9,-44.1,0.35,1.61,-0.83,0.01,0.95,-0.09,-155.3,305.4,210.0,-0.33,-8.56,-0.16,0.0,0.9543060305792895,1.8448577180910186,0.07526548709199143,0.35,0,1,0.0
5.144104105998849,309,732.39,100.0,5.8,-44.3,0.37,1.41,-0.71,0.0,0.94,-0.07,-152.1,327.7,222.0,-0.42,-9.19,-0.09,0.0,0.9426027795418386,1.6214499683924877,0.0852293633668535,0.35,0,1,0.0
5.152500999998665,310,732.4,100.1,5.8,-44.4,0.26,1.04,-0.65,0.0,0.93,-0.03,-148.7,349.1,220.0,-0.52,-9.78,0.1,0.0,0.9304837451562494,1.2536745989290843,0.09540142979739386,0.35,0,1,0.0
5.164002322999295,311,732.41,100.1,5.7,-44.5,-0.02,0.56,-0.67,0.0,0.91,-0.01,-145.0,374.2,245.0,-0.62,-10.48,-0.44,0.0,0.9100549433962765,0.8734414691323055,0.11351362692621947,0.35,0,1,0.0
5.172498217998509,312,732.42,100.0,5.7,-44.6,-0.44,0.01,-0.78,-0.01,0.9,0.0,-141.2,392.9,177.0,-0.73,-10.84,-0.15,0.0,0.9000555538409838,0.8956003573022959,0.12104275615188187,0.35,0,1,0.0
5.184021632998338,313,732.43,100.0,5.6,-44.6,-0.9,-0.47,-0.85,-0.04,0.91,-0.01,-137.1,407.5,171.0,-0.84,-11.29,0.06,0.0,0.9109335870413386,1.3241601111648091,0.10796142849249657,0.35,0,1,0.0
5.192517998999392,314,732.44,99.9,5.5,-44.5,-1.31,-0.92,-0.86,-0.06,0.91,-0.03,-133.0,420.9,103.0,-0.95,-11.45,0.0,0.0,0.9124691775616315,1.817168126508937,0.1042973212127597,0.35,0,1,0.0
5.204044842999792,315,732.45,99.7,5.4,-44.4,-1.55,-1.26,-0.81,-0.07,0.91,-0.04,-128.7,423.9,81.0,-1.07,-11.67,0.14,0.0,0.9135644476444998,2.155504581298773,0.10113801010729351,0.35,0,1,0.0
5.212543214998732,316,732.46,99.6,5.3,-44.3,-1.79,-1.64,-0.7,-0.06,0.92,-0.03,-124.4,434.7,75.0,-1.19,-11.85,0.04,0.0,0.9224424101265076,2.526598503917866,0.0904148466727801,0.35,0,1,0.0
5.223969994998697,317,732.47,99.4,5.2,-44.1,-1.98,-1.95,-0.54,-0.03,0.91,-0.04,-120.1,433.7,12.0,-1.31,-11.78,0.0,0.0,0.9113725912051559,2.8309892264012593,0.0994549722822492,0.35,0,1,0.0
5.232321767998656,318,732.48,99.2,5.1,-43.9,-2.09,-2.17,-0.36,0.01,0.9,-0.08,-115.7,435.6,27.0,-1.42,-11.88,0.09,0.0,0.9036038955205982,3.0342379603452327,0.10507919460747084,0.35,0,1,0.0
5.244094899999254,319,732.49,99.0,5.0,-43.7,-2.02,-2.15,-0.24,0.06,0.88,-0.11,-111.3,439.0,45.0,-1.54,-12.04,-0.18,0.0,0.8888756943465155,2.9598141833567864,0.11741124786592239,0.35,0,1,0.0
5.252501119999579,320,732.5,98.8,5.0,-43.5,-1.7,-1.98,-0.17,0.11,0.87,-0.13,-106.9,448.0,59.0,-1.67,-12.21,-0.11,0.0,0.8865100112237876,2.615205536855564,0.11738139236887735,0.35,0,1,0.0
5.2638806749982905,321,732.51,98.7,5.0,-43.3,-1.35,-1.72,-0.13,0.13,0.87,-0.13,-102.4,445.7,-4.0,-1.79,-12.09,0.15,0.0,0.8892131353055914,2.1903880934665434,0.11238470292133207,0.35,0,1,0.0
5.272484623999844,322,732.52,98.6,5.0,-43.2,-1.2,-1.41,-0.13,0.15,0.87,-0.15,-98.0,442.9,-45.0,-1.91,-11.88,-0.05,0.0,0.8954886933959579,1.8560711193270585,0.1039869619343462,0.35,0,1,0.0
5.28401341299832,323,732.53,98.5,5.0,-43.0,-1.11,-1.08,-0.1,0.13,0.9,-0.15,-93.7,419.6,-222.0,-2.02,-10.99,0.08,0.0,0.9216289925995167,1.5519342769589182,0.07628972947617174,0.35,0,1,0.0
5.292515825998635,324,732.54,98.4,5.0,-42.9,-1.19,-0.93,0.04,0.12,0.92,-0.14,-89.7,382.4,-375.0,-2.12,-9.71,0.18,0.0,0.938296328459192,1.5108275877809485,0.05842994574416649,0.35,0,1,0.0
5.304253450998658,325,732.55,98.3,5.0,-42.8,-1.22,-0.78,0.15,0.07,0.93,-0.17,-86.4,308.5,-724.0,-2.2,-7.16,0.31,0.0,0.9479978902930112,1.4557815770231466,0.04775381623214037,0.35,0,1,0.0
5.31256305199895,326,732.56,98.2,5.0,-42.8,-1.74,-0.74,0.31,0.04,0.99,-0.16,-84.0,205.4,-935.0,-2.25,-4.31,0.29,0.0,1.0036433629531958,1.9160636732634957,0.0077338232994833556,0.35,0,1,0.0
5.324049073999049,327,732.57,98.0,5.0,-42.7,-2.34,-0.85,0.47,0.03,1.03,-0.15,-82.7,101.5,-996.0,-2.28,-1.51,0.32,0.0,1.0412972678346946,2.53357454991954,0.044479973617362445,0.35,0,1,0.0
5.332414349999453,328,732.58,97.7,5.0,-42.6,-2.97,-1.04,0.57,0.03,1.04,-0.18,-82.3,7.8,-876.0,-2.28,0.62,0.24,0.0,1.0558882516630252,3.1980306440057764,0.05788953829677923,0.35,0,1,0.0
5.344596372999149,329,732.59,97.4,5.0,-42.5,-3.64,-1.09,0.6,0.05,1.03,-0.22,-82.6,-44.9,-570.0,-2.26,1.67,0.15,0.0,1.0544192714475584,3.8467778724537762,0.0552921469196862,0.35,0,1,0.0
5.35253853499853,330,732.6,97.1,5.1,-42.3,-4.27,-0.8,0.71,0.09,1.02,-0.24,-83.4,-82.2,-437.0,-2.24,2.67,0.0,0.0,1.0517128885774862,4.4019313942859215,0.051534048768621776,0.35,0,1,0.0
5.363980508998793,331,732.61,96.7,5.2,-42.3,-4.23,-0.29,0.84,0.09,0.9,-0.22,-84.4,-119.6,-407.0,-2.21,3.74,0.14,0.0,0.9308598175880191,4.322337330658033,0.06793264177642855,0.35,0,1,0.0
5.3725660479994986,332,732.62,96.4,5.3,-42.3,-3.26,0.09,0.88,0.1,0.81,-0.16,-85.9,-158.0,-386.0,-2.16,4.75,0.02,0.0,0.83168503653727,3.3778839530096354,0.16376527437063404,0.35,0,1,0.0
5.383986375998575,333,732.63,96.2,5.4,-42.3,-1.98,0.13,0.89,0.11,0.81,-0.09,-87.7,-193.3,-358.0,-2.11,5.67,0.18,0.0,0.8223746105030239,2.1747183725714923,0.1696141863967826,0.35,0,1,0.0
5.392352128999846,334,732.64,96.0,5.5,-42.3,-1.02,-0.02,0.89,0.12,0.84,-0.08,-89.9,-224.7,-310.0,-2.04,6.43,0.0,0.0,0.8522910301065005,1.3538463723776046,0.1369038114574398,0.35,0,1,0.0
5.404175420999309,335,732.65,95.9,5.6,-42.2,-0.7,-0.16,0.81,0.14,0.88,-0.12,-92.3,-248.9,-254.0,-1.98,7.04,0.15,0.0,0.8991106717195608,1.082450922675019,0.08828248644749193,0.35,0,1,0.0
5.412494802998481,336,732.66,95.9,5.7,-42.2,-0.64,-0.19,0.7,0.15,0.89,-0.17,-94.9,-269.6,-220.0,-1.9,7.57,0.28,0.0,0.9184225606985055,0.9673158739522473,0.06759118551917631,0.35,0,1,0.0
5.423824222998519,337,732.67,95.9,5.8,-42.2,-0.34,-0.24,0.57,0.14,0.91,-0.19,-97.8,-287.0,-168.0,-1.82,7.94,0.11,0.0,0.9401063769595439,0.7057619995437555,0.04498922187297516,0.35,0,1,0.0
5.432111633999739,338,732.68,95.9,5.8,-42.1,-0.01,-0.34,0.47,0.12,0.93,-0.21,-100.7,-295.4,-90.0,-1.74,8.06,0.0,0.0,0.9609370426828181,0.5801723881744115,0.023675385026706963,0.35,0,1,0.0
5.44374205099848,339,732.69,95.9,5.8,-42.1,0.21,-0.43,0.41,0.12,0.95,-0.22,-103.7,-297.0,-39.0,-1.66,8.08,-0.04,0.0,0.9824968193332739,0.6301587101675259,0.002073296208726094,0.35,0,1,0.0
5.451947328998358,340,732.7,96.0,5.9,-42.0,0.34,-0.54,0.34,0.1,0.97,-0.22,-106.6,-297.2,-8.0,-1.58,8.06,0.25,0.0,0.9996499387285531,0.7230490993010088,0.01477822672282203,0.35,0,1,0.0
5.464275688998896,341,732.71,96.1,5.9,-42.0,0.33,-0.62,0.2,0.08,0.96,-0.22,-109.6,-291.3,64.0,-1.5,7.75,-0.21,0.0,0.98812954616285,0.7302739212103907,0.0031926774739765573,0.35,0,1,0.0
5.472589482998956,342,732.72,96.1,5.9,-41.9,0.2,-0.73,0.01,0.08,0.95,-0.24,-112.4,-278.7,101.0,-1.43,7.43,-0.08,0.0,0.9831073186585481,0.7569676347110225,0.0017929590297188769,0.35,0,1,0.0
5.484122234998722,343,732.73,96.2,5.9,-41.8,0.17,-0.78,-0.19,0.08,0.94,-0.26,-115.1,-266.4,125.0,-1.36,7.05,0.0,0.0,0.9785703858180054,0.8206095295571457,0.006203294032856355,0.35,0,1,0.0
5.492530175999491,344,732.74,96.2,5.8,-41.7,0.3,-0.83,-0.37,0.08,0.94,-0.28,-117.7,-249.9,165.0,-1.29,6.55,-0.14,0.0,0.9840731680114034,0.9569743988216194,0.0006865016026691428,0.35,0,1,0.0
5.503975951998655,345,732.75,96.2,5.8,-41.7,0.45,-0.85,-0.46,0.08,0.93,-0.3,-120.0,-229.0,202.0,-1.23,5.94,-0.09,0.0,0.9804590761474953,1.0661144403862093,0.004214581597245748,0.35,0,1,0.0
5.512521758999355,346,732.76,96.3,5.7,-41.6,0.66,-0.88,-0.5,0.07,0.93,-0.29,-122.2,-205.1,229.0,-1.17,5.27,-0.14,0.0,0.9766780431646859,1.2083045973594573,0.007835702288454094,0.35,0,1,0.0
5.524017493999054,347,732.77,96.4,5.7,-41.5,0.83,-0.99,-0.46,0.06,0.95,-0.28,-124.0,-179.4,253.0,-1.12,4.53,-0.02,0.0,0.9922197337283712,1.3713497001129946,0.007551868509726667,0.35,0,1,0.0
5.532566003999818,348,732.78,96.5,5.6,-41.4,0.88,-1.1,-0.38,0.04,0.95,-0.26,-125.6,-151.2,278.0,-1.08,3.75,-0.24,0.0,0.9857484466130292,1.4590407807871582,0.0010589697664968867,0.35,0,1,0.0
5.5440816929985886,349,732.79,96.6,5.6,-41.3,1.09,-1.33,-0.34,0.02,0.95,-0.21,-126.9,-120.8,300.0,-1.05,2.9,-0.34,0.0,0.973139250056229,1.752883338958985,0.011319222254497219,0.35,0,1,0.0
5.5525146599993604,350,732.8,96.8,5.5,-41.1,1.57,-1.68,-0.29,0.02,1.02,-0.17,-127.9,-90.7,290.0,-1.03,2.12,-0.06,0.0,1.0342630226397924,2.3176280978621224,0.0488084593224849,0.35,0,1,0.0
5.56395925599827,351,732.81,97.0,5.4,-41.0,1.8,-1.91,-0.18,0.03,1.11,-0.1,-128.6,-64.4,266.0,-1.01,1.43,-0.03,0.0,1.1148990985734988,2.6306843216167155,0.12685564455106746,0.35,0,1,0.0
5.5724413859989,352,732.82,97.1,5.4,-40.8,1.55,-2.32,-0.28,0.04,1.13,0.0,-129.1,-40.5,242.0,-1.0,0.8,-0.05,0.0,1.1307077429645558,2.804157627523817,0.139811003163282,0.35,0,1,0.0
5.584166409998943,353,732.83,97.3,5.3,-40.5,0.93,-2.82,-0.63,0.09,1.14,0.06,-129.4,-17.5,224.0,-1.0,0.23,0.05,0.0,1.1451200810395388,3.035490075753831,0.1511388744134997,0.35,0,1,0.0
5.59232173700002,354,732.84,97.3,5.1,-40.2,0.21,-3.36,-1.24,0.15,1.09,0.12,-129.4,1.7,186.0,-1.0,-0.2,-0.18,0.0,1.1067971810589328,3.587659404124087,0.11055965494423581,0.35,0,1,0.0
5.604414314999303,355,732.85,97.4,4.9,-39.9,-0.04,-3.51,-2.09,0.26,1.07,0.09,-129.3,10.1,101.0,-1.0,-0.35,0.01,0.0,1.1048076755707303,4.085315165320786,0.10639874646691272,0.35,0,1,0.0
5.612556069998391,356,732.86,97.4,4.6,-39.6,-0.63,-3.09,-2.71,0.32,1.11,0.02,-129.2,17.7,87.0,-1.01,-0.57,0.02,0.0,1.1553787257864843,4.158016353984193,0.15383040074901322,0.35,0,1,0.0
5.6240450919995055,357,732.87,97.3,4.3,-39.3,-1.74,-2.25,-2.62,0.33,1.12,-0.08,-129.0,21.4,43.0,-1.01,-0.61,0.03,0.0,1.170341830406826,3.867104860228127,0.16541763526196784,0.35,0,1,0.0
5.632470098998965,358,732.88,97.1,4.1,-39.2,-1.7,-1.22,-2.13,0.26,1.02,-0.02,-128.7,24.8,42.0,-1.02,-0.67,0.11,0.0,1.0528057750601485,2.9858499627409274,0.04692394831698454,0.35,0,1,0.0
5.6439783579990035,359,732.89,97.0,3.9,-39.1,-0.05,-0.76,-1.76,0.17,0.93,0.06,-128.5,21.0,-43.0,-1.03,-0.37,0.06,0.0,0.9473119866232034,1.9177330366868064,0.05739844331756139,0.35,0,1,0.0
5.65248669399989,360,732.9,97.1,3.7,-39.1,1.59,-0.66,-1.6,0.07,0.94,0.08,-128.4,7.0,-114.0,-1.03,0.02,-0.06,0.0,0.9459915433025815,2.350255305280684,0.05754450890541951,0.35,0,1,0.0
5.663972024998657,361,732.91,97.3,3.5,-39.0,2.16,-0.84,-1.59,0.0,1.02,0.04,-128.4,-4.0,-87.0,-1.02,0.19,0.02,0.0,1.0207840124139875,2.810569337340746,0.016903001001866702,0.35,0,1,0.0
5.672395637999216,362,732.92,97.5,3.4,-39.0,1.83,-0.89,-1.58,-0.05,1.14,-0.01,-128.5,-9.1,-62.0,-1.02,0.32,-0.02,0.0,1.1411397810960757,2.5763151981075607,0.13451359429027576,0.35,0,1,0.0
5.684189200999754,363,732.93,97.7,3.2,-38.9,1.14,-0.96,-1.39,-0.06,1.28,-0.04,-128.6,-13.4,-48.0,-1.02,0.43,0.04,0.0,1.2820296408429877,2.0379646709401023,0.26989538495644383,0.35,0,1,0.0
5.692550954998296,364,732.94,97.7,3.1,-38.8,0.48,-1.04,-0.96,-0.03,1.38,-0.05,-128.8,-18.0,-39.0,-1.01,0.51,0.27,0.0,1.3812313347155136,1.4945233353815524,0.36171513725239035,0.35,0,2,0.0
5.703933637998489,365,732.95,97.7,3.0,-38.7,-0.5,-1.16,-0.38,0.0,1.35,-0.08,-129.0,-24.3,-86.0,-1.01,0.87,0.09,0.0,1.352368293032634,1.3190905958272918,0.3261950536581204,0.35,0,2,0.0
5.71250893099932,366,732.96,97.6,2.9,-38.6,-1.79,-1.04,0.21,0.03,1.28,-0.07,-129.3,-39.3,-132.0,-0.99,1.28,0.0,0.0,1.2822636234409834,2.0808171471804053,0.2509685763851406,0.35,0,2,0.0
5.7240558009998495,367,732.97,97.3,3.0,-38.5,-2.33,-1.11,0.65,0.04,1.15,0.0,-129.8,-53.7,-138.0,-0.98,1.69,0.21,0.0,1.1506954418958997,2.6614845481422584,0.11701238694325578,0.35,0,2,0.0
5.732525746998363,368,732.98,97.0,3.0,-38.4,-2.02,-1.14,0.99,0.07,1.06,-0.01,-130.5,-69.2,-159.0,-0.96,2.17,0.09,0.0,1.0623558725775464,2.521923868795408,0.028099361272404533,0.35,0,2,0.0
5.743879548999757,369,732.99,96.8,3.2,-38.2,-1.5,-1.14,1.27,0.1,0.99,-0.02,-131.3,-88.8,-190.0,-0.93,2.73,-0.13,0.0,0.995238664843765,2.2721135535003527,0.03823748953214934,0.35,0,2,0.0
5.752591823998955,370,733.0,96.7,3.3,-38.1,-1.1,-1.09,1.49,0.12,0.95,-0.04,-132.0,-104.8,-273.0,-0.9,3.35,0.15,0.0,0.9583840566286566,2.1489997673336307,0.07359025579231271,0.35,0,2,0.0
5.764111951999439,371,733.01,96.6,3.4,-38.0,-0.82,-0.96,1.56,0.13,0.88,-0.04,-133.6,-133.7,-252.0,-0.86,3.99,-0.06,0.0,0.8904493247793498,2.006888138387389,0.13869448788878713,0.35,0,2,0.0
5.7724686319998,372,733.02,96.5,3.6,-37.9,-0.58,-0.88,1.53,0.15,0.86,-0.03,-135.1,-158.3,-244.0,-0.82,4.63,0.06,0.0,0.8734987120768982,1.8578751303572583,0.1525321985794139,0.35,0,2,0.0
5.784405387999868,373,733.03,96.5,3.7,-37.8,-0.36,-0.8,1.47,0.17,0.85,-0.04,-136.9,-179.1,-212.0,-0.77,5.15,0.11,0.0,0.8677557259966655,1.7118703221914913,0.1551096809664536,0.35,0,2,0.0
5.792463008998311,374,733.04,96.5,3.8,-37.7,-0.14,-0.69,1.37,0.19,0.85,-0.06,-138.8,-197.1,-181.0,-0.71,5.58,0.14,0.0,0.8730406634286859,1.540324641106543,0.14682824866374455,0.35,0,2,0.0
5.803948242999468,375,733.05,96.5,4.0,-37.6,0.0,-0.48,1.21,0.22,0.86,-0.09,-141.1,-212.3,-147.0,-0.66,5.93,-0.15,0.0,0.8922443611477743,1.3017296186228535,0.12507205992576298,0.35,0,2,0.0
5.812673052998434,376,733.06,96.5,4.1,-37.6,0.08,-0.18,1.02,0.25,0.88,-0.12,-143.3,-222.1,-98.0,-0.59,6.11,0.19,0.0,0.9226592003551474,1.0388455130576442,0.09276407630402217,0.35,0,2,0.0
5.82414885199978,377,733.07,96.5,4.2,-37.6,0.07,0.16,0.89,0.25,0.9,-0.15,-145.5,-226.4,-49.0,-0.53,6.16,-0.11,0.0,0.9460443964212251,0.9069729874698584,0.06799130263318554,0.35,0,2,0.0
5.832303306999165,378,733.08,96.5,4.2,-37.6,0.02,0.57,0.82,0.24,0.89,-0.16,-147.8,-225.6,-1.0,-0.47,6.09,-0.2,0.0,0.9355746896961247,0.9988493379884675,0.07689178917112016,0.35,0,2,0.0
5.844153017998906,379,733.09,96.5,4.3,-37.7,0.12,0.83,0.66,0.2,0.87,-0.12,-150.0,-221.7,28.0,-0.41,5.97,0.08,0.0,0.9007219326740079,1.0671925786848409,0.10950965526937217,0.35,0,2,0.0
5.852502566998737,380,733.1,96.5,4.4,-37.7,0.08,0.9,0.48,0.17,0.87,-0.12,-152.2,-216.8,43.0,-0.35,5.82,-0.2,0.0,0.8945389874119518,1.023132444994293,0.11337874852079977,0.35,0,2,0.0
5.863935459999993,381,733.11,96.5,4.5,-37.8,0.0,0.96,0.27,0.13,0.86,-0.12,-154.3,-210.9,67.0,-0.3,5.61,0.02,0.0,0.8780091115700337,0.9972462083156797,0.12731045187546353,0.35,0,2,0.0
5.872475803998896,382,733.12,96.5,4.5,-37.9,-0.19,0.92,0.01,0.1,0.87,-0.12,-156.4,-202.2,78.0,-0.24,5.38,-0.11,0.0,0.883911760301898,0.9394679345246436,0.11897964708072717,0.35,0,2,0.0
5.883965155999249,383,733.13,96.5,4.6,-38.0,-0.48,0.89,-0.12,0.08,0.87,-0.12,-158.3,-192.2,92.0,-0.19,5.11,0.11,0.0,0.8818730067305609,1.0182828683622247,0.11859803263902302,0.35,0,2,0.0
5.892501737998828,384,733.14,96.4,4.6,-38.1,-0.57,0.81,-0.17,0.05,0.86,-0.12,-160.2,-181.9,107.0,-0.14,4.79,-0.09,0.0,0.8697700845625813,1.004937809021036,0.1280869357108626,0.35,0,2,0.0
5.9039828709992435,385,733.15,96.4,4.5,-38.2,-0.37,0.68,-0.17,0.04,0.86,-0.12,-161.9,-171.2,101.0,-0.09,4.53,0.1,0.0,0.8692525524840292,0.7925906888173745,0.12603237843362636,0.35,0,2,0.0
5.912577670998871,386,733.16,96.4,4.5,-38.2,-0.04,0.49,-0.16,0.04,0.86,-0.12,-163.6,-160.9,102.0,-0.05,4.24,-0.02,0.0,0.8692525524840292,0.5170106381884225,0.12351173086495382,0.35,0,2,0.0
5.924318987999868,387,733.17,96.4,4.5,-38.3,0.16,0.28,-0.26,0.05,0.86,-0.14,-165.1,-149.8,110.0,-0.01,3.92,0.02,0.0,0.8727542609463445,0.41424630354415964,0.1176098219545858,0.35,0,2,0.0
5.93221640199954,388,733.18,96.5,4.4,-38.3,0.01,0.16,-0.37,0.06,0.87,-0.17,-166.5,-139.8,101.0,0.02,3.68,-0.26,0.0,0.8884818512496472,0.40323690307311905,0.09984458701825738,0.35,0,2,0.0
5.944348717999674,389,733.19,96.5,4.4,-38.3,-0.35,0.23,-0.52,0.09,0.86,-0.21,-167.9,-132.0,81.0,0.05,3.5,-0.22,0.0,0.889831444712986,0.667682559304944,0.09652509368382012,0.35,0,2,0.0
5.952422863998436,390,733.2,96.4,4.3,-38.4,-0.68,0.38,-0.66,0.12,0.84,-0.24,-169.1,-125.4,71.0,0.09,3.31,0.02,0.0,0.881816307401944,1.0209799214480175,0.1024494263749649,0.35,0,2,0.0
5.964150076999431,391,733.21,96.4,4.3,-38.4,-0.57,0.62,-0.72,0.15,0.83,-0.25,-170.3,-118.4,60.0,0.12,3.17,0.11,0.0,0.8797158632194829,1.1080162453682707,0.10245887314627755,0.35,0,2,0.0
5.972298703998604,392,733.22,96.3,4.2,-38.5,-0.15,0.79,-0.68,0.17,0.82,-0.26,-171.5,-112.9,54.0,0.15,3.01,-0.02,0.0,0.8768694315575153,1.0530906893520615,0.10319919871208028,0.35,0,2,0.0
5.984287385999778,393,733.23,96.3,4.2,-38.6,0.33,1.05,-0.61,0.19,0.81,-0.28,-172.6,-108.4,50.0,0.18,2.89,-0.09,0.0,0.8778382538941899,1.2583719640869309,0.10018576884789754,0.35,0,2,0.0
5.992367604998435,394,733.24,96.4,4.1,-38.7,0.64,1.32,-0.63,0.2,0.81,-0.29,-173.6,-103.8,43.0,0.21,2.77,0.17,0.0,0.8832893070789435,1.5965274817553252,0.09284002134988112,0.35,0,2,0.0
6.004138287999012,395,733.25,96.4,4.1,-38.9,0.74,1.72,-0.65,0.19,0.84,-0.32,-174.7,-100.0,43.0,0.23,2.66,-0.09,0.0,0.9187491496594704,1.9820443990990715,0.05623257519396707,0.35,0,2,0.0
6.012571578999996,396,733.26,96.5,4.0,-39.1,0.71,2.2,-0.58,0.16,0.87,-0.33,-175.6,-96.8,32.0,0.26,2.6,0.11,0.0,0.9441398201537736,2.3833799529239985,0.030225066605670592,0.35,0,2,0.0
6.024129224999342,397,733.27,96.5,4.0,-39.3,0.98,2.56,-0.42,0.12,0.92,-0.28,-176.6,-94.2,23.0,0.29,2.54,-0.01,0.0,0.9691233151668575,2.773157045679166,0.005136740160735065,0.35,0,2,0.0
6.03244218799955,398,733.28,96.7,4.0,-39.6,1.39,2.59,-0.16,0.07,0.98,-0.19,-177.5,-91.6,28.0,0.31,2.45,-0.01,0.0,1.00069975517135,2.9437730890814255,0.02591090584688227,0.35,0,2,0.0
6.044612441999561,399,733.29,96.9,4.0,-39.8,1.7,2.4,-0.01,0.02,1.02,-0.18,-178.4,-89.1,26.0,0.33,2.38,-0.09,0.0,1.0359536669175895,2.9411052344314372,0.0599415212412594,0.35,0,2,0.0
6.052399019999939,400,733.3,97.0,4.0,-40.1,1.42,2.15,0.14,-0.02,1.07,-0.19,-179.3,-85.0,39.0,0.36,2.25,0.0,0.0,1.086922260329597,2.5804069446503974,0.10869191236020148,0.35,0,2,0.0
6.064170508998359,401,733.31,97.1,4.1,-40.3,0.49,1.68,0.29,-0.06,1.04,-0.15,-180.1,-79.4,56.0,0.38,2.07,-0.18,0.0,1.0524732775705044,1.7738658348364453,0.07275807100908671,0.35,0,2,0.0
6.072367818998828,402,733.32,97.1,4.1,-40.4,-0.11,1.02,0.27,-0.07,0.99,-0.16,-180.8,-72.5,69.0,0.4,1.86,0.0,0.0,1.0052860289489753,1.060848716830067,0.0250594059398066,0.35,0,2,0.0
6.084376662998693,403,733.33,97.1,4.2,-40.4,0.01,0.42,0.11,-0.03,0.96,-0.24,-181.5,-65.4,67.0,0.42,1.7,0.1,0.0,0.99,0.43428101501216926,0.009577909451014666,0.35,0,2,0.0
6.092478962998939,404,733.34,97.1,4.2,-40.5,0.24,0.24,0.04,0.0,0.99,-0.3,-182.1,-58.3,73.0,0.43,1.48,-0.05,0.0,1.034456378974,0.34176014981270125,0.05295360265651439,0.35,0,2,0.0
6.104056982998372,405,733.35,97.1,4.2,-40.5,0.17,0.34,0.0,0.06,1.0,-0.37,-182.6,-46.3,117.0,0.44,1.08,0.06,0.0,1.0679419459877022,0.38013155617496425,0.08471038627681227,0.35,0,2,0.0
6.112576991999958,406,733.36,97.1,4.2,-40.6,0.11,0.95,0.06,0.11,1.06,-0.37,-183.0,-34.9,112.0,0.45,0.8,-0.1,0.0,1.12809574061779,0.9582275303913993,0.1419668972887621,0.35,0,2,0.0
6.12415231399973,407,733.37,97.1,4.2,-40.7,0.33,1.48,0.35,0.13,1.1,-0.34,-183.3,-24.6,86.0,0.46,0.61,-0.15,0.0,1.1586630226256467,1.5562133529821676,0.16908349571068637,0.35,0,2,0.0
6.132329917998504,408,733.38,97.2,4.3,-40.9,1.15,1.86,0.68,0.14,1.11,-0.32,-183.5,-18.5,74.0,0.46,0.41,-0.06,0.0,1.1636580253665594,2.290087334579186,0.17059692848256713,0.35,0,2,0.0
6.144597503998739,409,733.39,97.4,4.4,-41.0,2.08,1.85,0.86,0.14,1.12,-0.26,-183.6,-10.7,78.0,0.47,0.19,0.1,0.0,1.1582745788456208,2.913503046162815,0.16190921232239597,0.35,0,2,0.0
6.152400500999647,410,733.4,97.6,4.5,-41.2,2.05,1.53,0.82,0.15,1.14,-0.21,-183.7,-4.5,52.0,0.47,0.09,0.02,0.0,1.1688455843266894,2.6862241157431375,0.16903061344739523,0.35,0,2,0.0
6.164636524999878,411,733.41,97.8,4.7,-41.3,1.07,1.44,0.68,0.13,1.18,-0.17,-183.7,-3.1,23.0,0.47,0.07,0.02,0.0,1.199249765478401,1.9185671737002068,0.1954460987071247,0.35,0,2,0.0
6.1724822009982745,412,733.42,97.8,4.7,-41.5,-0.44,1.6,0.66,0.08,1.24,-0.09,-183.7,-1.6,20.0,0.47,0.01,0.07,0.0,1.2458330546265017,1.7858331389018405,0.23718880009812104,0.35,0,2,0.0
6.184012935998908,413,733.43,97.6,4.8,-41.6,-1.42,1.82,0.95,0.02,1.28,0.04,-183.7,0.5,11.0,0.47,0.0,-0.03,0.0,1.2807810117268292,2.4962571982870676,0.26669402205447956,0.35,0,2,0.0
6.192416427998978,414,733.44,97.5,5.0,-41.8,-1.36,1.74,1.48,-0.03,1.25,0.2,-183.7,0.2,5.0,0.47,0.0,-0.07,0.0,1.2662543188475213,2.6584958153060914,0.24712398259166823,0.35,0,2,0.0
6.20438810899941,415,733.45,97.4,5.2,-41.9,-0.67,1.24,2.0,-0.05,1.18,0.28,-183.7,1.8,21.0,0.47,-0.09,-0.07,0.0,1.2137956994486345,2.446732515008537,0.19077205592892588,0.35,0,2,0.0
6.212465296999653,416,733.46,97.3,5.4,-42.0,0.0,0.37,2.25,-0.03,1.07,0.33,-183.7,6.2,44.0,0.47,-0.25,0.01,0.0,1.1201339205648582,2.280219287700198,0.09516807150424644,0.35,0,2,0.0
6.224099727998691,417,733.47,97.4,5.6,-41.9,0.42,-0.63,2.08,0.0,0.97,0.31,-183.5,15.5,87.0,0.46,-0.56,0.01,0.0,1.0183319694480772,2.2135265979879257,0.006501202020283703,0.35,0,2,0.0
6.232547232999423,418,733.48,97.4,5.8,-41.8,0.67,-1.51,1.62,0.08,0.94,0.25,-183.3,25.8,96.0,0.45,-0.83,-0.11,0.0,0.9759610647971567,2.3137415586015653,0.04789466453778013,0.35,0,2,0.0
6.244430517999717,419,733.49,97.5,5.9,-41.6,0.99,-1.95,1.1,0.15,0.96,0.15,-183.0,39.1,130.0,0.44,-1.23,0.14,0.0,0.9831581764904364,2.447978758077774,0.03988360178761041,0.35,0,2,0.0
6.252220177999334,420,733.5,97.7,6.0,-41.4,1.44,-1.9,0.6,0.21,1.0,0.04,-182.5,55.9,167.0,0.43,-1.77,-0.08,0.0,1.0225947388873073,2.458373446000424,0.0004380986029246525,0.35,0,2,0.0
6.264567498999895,421,733.51,97.9,6.0,-41.2,1.83,-1.46,0.14,0.26,1.05,-0.02,-181.8,76.3,191.0,0.4,-2.31,-0.14,0.0,1.0818964830333815,2.345229199886442,0.05768637263228649,0.35,0,2,0.0
6.272460333999334,422,733.52,98.1,5.9,-41.1,1.94,-0.87,-0.22,0.28,1.12,-0.07,-180.9,95.7,194.0,0.38,-2.84,-0.1,0.0,1.1565898149300815,2.137498538011196,0.12973211043840682,0.35,0,2,0.0
6.284058962999552,423,733.53,98.3,5.9,-41.0,1.4,-0.24,-0.42,0.28,1.16,-0.1,-179.8,117.1,215.0,0.35,-3.47,-0.06,0.0,1.1974973903938162,1.481215716902842,0.1672268921840987,0.35,0,2,0.0
6.292476258999159,424,733.54,98.3,5.9,-41.1,0.55,0.3,-0.47,0.25,1.14,-0.12,-178.4,138.8,207.0,0.31,-4.01,-0.18,0.0,1.173243367763057,0.783198569968051,0.1401134121622727,0.35,0,2,0.0
6.304225366999162,425,733.55,98.3,5.8,-41.1,-0.09,0.75,-0.42,0.21,1.1,-0.12,-176.9,159.4,214.0,0.26,-4.61,-0.14,0.0,1.126277052949229,0.864291617453276,0.09128415540147583,0.35,0,2,0.0
6.312369203998969,426,733.56,98.3,5.9,-41.2,-0.4,1.12,-0.33,0.19,1.05,-0.09,-175.2,181.3,216.0,0.21,-5.2,-0.09,0.0,1.0708407911543154,1.234220401711137,0.035130935734430935,0.35,0,2,0.0
6.324414630998945,427,733.57,98.2,5.9,-41.4,-0.34,1.37,-0.24,0.16,1.01,-0.07,-173.2,204.9,230.0,0.16,-5.85,-0.05,0.0,1.024987804805501,1.431817027416562,0.010507609602095735,0.35,0,2,0.0
6.332329842000036,428,733.58,98.1,5.9,-41.5,-0.04,1.55,-0.24,0.12,0.97,-0.06,-171.0,228.5,228.0,0.09,-6.46,-0.1,0.0,0.9792343948207701,1.568980560746372,0.05513579919509015,0.35,0,2,0.0
6.3442017959987425,429,733.59,98.1,5.9,-41.7,0.24,1.58,-0.35,0.08,0.97,-0.03,-168.5,248.1,203.0,0.02,-6.98,-0.1,0.0,0.973755616158387,1.6360012224934308,0.05940228630032374,0.35,0,2,0.0
6.352341496998633,430,733.6,98.1,5.9,-41.8,0.17,1.43,-0.52,0.04,0.96,0.0,-165.9,267.6,209.0,-0.04,-7.56,-0.25,0.0,0.9608329719571451,1.5310780515702,0.07087843189153431,0.35,0,2,0.0
6.364155738998306,431,733.61,98.0,5.8,-42.0,-0.11,1.19,-0.77,0.02,0.94,0.0,-163.1,293.0,244.0,-0.12,-8.28,-0.32,0.0,0.9402127418834526,1.4216539663363936,0.08966868872592226,0.35,0,2,0.0
6.372334363999471,432,733.62,98.0,5.8,-42.1,-0.46,0.93,-1.02,0.0,0.94,0.02,-160.0,316.4,226.0,-0.21,-8.85,-0.08,0.0,0.9402127418834526,1.4549570440394453,0.08787531495140388,0.35,0,2,0.0
6.384564127998601,433,733.63,97.9,5.7,-42.2,-0.71,0.67,-1.16,-0.01,0.94,0.02,-156.7,335.2,195.0,-0.3,-9.33,-0.12,0.0,0.9402659198333203,1.5161134522191932,0.08606569426150545,0.35,0,2,0.0
6.392370746998495,434,733.64,97.8,5.6,-42.3,-0.78,0.5,-1.2,-0.01,0.94,0.01,-153.2,354.5,201.0,-0.4,-9.9,-0.02,0.0,0.9401063769595438,1.5160474926597782,0.08450073239257627,0.35,0,2,0.0
6.404393316999631,435,733.65,97.8,5.4,-42.3,-0.61,0.39,-1.11,0.0,0.94,-0.01,-149.5,373.3,183.0,-0.5,-10.36,0.0,0.0,0.9400531899844816,1.3252546925025395,0.08286284098028573,0.35,0,2,0.0
6.41252984699895,436,733.66,97.7,5.3,-42.4,-0.42,0.36,-0.92,0.01,0.95,-0.02,-145.6,394.1,210.0,-0.61,-10.99,-0.04,0.0,0.9502631214563679,1.0734989520255713,0.07119985131823148,0.35,0,2,0.0
6.42398642399894,437,733.67,97.7,5.3,-42.4,-0.32,0.3,-0.75,0.03,0.94,-0.04,-141.6,409.7,133.0,-0.72,-11.21,-0.13,0.0,0.9413288479590965,0.8688498144098323,0.07853144231919285,0.35,0,2,0.0
6.432491751998896,438,733.68,97.6,5.2,-42.5,-0.51,0.26,-0.61,0.06,0.93,-0.05,-137.4,418.2,125.0,-0.83,-11.55,-0.12,0.0,0.9332738076256079,0.8365404951345751,0.08485475299962786,0.35,0,2,0.0
6.444148936998317,439,733.69,97.5,5.1,-42.5,-0.76,0.24,-0.54,0.09,0.92,-0.06,-133.1,429.2,78.0,-0.95,-11.67,-0.06,0.0,0.9263368717696603,0.9627045237246993,0.08995585507846382,0.35,0,2,0.0
6.452563269998791,440,733.7,97.3,5.1,-42.5,-0.92,0.28,-0.55,0.1,0.91,-0.06,-128.8,430.1,62.0,-1.07,-11.83,0.03,0.0,0.917442096265481,1.107835727894709,0.09687361797099014,0.35,0,2,0.0
6.4640821869998035,441,733.71,97.2,5.0,-42.6,-0.95,0.4,-0.61,0.1,0.91,-0.06,-124.5,443.6,96.0,-1.19,-12.14,-0.08,0.0,0.917442096265481,1.1977478866606277,0.09493614561157027,0.35,0,2,0.0
6.472446261999721,442,733.72,97.1,5.0,-42.6,-0.93,0.56,-0.7,0.09,0.92,-0.06,-119.9,446.9,42.0,-1.31,-12.17,-0.08,0.0,0.9263368717696603,1.2917043005270208,0.08432054270524314,0.35,0,2,0.0
6.484572095998374,443,733.73,97.0,4.9,-42.7,-0.84,0.71,-0.76,0.07,0.93,-0.05,-115.5,452.4,58.0,-1.43,-12.37,-0.03,0.0,0.9339700209321496,1.3368993978605868,0.07515364567189875,0.35,0,2,0.0
6.492508463999911,444,733.74,96.8,4.9,-42.8,-0.92,0.83,-0.73,0.05,0.93,-0.06,-110.9,459.0,79.0,-1.56,-12.61,-0.16,0.0,0.9332738076256079,1.4381237777048261,0.07433286179887177,0.35,0,2,0.0
6.503935279999496,445,733.75,96.7,4.8,-42.9,-0.92,0.97,-0.64,0.02,0.93,-0.06,-106.2,469.0,58.0,-1.68,-12.74,0.14,0.0,0.9321480569094162,1.4821943192442752,0.07394944026476213,0.35,0,2,0.0
6.5123303509990365,446,733.76,96.6,4.7,-43.0,-0.79,1.04,-0.5,0.01,0.93,-0.06,-101.6,463.0,-31.0,-1.81,-12.5,0.04,0.0,0.9319871243745806,1.3984634424967999,0.07262816534360572,0.35,0,2,0.0
6.524594189999334,447,733.77,96.5,4.6,-43.1,-0.71,1.15,-0.33,0.0,0.94,-0.06,-96.6,451.1,-143.0,-1.94,-11.9,0.26,0.0,0.9419129471453294,1.3912224840046252,0.06144829572139976,0.35,0,2,0.0
6.53255388999969,448,733.78,96.3,4.6,-43.2,-0.91,1.04,-0.11,0.0,0.95,-0.05,-92.3,415.8,-314.0,-2.06,-10.78,0.15,0.0,0.9513148795220223,1.3862900129482287,0.051005436077812716,0.35,0,2,0.0
6.544010349000018,449,733.79,96.2,4.5,-43.3,-1.02,0.92,0.05,0.0,0.94,-0.07,-88.5,361.9,-547.0,-2.15,-8.88,0.5,0.0,0.9426027795418386,1.3745180973708568,0.058523185336836425,0.35,0,2,0.0
6.552492115999485,450,733.8,96.1,4.5,-43.4,-1.53,0.74,0.21,-0.01,0.96,-0.08,-85.5,274.7,-808.0,-2.22,-6.28,0.18,0.0,0.9633794683301071,1.7124835765635826,0.036991566617596616,0.35,0,2,0.0
6.563962162999815,451,733.81,95.9,4.5,-43.5,-2.0,0.4,0.3,-0.02,0.97,-0.06,-83.4,178.0,-906.0,-2.27,-3.67,0.47,0.0,0.97205966895042,2.0615528128088303,0.027745138677338077,0.35,0,2,0.0
6.572264405998794,452,733.82,95.7,4.5,-43.5,-2.11,-0.12,0.26,-0.01,0.98,-0.07,-82.3,83.9,-912.0,-2.29,-1.19,0.19,0.0,0.98254770876533,2.129342621561875,0.016911956885179436,0.35,0,2,0.0
6.584144206999554,453,733.83,95.4,4.5,-43.5,-2.49,-0.47,0.15,0.01,1.02,-0.11,-82.0,-0.7,-796.0,-2.28,0.76,0.25,0.0,1.0259629622944486,2.5384050110256244,0.02597323071106039,0.35,0,2,0.0
6.592455126999994,454,733.84,95.2,4.4,-43.4,-3.09,-0.39,0.13,0.06,1.02,-0.17,-82.4,-45.2,-486.0,-2.27,1.58,0.07,0.0,1.0358088626768938,3.1172263312117714,0.035102748471635525,0.35,0,2,0.0
6.604097016999731,455,733.85,94.9,4.5,-43.4,-3.46,0.06,0.23,0.08,0.94,-0.2,-83.0,-73.3,-349.0,-2.25,2.32,0.21,0.0,0.9643650760992954,3.4681551291717043,0.03561421734384351,0.35,0,2,0.0
6.612315899999885,456,733.86,94.6,4.5,-43.4,-2.64,0.48,0.32,0.07,0.81,-0.13,-84.0,-100.6,-299.0,-2.22,3.07,-0.1,0.0,0.8233468284993877,2.702295320648726,0.1730998156448763,0.35,0,2,0.0
6.624211005999314,457,733.87,94.5,4.5,-43.5,-1.41,0.47,0.34,0.06,0.76,-0.09,-85.2,-128.7,-286.0,-2.18,3.82,0.1,0.0,0.7676587783644502,1.5246638973885358,0.22421210846421757,0.35,0,2,0.0
6.6325572569985525,458,733.88,94.4,4.6,-43.5,-0.34,0.28,0.38,0.06,0.77,-0.14,-86.6,-155.6,-268.0,-2.14,4.53,0.04,0.0,0.7849203781276162,0.5817215828899596,0.2028114985270305,0.35,0,2,0.0
6.644319411998367,459,733.89,94.5,4.6,-43.5,0.86,0.0,0.4,0.07,0.82,-0.15,-88.4,-180.7,-249.0,-2.09,5.18,0.04,0.0,0.836540495134575,0.94847245611035,0.1481675538896703,0.35,0,2,0.0
6.652541574998395,460,733.9,94.7,4.7,-43.5,1.5,-0.33,0.39,0.08,0.92,-0.19,-90.3,-201.2,-205.0,-2.04,5.66,-0.02,0.0,0.9428149341201592,1.5846135175493108,0.0410552526060044,0.35,0,2,0.0
6.664187996999317,461,733.91,94.9,4.7,-43.4,1.17,-0.48,0.35,0.07,1.0,-0.24,-92.4,-215.7,-157.0,-1.98,6.02,0.06,0.0,1.0307764064044151,1.312173768980313,0.045968095284686594,0.35,0,2,0.0
6.672374657999171,462,733.92,95.0,4.7,-43.4,0.22,-0.49,0.29,0.05,1.03,-0.25,-94.7,-227.3,-129.0,-1.91,6.32,0.01,0.0,1.0610843510296435,0.6104096984812741,0.0747505191117166,0.35,0,2,0.0
6.684229845999653,463,733.93,95.0,4.8,-43.3,-0.71,-0.57,0.24,0.02,1.01,-0.22,-97.0,-238.6,-109.0,-1.85,6.59,0.06,0.0,1.0338762014864256,0.9415943925066673,0.0465915221771287,0.35,0,2,0.0
6.692563363998488,464,733.94,94.9,4.8,-43.2,-1.04,-0.82,0.2,0.0,0.96,-0.19,-99.5,-245.2,-70.0,-1.78,6.71,-0.2,0.0,0.9786214794290998,1.3394028520202577,0.008489935882593058,0.35,0,2,0.0
6.704117519999272,465,733.95,94.8,4.8,-43.1,-0.96,-1.14,0.15,-0.01,0.92,-0.19,-101.9,-246.4,-19.0,-1.72,6.69,-0.02,0.0,0.9394679345246436,1.4978985279383912,0.04669061117130824,0.35,0,2,0.0
6.712374049999198,466,733.96,94.7,4.8,-43.0,-0.65,-1.46,0.13,-0.01,0.9,-0.19,-104.4,-245.3,0.0,-1.65,6.65,-0.14,0.0,0.9198912979260104,1.6034338152851835,0.0649419028145426,0.35,0,2,0.0
6.724176683999758,467,733.97,94.7,4.8,-42.8,-0.24,-1.77,0.09,-0.01,0.88,-0.18,-106.8,-243.5,20.0,-1.58,6.56,-0.12,0.0,0.8982761268117949,1.7884630272946658,0.084825932450183,0.35,0,2,0.0
6.732566458998917,468,733.98,94.7,4.8,-42.6,0.13,-2.08,0.0,0.0,0.86,-0.19,-109.2,-237.7,53.0,-1.52,6.37,-0.05,0.0,0.8807383266328314,2.0840585404445817,0.10031645797656363,0.35,0,2,0.0
6.744066190000012,469,733.99,94.7,4.7,-42.4,0.44,-2.33,-0.13,0.01,0.86,-0.22,-111.6,-229.4,78.0,-1.46,6.11,-0.06,0.0,0.8877499647986475,2.3747420912595962,0.09143872341453252,0.35,0,2,0.0
6.752532164999138,470,734.0,94.8,4.7,-42.2,0.69,-2.5,-0.19,0.04,0.87,-0.23,-112.9,-223.9,101.0,-1.4,5.92,-0.08,0.0,0.9007774419910837,2.600423042506738,0.07684302129765441,0.35,0,2,0.0
6.763945541999419,471,734.01,94.9,4.7,-41.9,0.98,-2.6,-0.21,0.07,0.87,-0.25,-115.7,-212.1,111.0,-1.35,5.62,0.0,0.0,0.9079096871385391,2.786485241303101,0.06831656062719493,0.35,0,2,0.0
6.772552479998922,472,734.02,95.1,4.6,-41.7,1.37,-2.57,-0.26,0.1,0.85,-0.28,-117.8,-198.4,137.0,-1.29,5.19,-0.14,0.0,0.900499861188218,2.9239357038074556,0.0742118588459657,0.35,0,2,0.0
6.7839975689985295,473,734.03,95.3,4.6,-41.4,1.98,-2.43,-0.41,0.12,0.86,-0.3,-119.6,-182.2,158.0,-1.24,4.74,0.0,0.0,0.918694726228468,3.1612339362976605,0.05489665392960141,0.35,0,2,0.0
6.7925595059987245,474,734.04,95.5,4.5,-41.2,2.38,-2.23,-0.52,0.15,0.92,-0.3,-121.3,-164.2,172.0,-1.2,4.24,-0.11,0.0,0.9792343948207701,3.3026807293469953,0.005530154369446705,0.35,0,2,0.0
6.804182967998713,475,734.05,95.8,4.4,-41.0,2.34,-2.03,-0.51,0.17,0.98,-0.28,-122.8,-144.7,194.0,-1.16,3.66,-0.12,0.0,1.0332956982393762,3.139522256649887,0.058399628632291645,0.35,0,2,0.0
6.812530403998608,476,734.06,96.0,4.3,-40.8,2.45,-1.78,-0.52,0.2,1.01,-0.23,-124.1,-123.8,201.0,-1.13,3.12,0.0,0.0,1.0549881515922348,3.0726698488448125,0.07849024034544727,0.35,0,2,0.0
6.823991207998915,477,734.07,96.3,4.3,-40.6,2.54,-1.55,-0.58,0.21,1.08,-0.15,-125.2,-103.0,209.0,-1.1,2.54,0.0,0.0,1.110405331399305,3.0315837445137483,0.13122927174946708,0.35,0,2,0.0
6.832397225998648,478,734.08,96.5,4.3,-40.5,2.51,-1.49,-0.75,0.2,1.11,-0.08,-126.1,-81.6,210.0,-1.08,1.96,-0.05,0.0,1.1307077429645558,3.0137518145992046,0.1485010496484236,0.35,0,2,0.0
6.844185382999058,479,734.09,96.8,4.1,-40.4,2.17,-1.57,-1.04,0.18,1.14,0.0,-126.8,-60.6,211.0,-1.06,1.38,-0.09,0.0,1.1541230437002805,2.8732211888401493,0.16847802337646534,0.35,0,2,0.0
6.852594338999552,480,734.1,97.0,4.0,-40.2,1.44,-1.83,-1.36,0.18,1.14,0.07,-127.2,-35.8,251.0,-1.05,0.63,-0.04,0.0,1.1562439189029277,2.696683147868878,0.16718692060753026,0.35,0,2,0.0
6.86410412999976,481,734.11,97.1,3.8,-40.0,0.77,-1.99,-1.69,0.19,1.12,0.1,-127.4,-6.5,277.0,-1.05,-0.16,-0.12,0.0,1.140394668524893,2.7219662011127177,0.1483109168249056,0.35,0,2,0.0
6.872526774999642,482,734.12,97.2,3.6,-39.9,0.48,-1.85,-2.01,0.18,1.11,0.09,-127.3,14.5,200.0,-1.06,-0.56,-0.06,0.0,1.12809574061779,2.7736257858622526,0.13329174913944675,0.35,0,2,0.0
6.884070426998733,483,734.13,97.2,3.4,-39.7,0.28,-1.51,-2.17,0.14,1.11,0.09,-127.1,24.6,122.0,-1.07,-0.77,-0.09,0.0,1.122408125416063,2.6584581997842283,0.12505205125896524,0.35,0,2,0.0
6.892539799999213,484,734.14,97.2,3.2,-39.6,0.17,-1.19,-2.09,0.08,1.09,0.1,-126.8,29.4,53.0,-1.07,-0.79,-0.05,0.0,1.0974971526158963,2.411037121240567,0.09813825688962263,0.35,0,2,0.0
6.904066750999846,485,734.15,97.3,2.9,-39.5,0.64,-1.14,-1.91,0.0,1.05,0.14,-126.5,28.3,3.0,-1.08,-0.72,-0.06,0.0,1.059292216529509,2.3145841959194313,0.058734654387170515,0.35,0,2,0.0
6.912502469998799,486,734.16,97.4,2.7,-39.4,1.34,-1.38,-1.7,-0.04,1.05,0.14,-126.3,20.7,-72.0,-1.09,-0.41,0.11,0.0,1.0600471687618434,2.567099530598687,0.058299814487114965,0.35,0,2,0.0
6.9241678250000405,487,734.17,97.6,2.6,-39.3,2.06,-2.0,-1.5,-0.08,1.1,0.11,-126.1,9.2,-97.0,-1.09,-0.1,0.34,0.0,1.1083771921146701,3.239382657235789,0.10449724108314284,0.35,0,2,0.0
6.932618252998509,488,734.18,97.8,2.4,-39.1,2.32,-2.54,-1.28,-0.09,1.21,0.05,-126.1,-1.6,-86.0,-1.09,0.1,0.19,0.0,1.214372265822964,3.6704768082634716,0.20628246849560816,0.35,0,2,0.0
6.944569331999446,489,734.19,98.0,2.2,-38.8,1.91,-2.88,-0.9,-0.07,1.32,-0.02,-126.1,-2.7,-24.0,-1.09,0.06,0.12,0.0,1.3220060514233662,3.571064267133819,0.30763792901409004,0.35,0,2,0.0
6.95238459599932,490,734.2,98.2,2.1,-38.5,1.11,-3.1,-0.4,-0.02,1.38,-0.06,-126.2,-3.5,-22.0,-1.09,0.13,-0.05,0.0,1.3814485151463298,3.3169413621588193,0.3597387848823126,0.35,0,3,0.0
6.964091988998916,491,734.21,98.2,2.1,-38.2,0.19,-3.25,0.07,0.03,1.35,-0.1,-126.2,-8.7,-62.0,-1.08,0.36,0.25,0.0,1.3540310188470572,3.2563015830847117,0.32567486281137925,0.35,0,3,0.0
6.972542112998781,492,734.22,98.2,2.1,-37.9,-0.73,-3.23,0.42,0.09,1.3,-0.11,-126.4,-21.6,-112.0,-1.08,0.75,-0.05,0.0,1.3077461527376022,3.337993409220575,0.27380219676788564,0.35,0,3,0.0
6.9839557639988925,493,734.23,98.0,2.1,-37.6,-1.43,-3.13,0.7,0.12,1.21,-0.12,-126.7,-36.3,-141.0,-1.07,1.19,0.12,0.0,1.2218428704215611,3.5116662711596045,0.1841409361628077,0.35,0,3,0.0
6.992318994000016,494,734.24,97.9,2.2,-37.2,-1.7,-2.99,0.93,0.13,1.14,-0.12,-127.2,-53.7,-162.0,-1.05,1.67,0.12,0.0,1.1536463929644991,3.5630043502639737,0.11362556953163083,0.35,0,3,0.0
7.004206604999126,495,734.25,97.7,2.3,-36.9,-1.54,-2.9,1.13,0.13,1.07,-0.1,-127.9,-74.0,-206.0,-1.03,2.3,0.04,0.0,1.0824971131601229,3.4725350970148594,0.041626763932709476,0.35,0,3,0.0
7.012600442998519,496,734.26,97.5,2.4,-36.6,-1.42,-2.72,1.23,0.12,1.0,-0.09,-128.8,-97.9,-238.0,-1.0,3.0,0.04,0.0,1.0111874208078342,3.305707186064731,0.029089269851187538,0.35,0,3,0.0
7.0241736419993686,497,734.27,97.4,2.6,-36.4,-1.53,-2.61,1.23,0.12,0.94,-0.07,-130.0,-126.5,-268.0,-0.97,3.78,0.2,0.0,0.9502105029939418,3.265868950218303,0.08826486391177824,0.35,0,3,0.0
7.032549095998547,498,734.28,97.2,2.6,-36.1,-1.39,-2.53,1.15,0.12,0.9,-0.05,-131.4,-156.1,-293.0,-0.92,4.62,0.03,0.0,0.9093404203047393,3.1073300436226594,0.12655224766896112,0.35,0,3,0.0
7.044136846998299,499,734.29,97.1,2.7,-35.8,-1.04,-2.39,1.1,0.15,0.9,-0.07,-133.2,-186.3,-297.0,-0.87,5.43,0.05,0.0,0.9150956234186677,2.8290811229089914,0.11838110366393206,0.35,0,3,0.0
7.052621721999458,500,734.3,97.0,2.8,-35.6,-0.92,-2.08,1.2,0.17,0.9,-0.1,-135.3,-212.8,-259.0,-0.81,6.06,0.08,0.0,0.9213576938409969,2.571536505671269,0.10987665257677093,0.35,0,3,0.0
7.064059180998811,501,734.31,97.0,2.9,-35.4,-0.76,-1.63,1.36,0.19,0.9,-0.11,-137.5,-233.2,-205.0,-0.75,6.53,-0.01,0.0,0.926390846241477,2.2547948908936264,0.10274663017276497,0.35,0,3,0.0
7.072543201998997,502,734.32,96.9,3.0,-35.2,-0.52,-1.19,1.45,0.21,0.88,-0.08,-140.0,-247.6,-153.0,-0.68,6.86,-0.02,0.0,0.9082400563727632,1.9465353837010002,0.11847947164064931,0.35,0,3,0.0
7.0840801619997364,503,734.33,96.9,3.2,-35.1,-0.38,-0.88,1.42,0.24,0.86,-0.09,-142.5,-259.2,-116.0,-0.61,7.13,-0.34,0.0,0.8973850901368932,1.7132425397473645,0.126747749118989,0.35,0,3,0.0
7.092559935999816,504,734.34,96.8,3.3,-35.0,-0.28,-0.49,1.32,0.25,0.85,-0.1,-145.4,-263.9,-50.0,-0.53,7.17,-0.33,0.0,0.8916277250063503,1.4355835050598764,0.12985501196454108,0.35,0,3,0.0
7.104102040999351,505,734.35,96.8,3.4,-35.0,-0.2,-0.08,1.19,0.25,0.84,-0.11,-148.0,-261.1,11.0,-0.46,7.03,0.06,0.0,0.8832893070789434,1.2093386622447824,0.135429561294109,0.35,0,3,0.0
7.112435692999497,506,734.36,96.8,3.5,-35.0,0.01,0.33,0.98,0.25,0.83,-0.13,-150.6,-256.4,36.0,-0.39,6.9,-0.18,0.0,0.8765272385955841,1.034117981663601,0.13934779718191892,0.35,0,3,0.0
7.124122863999219,507,734.37,96.8,3.6,-35.0,0.19,0.73,0.72,0.23,0.83,-0.15,-153.1,-248.9,81.0,-0.32,6.6,0.03,0.0,0.8742425292789181,1.0427847332982967,0.13879985636861314,0.35,0,3,0.0
7.132526987999881,508,734.38,96.8,3.7,-35.1,0.02,1.17,0.46,0.2,0.85,-0.15,-155.5,-236.4,118.0,-0.26,6.23,0.05,0.0,0.8860022573334675,1.2573384588089238,0.12449932574778255,0.35,0,3,0.0
7.143999113999598,509,734.39,96.8,3.7,-35.3,-0.16,1.47,0.35,0.15,0.87,-0.15,-157.8,-221.0,140.0,-0.2,5.82,-0.02,0.0,0.8954886933959579,1.5195394038984313,0.1127126318915862,0.35,0,3,0.0
7.152289684998323,510,734.4,96.8,3.8,-35.4,-0.38,1.53,0.34,0.11,0.89,-0.11,-159.8,-205.8,156.0,-0.14,5.37,-0.03,0.0,0.9034932207825358,1.6127306036657207,0.10261394241490807,0.35,0,3,0.0
7.164100711999708,511,734.41,96.7,3.9,-35.6,-0.4,1.56,0.31,0.07,0.87,-0.12,-161.8,-188.2,170.0,-0.09,4.89,-0.07,0.0,0.8810221336606703,1.6400304875214973,0.12258332894603807,0.35,0,3,0.0
7.172597588998542,512,734.42,96.7,4.0,-35.7,-0.27,1.44,0.23,0.04,0.86,-0.1,-163.6,-169.0,190.0,-0.05,4.34,-0.09,0.0,0.8667179472008181,1.4830374236680612,0.13414976509777243,0.35,0,3,0.0
7.184079332999318,513,734.43,96.7,4.0,-35.8,-0.22,1.16,0.09,0.03,0.83,-0.11,-165.1,-148.9,203.0,-0.01,3.77,-0.12,0.0,0.8377947242612596,1.184103036057251,0.1598115282765843,0.35,0,3,0.0
7.192562442998678,514,734.44,96.7,4.0,-35.9,-0.14,0.92,-0.12,0.02,0.82,-0.14,-166.5,-130.7,181.0,0.02,3.34,-0.31,0.0,0.8321057625085887,0.938296328459192,0.16219048022867,0.35,0,3,0.0
7.204146005999064,515,734.45,96.7,3.9,-36.0,-0.17,0.76,-0.32,0.04,0.81,-0.2,-167.7,-114.5,166.0,0.05,2.91,0.0,0.0,0.8352843827104636,0.841961994391671,0.15583162282625918,0.35,0,3,0.0
7.212519449998581,516,734.46,96.7,3.9,-36.1,-0.18,0.78,-0.45,0.07,0.8,-0.25,-168.7,-101.6,124.0,0.07,2.65,0.04,0.0,0.8410707461325713,0.918313671900838,0.14704435421606843,0.35,0,3,0.0
7.223773744999562,517,734.47,96.7,3.9,-36.2,0.06,0.89,-0.52,0.1,0.79,-0.29,-169.7,-92.3,106.0,0.09,2.4,-0.24,0.0,0.8474668135095321,1.0325211862233143,0.13783532110232544,0.35,0,3,0.0
7.231976410999778,518,734.48,96.7,3.8,-36.3,0.58,1.03,-0.58,0.13,0.8,-0.31,-170.5,-82.3,96.0,0.12,2.13,0.02,0.0,0.8677557259966655,1.3167004215082487,0.11519548044288819,0.35,0,3,0.0
7.243923502999678,519,734.49,96.8,3.8,-36.4,1.19,1.24,-0.58,0.16,0.87,-0.32,-171.3,-75.9,60.0,0.14,2.03,0.04,0.0,0.9406912352095134,1.8138632804045622,0.04141477180543951,0.35,0,3,0.0
7.252213427998868,520,734.5,96.9,3.7,-36.6,1.23,1.5,-0.49,0.18,0.94,-0.34,-172.0,-72.1,49.0,0.16,1.89,-0.21,0.0,1.0156771140475698,2.0007498594277098,0.0328996848919646,0.35,0,3,0.0
7.264109990999714,521,734.51,97.0,3.7,-36.7,0.89,1.78,-0.39,0.18,0.99,-0.31,-172.7,-68.2,42.0,0.18,1.8,0.01,0.0,1.0529007550571896,2.02795463460108,0.06872085938355277,0.35,0,3,0.0
7.272467962999144,522,734.52,97.0,3.7,-36.9,0.34,1.89,-0.36,0.17,1.0,-0.28,-173.4,-65.3,25.0,0.2,1.77,0.03,0.0,1.0522832318344715,1.9537911863860988,0.06674126943761793,0.35,0,3,0.0
7.284346594999079,523,734.53,97.0,3.7,-37.1,-0.23,1.97,-0.37,0.14,1.02,-0.27,-174.0,-65.9,4.0,0.21,1.79,0.0,0.0,1.064377752492037,2.017597581283245,0.07725907429327983,0.35,0,3,0.0
7.292511478999586,524,734.54,97.0,3.7,-37.3,-0.79,2.04,-0.22,0.1,1.05,-0.23,-174.7,-64.9,13.0,0.23,1.73,0.15,0.0,1.0795369377654476,2.1986586820150142,0.09056989437535656,0.35,0,3,0.0
7.303983904999768,525,734.55,96.9,3.7,-37.5,-1.05,1.94,-0.03,0.05,1.02,-0.2,-175.3,-64.4,4.0,0.25,1.73,0.02,0.0,1.0406248123122954,2.2061278294786093,0.050624613543760355,0.35,0,3,0.0
7.3125188409994735,526,734.56,96.8,3.7,-37.7,-0.98,1.67,0.03,0.02,0.98,-0.17,-176.0,-64.1,1.0,0.27,1.75,0.17,0.0,0.994836670011716,1.936543312193146,0.004739741818317378,0.35,0,3,0.0
7.32423777799886,527,734.57,96.7,3.7,-37.8,-0.93,1.31,0.04,0.0,0.98,-0.17,-176.6,-63.8,0.0,0.28,1.73,-0.03,0.0,0.9946356116689167,1.6070469812671937,0.004447909806007622,0.35,0,3,0.0
7.332547340998644,528,734.58,96.7,3.7,-37.9,-1.08,0.91,0.04,0.01,0.94,-0.19,-177.2,-62.7,22.0,0.3,1.64,-0.41,0.0,0.9590620417887468,1.412834031300209,0.030503146872679077,0.35,0,3,0.0
7.343930007999006,529,734.59,96.6,3.7,-38.0,-1.22,0.73,-0.02,0.03,0.9,-0.24,-177.9,-58.8,29.0,0.32,1.56,0.1,0.0,0.931933474020544,1.421864972492114,0.05647908034806415,0.35,0,3,0.0
7.35260209199987,530,734.6,96.4,3.7,-38.1,-1.03,0.79,-0.17,0.08,0.86,-0.3,-178.4,-55.8,32.0,0.33,1.48,0.16,0.0,0.9143303560529967,1.3091600360536522,0.07260055434929924,0.35,0,3,0.0
7.364122131999466,531,734.61,96.4,3.7,-38.2,-0.48,1.16,-0.36,0.14,0.84,-0.36,-178.9,-51.5,40.0,0.34,1.35,-0.12,0.0,0.9245539465060975,1.3059862173851606,0.06112942461827453,0.35,0,3,0.0
7.372464864998619,532,734.62,96.3,3.6,-38.4,0.31,1.86,-0.43,0.2,0.88,-0.38,-179.4,-47.7,39.0,0.36,1.24,0.0,0.0,0.9791833331914918,1.9340630806672259,0.006370037174222576,0.35,0,3,0.0
7.384214181000061,533,734.63,96.4,3.6,-38.6,1.07,2.52,-0.42,0.22,0.92,-0.33,-179.9,-44.4,32.0,0.37,1.17,-0.21,0.0,1.0018482919085105,2.769783385032122,0.01596902311194026,0.35,0,3,0.0
7.392443056000047,534,734.64,96.5,3.6,-38.9,2.04,3.09,-0.38,0.24,1.02,-0.32,-180.3,-40.5,37.0,0.38,1.06,0.04,0.0,1.095627673984187,3.7221096168705188,0.10755343708386444,0.35,0,3,0.0
7.404109292998328,535,734.65,96.7,3.6,-39.2,2.22,3.51,-0.13,0.21,1.14,-0.29,-180.7,-37.3,27.0,0.39,0.99,0.19,0.0,1.1949058540320237,4.155165460002766,0.202694984789067,0.35,0,3,0.0
7.412446862999786,536,734.66,96.9,3.7,-39.6,1.91,3.7,0.21,0.15,1.2,-0.25,-181.0,-33.0,48.0,0.4,0.83,-0.14,0.0,1.2349089035228469,4.16919656528689,0.23784407359429238,0.35,0,3,0.0
7.424168902998645,537,734.67,97.1,3.8,-39.9,1.39,3.6,0.49,0.09,1.21,-0.17,-181.3,-29.1,44.0,0.41,0.71,0.07,0.0,1.2251938622112013,3.8900128534492016,0.22356645163699396,0.35,0,3,0.0
7.432544738998331,538,734.68,97.2,3.9,-40.3,0.7,3.09,0.64,0.03,1.21,-0.06,-181.6,-23.9,48.0,0.41,0.58,0.03,0.0,1.2118580774991765,3.232290209742931,0.20602605358646975,0.35,0,3,0.0
7.443972541999756,539,734.69,97.2,4.0,-40.5,-0.12,2.47,0.72,-0.03,1.22,-0.01,-181.8,-16.5,89.0,0.42,0.27,-0.13,0.0,1.220409767250328,2.5755970181687977,0.21028618847086888,0.35,0,3,0.0
7.452173681998829,540,734.7,97.1,4.1,-40.7,-1.04,2.05,0.87,-0.09,1.22,0.04,-181.9,-1.8,123.0,0.42,-0.09,0.21,0.0,1.223968953854631,2.457844584183467,0.20956846757366843,0.35,0,3,0.0
7.464051801998721,541,734.71,96.9,4.2,-40.9,-1.52,1.83,1.14,-0.15,1.19,0.15,-181.8,4.9,60.0,0.42,-0.14,-0.04,0.0,1.2087596948939023,2.6379727064547125,0.190472024440681,0.35,0,3,0.0
7.476009390999025,542,734.72,96.8,4.4,-41.1,-1.38,1.36,1.41,-0.19,1.11,0.25,-181.8,5.9,30.0,0.41,-0.17,-0.04,0.0,1.1535597080342224,2.3962679315969657,0.132566596829381,0.35,0,3,0.0
7.484505886999614,543,734.73,96.6,4.5,-41.1,-0.77,0.74,1.6,-0.17,1.04,0.28,-181.7,7.7,26.0,0.41,-0.24,-0.21,0.0,1.0903669107231748,1.9236683705878206,0.06798632352796674,0.35,0,3,0.0
7.492601391999415,544,734.74,96.6,4.7,-41.2,0.07,0.07,1.71,-0.12,1.01,0.29,-181.6,13.8,62.0,0.41,-0.48,0.27,0.0,1.057638879769461,1.7128631001921897,0.03455312672276789,0.35,0,3,0.0
7.50431500599916,545,734.75,96.7,4.9,-41.1,0.87,-0.62,1.79,-0.02,1.01,0.25,-181.4,25.0,116.0,0.4,-0.88,0.17,0.0,1.0406728592598156,2.084562304178026,0.01723536408886006,0.35,0,3,0.0
7.512571702000059,546,734.76,96.8,5.0,-41.0,1.37,-1.09,1.9,0.07,1.04,0.17,-181.0,40.5,152.0,0.39,-1.35,-0.06,0.0,1.0561249926026748,2.583602136552763,0.03203374748308496,0.35,0,3,0.0
7.524088863998259,547,734.77,97.0,5.2,-40.8,1.73,-1.31,1.96,0.16,1.05,0.08,-180.5,60.6,184.0,0.37,-1.89,0.01,0.0,1.0651291001564083,2.9241408994779987,0.04021709793608208,0.35,0,3,0.0
7.532484187999216,548,734.78,97.2,5.4,-40.7,2.14,-1.3,1.9,0.23,1.07,0.02,-179.7,81.3,211.0,0.35,-2.51,-0.23,0.0,1.0946232228488486,3.1431830999800185,0.068316996215952,0.35,0,3,0.0
7.544192633999046,549,734.79,97.4,5.6,-40.5,2.34,-1.13,1.74,0.28,1.1,-0.05,-178.8,102.3,201.0,0.32,-2.99,-0.09,0.0,1.136177802986839,3.127315142418493,0.10767414482686366,0.35,0,3,0.0
7.552589400998841,550,734.8,97.7,5.7,-40.4,1.99,-0.8,1.48,0.29,1.12,-0.12,-177.6,123.0,209.0,0.29,-3.61,-0.07,0.0,1.1631422956801116,2.605858783587476,0.13194586476973358,0.35,0,3,0.0
7.564131009999983,551,734.81,97.8,5.8,-40.4,1.35,-0.35,1.09,0.27,1.11,-0.17,-176.2,145.2,221.0,0.24,-4.22,-0.03,0.0,1.1549458861782227,1.7700564962734948,0.12127446616248783,0.35,0,3,0.0
7.572521969999798,552,734.82,97.9,5.9,-40.3,0.72,0.13,0.62,0.25,1.1,-0.17,-174.6,168.0,234.0,0.2,-4.87,-0.22,0.0,1.1407892005098927,0.9590099061010788,0.10497542488427469,0.35,0,3,0.0
7.584043850998569,553,734.83,98.0,6.0,-40.4,0.11,0.54,0.22,0.22,1.06,-0.17,-172.7,193.0,241.0,0.14,-5.54,-0.15,0.0,1.0958558299338468,0.5933801479658719,0.05884121322206415,0.35,0,3,0.0
7.608322812999177,555,734.85,97.9,6.1,-40.6,-0.19,1.17,-0.45,0.14,0.98,-0.1,-168.3,238.1,214.0,0.02,-6.72,-0.26,0.0,0.9949874371066199,1.2678722333105965,0.0411866360130595,0.35,0,3,0.0
7.616516308999053,556,734.86,97.9,6.0,-40.7,0.07,1.35,-0.73,0.1,0.96,-0.05,-165.8,260.0,234.0,-0.04,-7.4,0.07,0.0,0.9664884893261791,1.536326788154135,0.06829187211763021,0.35,0,3,0.0
7.6245916439984285,557,734.87,97.8,5.9,-40.8,0.45,1.39,-0.93,0.07,0.95,-0.03,-163.0,286.6,263.0,-0.12,-8.14,-0.1,0.0,0.9530477427705287,1.7319064639870132,0.08009796629981503,0.35,0,3,0.0
7.632285828000022,558,734.88,97.9,5.9,-41.0,0.69,1.33,-1.03,0.03,0.95,-0.02,-159.9,311.4,234.0,-0.21,-8.72,-0.11,0.0,0.9506839643120104,1.8182134088164679,0.08081250986316668,0.35,0,3,0.0
7.6441777189993445,559,734.89,97.9,5.8,-41.1,0.67,1.21,-1.04,0.01,0.94,-0.02,-156.7,330.9,214.0,-0.3,-9.26,-0.11,0.0,0.9402659198333203,1.7304912597294446,0.0894059432550196,0.35,0,3,0.0
7.652444981998997,560,734.9,98.0,5.7,-41.3,0.51,0.97,-0.96,0.0,0.92,-0.01,-153.2,352.9,226.0,-0.4,-9.9,-0.07,0.0,0.9200543462209175,1.4569145479402696,0.10742516653007395,0.35,0,3,0.0
7.664106072999857,561,734.91,98.0,5.6,-41.4,0.31,0.66,-0.89,0.0,0.89,-0.01,-149.6,374.7,216.0,-0.5,-10.45,-0.05,0.0,0.8900561780022652,1.150565078559227,0.13467486805375184,0.35,0,3,0.0
7.672509387999526,562,734.92,98.0,5.5,-41.4,0.27,0.4,-0.87,0.0,0.87,-0.02,-145.6,401.8,270.0,-0.61,-11.29,-0.03,0.0,0.8702298546935746,0.9948869282486327,0.15141116753519357,0.35,0,3,0.0
7.684045479998531,563,734.93,98.0,5.4,-41.5,0.3,0.09,-0.92,-0.01,0.85,-0.01,-141.4,425.0,205.0,-0.72,-11.72,0.01,0.0,0.8501176389182852,0.9718538984847466,0.16809291564427342,0.35,0,3,0.0
7.6924720049992175,564,734.94,98.1,5.3,-41.5,0.26,-0.22,-1.0,-0.01,0.84,0.0,-137.1,442.5,217.0,-0.85,-12.34,-0.47,0.0,0.8400595217006946,1.0564090116995406,0.17458801220462672,0.35,0,3,0.0
7.704036155999347,565,734.95,98.1,5.2,-41.4,0.14,-0.52,-1.08,-0.01,0.86,-0.01,-132.5,460.7,139.0,-0.97,-12.57,0.0,0.0,0.860116271209887,1.2068139873236472,0.1514406374415257,0.35,0,3,0.0
7.712539282998478,566,734.96,98.1,5.1,-41.4,-0.07,-0.69,-1.1,0.0,0.89,-0.04,-127.8,468.8,142.0,-1.1,-12.98,0.28,0.0,0.8908984229416954,1.3003845585056752,0.11824531599552301,0.35,0,3,0.0
7.723907062998478,567,734.97,98.1,5.0,-41.3,-0.31,-0.69,-1.05,0.02,0.91,-0.06,-123.1,481.3,74.0,-1.23,-13.04,-0.04,0.0,0.9121951545584969,1.2941020052530636,0.09500961269114716,0.35,0,3,0.0
7.732426603999556,568,734.98,98.0,4.9,-41.3,-0.63,-0.61,-0.95,0.04,0.92,-0.08,-118.2,478.7,16.0,-1.36,-13.03,-0.03,0.0,0.9243376006633075,1.2928650354928777,0.0812098232546099,0.35,0,3,0.0
7.744212345000051,569,734.99,97.9,4.7,-41.3,-0.89,-0.47,-0.8,0.06,0.92,-0.09,-113.4,479.1,6.0,-1.49,-13.03,0.02,0.0,0.9263368717696603,1.2856904759700136,0.07762634110529198,0.35,0,3,0.0
7.75224756499847,570,735.0,97.8,4.7,-41.2,-0.8,-0.3,-0.69,0.07,0.91,-0.1,-109.8,484.5,100.0,-1.62,-13.42,0.02,0.0,0.9181503144910425,1.0982258419833326,0.08409664041623166,0.35,0,3,0.0
7.764143857999443,571,735.01,97.7,4.6,-41.2,-0.6,-0.09,-0.61,0.08,0.91,-0.11,-103.7,493.1,40.0,-1.76,-13.4,0.02,0.0,0.9201086892318755,0.8603487664894975,0.08049550036189057,0.35,0,3,0.0
7.772420631999921,572,735.02,97.7,4.6,-41.2,-0.34,0.18,-0.52,0.08,0.91,-0.11,-98.7,497.3,60.0,-1.89,-13.61,0.04,0.0,0.9201086892318755,0.6468384651518492,0.07888559035465281,0.35,0,3,0.0
7.784236699999383,573,735.03,97.6,4.5,-41.3,-0.2,0.47,-0.43,0.08,0.92,-0.11,-93.8,493.6,-56.0,-2.03,-13.23,0.17,0.0,0.93,0.6676825593049439,0.06761439399479774,0.35,0,3,0.0
7.792602259998603,574,735.04,97.6,4.5,-41.3,0.0,0.66,-0.27,0.06,0.93,-0.1,-88.9,484.4,-74.0,-2.16,-13.02,0.09,0.0,0.9372833082905084,0.7130918594402829,0.059124463990203546,0.35,0,3,0.0
7.804214843999944,575,735.05,97.6,4.5,-41.4,0.01,0.7,-0.08,0.05,0.92,-0.1,-84.2,455.8,-306.0,-2.28,-11.77,0.23,0.0,0.9267685795278129,0.7046275611981127,0.06824640889784106,0.35,0,3,0.0
7.812505983998562,576,735.06,97.6,4.5,-41.5,0.1,0.71,0.05,0.04,0.91,-0.13,-80.0,397.5,-556.0,-2.39,-9.87,0.32,0.0,0.9201086892318755,0.7187489130426563,0.0734081732099029,0.35,0,3,0.0
7.823986765999507,577,735.07,97.6,4.5,-41.5,0.03,0.74,0.17,0.01,0.96,-0.17,-76.7,309.2,-836.0,-2.47,-7.13,0.23,0.0,0.9749871794028884,0.7598684096605148,0.01815908937811217,0.35,0,3,0.0
7.832429368998419,578,735.08,97.6,4.5,-41.6,-0.61,0.77,0.39,-0.02,1.02,-0.17,-74.3,204.3,-971.0,-2.52,-4.28,0.45,0.0,1.0342630226397924,1.056929515152264,0.04029441878161599,0.35,0,3,0.0
7.844157767998695,579,735.09,97.5,4.5,-41.7,-1.25,0.56,0.54,-0.02,1.04,-0.15,-73.0,100.3,-1013.0,-2.54,-1.48,0.62,0.0,1.050951949424901,1.4723111084278349,0.055843678655390194,0.35,0,3,0.0
7.852382880999357,580,735.1,97.3,4.5,-41.7,-1.91,0.3,0.58,-0.01,1.08,-0.16,-72.6,4.5,-900.0,-2.54,0.74,0.28,0.0,1.0918333206126292,2.0185390756683406,0.09479054884625593,0.35,0,3,0.0
7.864133094999488,581,735.11,97.1,4.5,-41.7,-2.98,0.13,0.7,0.0,1.09,-0.2,-73.0,-49.6,-583.0,-2.52,1.8,0.19,0.0,1.1081967334368028,3.063870101685122,0.10893088243702098,0.35,0,3,0.0
7.872524679998605,582,735.12,96.8,4.6,-41.7,-3.75,0.35,0.88,0.02,1.02,-0.21,-73.8,-86.4,-450.0,-2.5,2.85,0.06,0.0,1.041585330157832,3.867738357231523,0.041473089574889155,0.35,0,3,0.0
7.883911311999327,583,735.13,96.4,4.7,-41.8,-3.17,0.62,0.97,0.01,0.88,-0.15,-74.9,-125.6,-402.0,-2.46,3.85,0.32,0.0,0.8927485648266257,3.372565788831998,0.10521640224119078,0.35,0,3,0.0
7.892550794998897,584,735.14,96.2,4.7,-41.8,-1.62,0.51,0.89,0.01,0.83,-0.06,-76.4,-163.0,-384.0,-2.42,4.89,0.08,0.0,0.8322259308625273,1.917446218280972,0.16242425548118344,0.35,0,3,0.0
7.904278647998581,585,735.15,96.1,4.8,-41.8,-0.32,0.12,0.8,0.02,0.87,-0.04,-78.3,-198.4,-353.0,-2.36,5.78,0.1,0.0,0.8711486669908874,0.8699425268372619,0.12103148896576676,0.35,0,3,0.0
7.912210980999589,586,735.16,96.0,4.8,-41.8,0.03,-0.36,0.7,0.05,0.94,-0.07,-80.5,-228.7,-305.0,-2.3,6.54,0.14,0.0,0.9439279633531363,0.7877182237323191,0.04728714875144746,0.35,0,3,0.0
7.924111117999928,587,735.17,96.0,4.9,-41.8,-0.52,-0.67,0.63,0.07,0.98,-0.13,-83.0,-254.5,-260.0,-2.23,7.17,0.04,0.0,0.9910600385445879,1.0565036677645754,0.0001519720887960263,0.35,0,3,0.0
7.932439266998699,588,735.18,96.0,4.9,-41.7,-0.91,-0.83,0.5,0.09,0.94,-0.16,-85.7,-275.9,-226.0,-2.15,7.75,0.26,0.0,0.9577577981932592,1.3292855223765885,0.03278512819132218,0.35,0,3,0.0
7.944274854999094,589,735.19,96.0,5.0,-41.6,-0.71,-0.93,0.31,0.09,0.91,-0.18,-88.5,-293.5,-174.0,-2.07,8.13,0.02,0.0,0.9319871243745806,1.210413152605341,0.05738468596980073,0.35,0,3,0.0
7.952482217999204,590,735.2,96.0,5.0,-41.5,-0.27,-1.04,0.15,0.08,0.9,-0.19,-91.5,-300.7,-78.0,-1.99,8.19,-0.16,0.0,0.9233092656309694,1.0848963084092416,0.06474129381914373,0.35,0,3,0.0
7.9641481839989865,591,735.21,96.0,5.0,-41.4,0.24,-1.13,0.03,0.06,0.92,-0.22,-94.6,-303.4,-53.0,-1.91,8.31,-0.27,0.0,0.947839648885823,1.1555950847939773,0.03940669235300431,0.35,0,3,0.0
7.9724289609985135,592,735.22,96.1,5.0,-41.2,0.46,-1.16,0.01,0.03,0.97,-0.23,-97.6,-307.3,-32.0,-1.82,8.36,-0.1,0.0,0.9973464794142505,1.2479182665543445,0.009898135411914755,0.35,0,3,0.0
7.984344608999891,593,735.23,96.1,5.0,-41.1,0.22,-1.23,0.11,0.0,0.99,-0.23,-100.7,-303.7,35.0,-1.74,8.14,-0.15,0.0,1.016366075781753,1.2543524225671188,0.028339377143828948,0.35,0,3,0.0
7.99247614199885,594,735.24,96.1,5.0,-41.0,-0.12,-1.38,0.18,0.0,0.94,-0.22,-103.7,-296.1,56.0,-1.66,7.98,-0.03,0.0,0.9654014708917735,1.3968536072187376,0.02217272319122754,0.35,0,3,0.0
8.004152656998485,595,735.25,96.1,5.0,-40.8,-0.18,-1.63,0.12,0.0,0.9,-0.23,-106.6,-289.1,73.0,-1.58,7.74,0.0,0.0,0.9289241088485108,1.6442931612093994,0.05747708352980041,0.35,0,3,0.0
8.01249442399967,596,735.26,96.1,5.0,-40.7,0.0,-1.86,0.01,0.0,0.86,-0.28,-109.4,-276.9,121.0,-1.51,7.33,-0.01,0.0,0.904433524367601,1.8600268815261785,0.08032831465049595,0.35,0,3,0.0
8.024195436999435,597,735.27,96.2,4.9,-40.5,0.37,-2.03,-0.08,0.01,0.83,-0.31,-112.1,-261.4,137.0,-1.44,6.94,-0.19,0.0,0.8860586888011425,2.0649939467223626,0.09672908721261542,0.35,0,3,0.0
8.032446870000058,598,735.28,96.3,4.9,-40.3,1.17,-2.2,-0.22,0.02,0.81,-0.35,-114.6,-248.3,129.0,-1.37,6.62,-0.12,0.0,0.8826097665446492,2.5014595739287895,0.09817444927972652,0.35,0,3,0.0
8.044649901999946,599,735.29,96.4,4.8,-40.0,1.93,-2.26,-0.36,0.02,0.83,-0.39,-117.0,-233.1,151.0,-1.31,6.14,0.01,0.0,0.9172785836374902,2.9936766692480337,0.06223551954314788,0.35,0,3,0.0
8.052458479000052,600,735.3,96.7,4.8,-39.8,2.19,-2.29,-0.43,0.03,0.89,-0.38,-119.2,-218.0,144.0,-1.25,5.76,-0.08,0.0,0.9681941953967707,3.197671027482346,0.011093509628190001,0.35,0,3,0.0
8.064609826999003,601,735.31,96.9,4.7,-39.6,2.2,-2.22,-0.42,0.04,0.94,-0.38,-121.3,-204.8,132.0,-1.2,5.41,-0.36,0.0,1.0146920715172658,3.1535376959852566,0.0346962791624591,0.35,0,3,0.0
8.07239219999974,602,735.32,97.1,4.6,-39.4,1.83,-2.16,-0.28,0.05,1.0,-0.36,-123.2,-191.2,140.0,-1.14,5.01,-0.21,0.0,1.0640018796975876,2.8448022778393582,0.08232596559592531,0.35,0,3,0.0
8.08456011799899,603,735.33,97.3,4.6,-39.2,1.0,-2.22,0.12,0.06,1.04,-0.26,-125.0,-175.6,163.0,-1.1,4.53,-0.1,0.0,1.073685242517564,2.437785880671229,0.09016914184758362,0.35,0,3,0.0
8.092569951999394,604,735.34,97.4,4.6,-38.9,0.74,-2.49,0.43,0.09,1.01,-0.09,-126.7,-155.5,189.0,-1.06,3.97,-0.02,0.0,1.017988212112498,2.6329830990722294,0.03378266921366713,0.35,0,3,0.0
8.104071450999982,605,735.35,97.5,4.6,-38.6,1.51,-2.95,0.24,0.14,0.98,0.04,-128.1,-133.7,215.0,-1.02,3.34,-0.03,0.0,0.9907572861200667,3.3226796414941964,0.0064207083568113,0.35,0,3,0.0
8.112428123999052,606,735.36,97.8,4.6,-38.3,2.47,-3.18,-0.52,0.23,0.99,0.09,-129.2,-109.9,226.0,-0.99,2.7,-0.12,0.0,1.0203430795570674,4.0600123152522585,0.0352863717579357,0.35,0,3,0.0
8.124432831999002,607,735.37,98.1,4.4,-38.0,2.57,-3.04,-1.71,0.32,1.1,0.07,-130.2,-83.2,273.0,-0.97,1.86,-0.03,0.0,1.1477369036499612,4.3325050490449515,0.15942659193381292,0.35,0,3,0.0
8.132345308998993,608,735.38,98.3,4.1,-37.8,1.28,-2.39,-2.76,0.4,1.21,0.03,-130.8,-50.8,311.0,-0.96,0.96,-0.24,0.0,1.2747548783981961,3.868862882036529,0.2807156753484069,0.35,0,3,0.0
8.144182574998922,609,735.39,98.3,3.8,-37.7,-0.52,-1.31,-3.4,0.48,1.27,-0.02,-131.0,-15.1,342.0,-0.95,-0.01,-0.16,0.0,1.3578291497828436,3.680557023060504,0.3565141477983933,0.35,0,4,0.0
8.152362944998458,610,735.4,98.2,3.4,-37.7,-1.56,0.07,-3.62,0.48,1.21,-0.04,-131.0,15.1,285.0,-0.96,-0.68,-0.04,0.0,1.3023440405668543,3.9424484777863618,0.2950084578107559,0.35,0,4,0.0
8.164558498998304,611,735.41,98.0,3.1,-37.8,-1.73,1.4,-3.47,0.37,1.1,0.0,-130.7,32.3,179.0,-0.97,-0.99,-0.11,0.0,1.1605602095539895,4.122353696615563,0.15016013426193342,0.35,0,4,0.0
8.17242683099903,612,735.42,97.8,2.8,-38.0,-1.41,2.26,-3.16,0.18,1.01,0.09,-130.3,42.3,118.0,-0.98,-1.22,-0.19,0.0,1.0298543586352393,4.1329529394852775,0.019065197676319645,0.35,0,4,0.0
8.184378728999945,613,735.43,97.8,2.5,-38.3,0.0,2.16,-2.8,0.01,0.97,0.21,-129.8,45.0,29.0,-0.99,-1.16,0.0,0.0,0.9925220400575495,3.536325776848055,0.017901778483342734,0.35,0,4,0.0
8.192371638999248,614,735.44,97.9,2.3,-38.5,2.57,1.42,-2.45,-0.11,1.0,0.28,-129.4,35.9,-85.0,-1.0,-0.74,0.18,0.0,1.044270080008041,3.82410773906803,0.0331693362378056,0.35,0,4,0.0
8.204214724999474,615,735.45,98.3,2.1,-38.6,5.23,0.28,-2.11,-0.2,1.18,0.19,-129.2,14.8,-177.0,-1.0,-0.11,0.11,0.0,1.2118168178400561,5.646538762817449,0.19670175258842448,0.35,0,4,0.0
8.212505801999214,616,735.46,98.9,1.9,-38.6,6.02,-0.57,-1.56,-0.24,1.43,0.05,-129.2,-5.0,-157.0,-1.0,0.25,-0.11,0.0,1.4508618128546906,6.244909927292786,0.42703181265099777,0.35,0,4,0.0
8.224314760998823,617,735.47,99.4,1.8,-38.5,4.79,-1.35,-0.77,-0.24,1.62,-0.07,-129.3,-14.0,-112.0,-1.0,0.5,-0.07,0.0,1.639176622576103,5.035821680719046,0.6030396899249619,0.35,0,4,0.0
8.232409842999914,618,735.48,99.8,1.7,-38.4,2.05,-2.09,0.04,-0.16,1.69,-0.14,-129.5,-21.8,-92.0,-0.99,0.71,-0.01,0.0,1.7033202869689539,2.9278319623912843,0.6538396872314565,0.35,0,4,0.0
8.244218939998973,619,735.49,99.7,1.7,-38.1,-2.02,-2.67,0.8,-0.05,1.56,-0.19,-129.8,-29.8,-94.0,-0.98,0.96,0.04,0.0,1.572323122007687,3.442281220353735,0.5123856718247857,0.35,0,4,0.0
8.252356043998589,620,735.5,99.4,1.7,-37.8,-4.73,-2.9,1.22,0.03,1.34,-0.16,-130.2,-45.0,-140.0,-0.97,1.44,0.21,0.0,1.3498518437221176,5.680783396680426,0.28411610566843204,0.35,0,4,0.0
8.264278363998528,621,735.51,98.8,1.8,-37.5,-5.62,-3.02,1.38,0.08,1.13,-0.14,-130.8,-65.5,-199.0,-0.95,2.07,0.14,0.0,1.1414464507807625,6.5275722899099335,0.0741964984725354,0.35,0,4,0.0
8.27249377499902,622,735.52,98.3,2.0,-37.2,-5.23,-2.9,1.4,0.12,0.98,-0.13,-131.6,-91.7,-252.0,-0.93,2.85,0.14,0.0,0.9958413528268446,6.141897101059248,0.06998042749175482,0.35,0,4,0.0
8.284066831998643,623,735.53,97.8,2.1,-36.9,-4.31,-2.69,1.45,0.16,0.91,-0.11,-132.8,-121.5,-279.0,-0.89,3.66,0.21,0.0,0.9304837451562493,5.283436381750044,0.13263127445910317,0.35,0,4,0.0
8.292484601999604,624,735.54,97.4,2.2,-36.6,-3.54,-2.3,1.53,0.19,0.84,-0.11,-134.2,-150.4,-286.0,-0.85,4.45,0.15,0.0,0.8682165628459295,4.490267252625394,0.19100048763403454,0.35,0,4,0.0
8.304045054999733,625,735.55,97.1,2.3,-36.4,-3.02,-1.81,1.57,0.23,0.79,-0.11,-135.9,-177.6,-264.0,-0.8,5.11,0.2,0.0,0.830120473184465,3.8550486378254685,0.22451464574958913,0.35,0,4,0.0
8.312462800999128,626,735.56,96.8,2.5,-36.2,-2.4,-1.23,1.59,0.26,0.75,-0.1,-137.8,-200.7,-231.0,-0.74,5.7,0.08,0.0,0.8000624975587844,3.1306548835666956,0.2494811689477643,0.35,0,4,0.0
8.324123276999671,627,735.57,96.6,2.6,-36.1,-1.74,-0.58,1.61,0.27,0.73,-0.11,-140.0,-219.6,-198.0,-0.68,6.18,0.13,0.0,0.7860661549767932,2.4405122413132863,0.25820796129916046,0.35,0,4,0.0
8.33240581499922,628,735.58,96.5,2.8,-36.1,-0.95,0.09,1.66,0.27,0.73,-0.1,-142.3,-236.4,-170.0,-0.62,6.6,0.0,0.0,0.7847292526725379,1.9147323572760764,0.25435396633134755,0.35,0,4,0.0
8.344165033999161,629,735.59,96.5,3.0,-36.1,-0.1,0.74,1.63,0.27,0.72,-0.09,-144.7,-248.2,-121.0,-0.55,6.85,-0.02,0.0,0.7742092740338363,1.7929026744360665,0.2595764660706482,0.35,0,4,0.0
8.352603686998918,630,735.6,96.5,3.1,-36.2,0.54,1.37,1.54,0.26,0.76,-0.09,-147.2,-252.3,-49.0,-0.48,6.86,-0.1,0.0,0.8082697569499925,2.1307510412997575,0.22100566349140227,0.35,0,4,0.0
8.36425455599965,631,735.61,96.6,3.3,-36.4,0.8,1.9,1.37,0.24,0.78,-0.1,-149.8,-251.2,-7.0,-0.41,6.82,0.03,0.0,0.8221921916437787,2.4752575623558855,0.20294156422166387,0.35,0,4,0.0
8.37243123799999,632,735.62,96.6,3.4,-36.6,0.72,2.34,1.19,0.2,0.79,-0.1,-152.3,-248.7,20.0,-0.35,6.7,-0.03,0.0,0.8210359310042407,2.722149885660229,0.20001586836397778,0.35,0,4,0.0
8.384607237998353,633,735.63,96.7,3.6,-36.8,0.49,2.62,1.03,0.15,0.8,-0.1,-154.7,-242.7,51.0,-0.28,6.52,-0.14,0.0,0.8200609733428363,2.8575164041523893,0.19697100950487445,0.35,0,4,0.0
8.392486246999397,634,735.64,96.7,3.8,-37.1,0.27,2.76,0.84,0.09,0.8,-0.08,-157.1,-235.4,69.0,-0.22,6.3,-0.14,0.0,0.8090117428072352,2.8976024572049215,0.2038598352396661,0.35,0,4,0.0
8.404126430999895,635,735.65,96.7,3.9,-37.3,-0.08,2.65,0.71,0.03,0.82,-0.05,-159.4,-226.4,92.0,-0.16,6.0,-0.24,0.0,0.8220705565825842,2.7446311227558433,0.1869850010350308,0.35,0,4,0.0
8.412390660998426,636,735.66,96.6,3.9,-37.6,-0.51,2.4,0.71,0.0,0.83,-0.02,-161.6,-214.4,122.0,-0.1,5.64,0.0,0.0,0.8302409288875127,2.554251358030372,0.17523833615550022,0.35,0,4,0.0
8.424218039999687,637,735.67,96.5,4.0,-37.8,-0.71,1.98,0.82,-0.01,0.84,0.0,-163.6,-197.8,161.0,-0.05,5.13,0.02,0.0,0.8400595217006946,2.257631502260721,0.16211134847547182,0.35,0,4,0.0
8.432374532998438,638,735.68,96.4,4.1,-37.9,-0.64,1.44,0.93,0.0,0.84,0.01,-165.4,-177.4,196.0,0.0,4.55,0.05,0.0,0.8400595217006946,1.829781407709675,0.15886912150596233,0.35,0,4,0.0
8.44420307999826,639,735.69,96.3,4.3,-38.0,-0.32,0.93,0.97,0.01,0.84,0.0,-167.0,-155.0,217.0,0.03,3.93,-0.07,0.0,0.8400595217006946,1.3813761254633006,0.1556917390758431,0.35,0,4,0.0
8.452584347998709,640,735.7,96.3,4.4,-38.1,0.09,0.44,0.9,0.03,0.86,0.0,-168.3,-133.9,226.0,0.07,3.3,-0.1,0.0,0.8605230967266363,1.005832988124768,0.13252360076890346,0.35,0,4,0.0
8.463737184998536,641,735.71,96.3,4.4,-38.1,0.47,0.02,0.69,0.07,0.89,-0.05,-169.6,-107.4,249.0,0.1,2.57,-0.18,0.0,0.8941476388158726,0.8351047838445185,0.09692107750607382,0.35,0,4,0.0
8.472179660999245,642,735.72,96.4,4.5,-38.1,0.62,-0.21,0.38,0.1,0.92,-0.13,-170.5,-81.3,250.0,0.12,1.9,-0.14,0.0,0.9345052166788584,0.7569015788066503,0.055432229650226206,0.35,0,4,0.0
8.484091153999543,643,735.73,96.5,4.5,-38.1,0.43,-0.28,0.06,0.12,0.94,-0.2,-171.1,-54.8,254.0,0.13,1.19,-0.01,0.0,0.96850400102426,0.5166236541235796,0.02100477639872811,0.35,0,4,0.0
