host_time_s,seq,device_time_s,roll,pitch,yaw,gyro_x,gyro_y,gyro_z,accel_x,accel_y,accel_z,belt_length,belt_velocity,belt_acceleration,motor_pos,motor_vel,motor_iq_meas,motor_iq_set,acc_mag,gyro_mag,gyro_corrected,gyro_side_score,gyro_side_separation,step_period_s,gait_cycle_s,cadence_spm,gait_speed_ratio,assist_pulse_s,acc_residual,threshold,gyro_threshold,belt_threshold,belt_ok,calibrated,imu_side,imu_heel_strike,heel_strike,hs_count,left_hs_count,right_hs_count,torque_cmd_nm
0.007606557999906727,1,1179.13,92.7,6.0,-106.2,-1.14,0.54,-0.46,0.08,0.95,-0.09,-193.1,336.1,30.0,0.65,-8.33,-0.03,0.0,0.957601169589929,1.342683879399764,0.0,0.0,2.0,0.6,1.2,100.0,1.0,0.18,0.0,0.2,1.0,-160.0,0,0,calibrating,0,0,0,0,0,0.0
0.01640367099980722,2,1179.14,92.6,5.9,-106.3,-1.12,0.57,-0.46,0.07,0.92,-0.1,-188.8,299.2,-66.0,0.57,-8.36,0.01,0.0,0.9280624978954812,1.3382451195502265,0.0,0.0,2.0,0.6,1.2,100.0,1.0,0.18,0.02894789826055888,0.2,1.0,-160.0,0,0,calibrating,0,0,0,0,0,0.0
0.02432902999998987,3,1179.15,92.6,5.9,-106.3,-0.97,0.57,-0.52,0.06,0.92,-0.1,-185.6,319.9,122.0,0.48,-8.98,-0.19,0.0,0.9273618495495705,1.2394353553130555,0.0,0.0,2.0,0.6,1.2,100.0,1.0,0.18,0.02905557567434025,0.2,1.0,-160.0,0,0,calibrating,0,0,0,0,0,0.0
0.03250544699994862,4,1179.16,92.5,5.8,-106.4,-1.08,0.56,-0.42,0.05,0.91,-0.1,-182.2,346.8,231.0,0.38,-9.78,-0.23,0.0,0.9168424073961675,1.2870120434556935,0.0,0.0,2.0,0.6,1.2,100.0,1.0,0.18,0.038783517471188356,0.2,1.0,-160.0,0,0,calibrating,0,0,0,0,0,0.0
0.04376639699989937,5,1179.17,92.4,5.7,-106.4,-0.95,0.49,-0.36,0.03,0.89,-0.1,-178.6,371.5,211.0,0.28,-10.31,0.1,0.0,0.8961026726887941,1.1279184367674817,0.0,0.0,2.0,0.6,1.2,100.0,1.0,0.18,0.05833278713499057,0.2,1.0,-160.0,0,0,calibrating,0,0,0,0,0,0.0
0.05251217499994709,6,1179.18,92.4,5.7,-106.5,-0.78,0.37,-0.29,0.03,0.87,-0.1,-174.8,391.6,223.0,0.18,-10.95,-0.01,0.0,0.8762419757121888,0.9107140056021978,0.0,0.0,2.0,0.6,1.2,100.0,1.0,0.18,0.076629614429364,0.2,1.0,-160.0,0,0,calibrating,0,0,0,0,0,0.0
0.06348490199980006,7,1179.19,92.4,5.6,-106.5,-0.58,0.2,-0.21,0.03,0.88,-0.1,-170.7,416.8,221.0,0.06,-11.54,0.02,0.0,0.886171540955813,0.6484597134749389,0.0,0.0,2.0,0.6,1.2,100.0,1.0,0.18,0.06536604820202496,0.2,1.0,-160.0,0,0,calibrating,0,0,0,0,0,0.0
0.07233845999985533,8,1179.2,92.3,5.6,-106.5,-0.48,0.07,-0.12,0.02,0.89,-0.11,-166.4,432.3,187.0,-0.05,-12.01,-0.04,0.0,0.8969949832635632,0.4996999099459594,0.0,0.0,2.0,0.6,1.2,100.0,1.0,0.18,0.05345175377638922,0.2,1.0,-160.0,0,0,calibrating,0,0,0,0,0,0.0
0.08363672099994801,9,1179.21,92.3,5.6,-106.5,-0.52,-0.02,-0.03,0.0,0.89,-0.13,-161.9,458.7,240.0,-0.17,-12.74,0.0,0.0,0.8994442728707543,0.521248501196886,0.0,0.0,2.0,0.6,1.2,100.0,1.0,0.18,0.04998241488581412,0.2,1.0,-160.0,0,0,calibrating,0,0,0,0,0,0.0
0.09220686999992722,10,1179.22,92.2,5.6,-106.5,-0.64,-0.1,0.03,-0.01,0.9,-0.13,-157.2,476.4,181.0,-0.3,-13.14,0.1,0.0,0.9093954035511727,0.648459713474939,0.0,0.0,2.0,0.6,1.2,100.0,1.0,0.18,0.03923065852128793,0.2,1.0,-160.0,0,0,calibrating,0,0,0,0,0,0.0
0.10363949599991429,11,1179.23,92.1,5.6,-106.5,-0.68,-0.24,0.09,-0.01,0.89,-0.13,-152.3,494.9,197.0,-0.44,-13.7,-0.33,0.0,0.899499861033897,0.7267048919609665,0.0,0.0,2.0,0.6,1.2,100.0,1.0,0.18,0.04814367701779232,0.2,1.0,-160.0,0,0,calibrating,0,0,0,0,0,0.0
0.1122937779998665,12,1179.24,92.1,5.6,-106.4,-0.77,-0.35,0.14,0.0,0.88,-0.14,-147.2,517.3,248.0,-0.58,-14.46,0.07,0.0,0.8910667763978185,0.8573214099741122,0.0,0.0,2.0,0.6,1.2,100.0,1.0,0.18,0.055445226420793414,0.2,1.0,-160.0,0,0,calibrating,0,0,0,0,0,0.0
0.12355984099986017,13,1179.25,92.0,5.6,-106.4,-0.87,-0.38,0.22,0.0,0.87,-0.15,-141.8,545.2,221.0,-0.73,-14.99,-0.03,0.0,0.8828363381737296,0.9745255255764212,0.0,0.0,2.0,0.6,1.2,100.0,1.0,0.18,0.06240215135198468,0.2,1.0,-160.0,0,0,calibrating,0,0,0,0,0,0.0
0.13241774199991596,14,1179.26,91.9,5.6,-106.4,-0.84,-0.36,0.3,0.01,0.86,-0.16,-136.2,565.5,246.0,-0.88,-15.73,-0.14,0.0,0.8748142660016467,0.9618731725128838,0.0,0.0,2.0,0.6,1.2,100.0,1.0,0.18,0.06901573905358627,0.2,1.0,-160.0,0,0,calibrating,0,0,0,0,0,0.0
0.143551319999915,15,1179.27,91.8,5.7,-106.3,-0.61,-0.35,0.38,0.02,0.85,-0.17,-130.4,583.5,162.0,-1.04,-16.02,0.74,0.0,0.8670640114778146,0.7993747556684537,0.0,0.0,2.0,0.6,1.2,100.0,1.0,0.18,0.07523067370587,0.2,1.0,-160.0,0,0,calibrating,0,0,0,0,0,0.0
0.15243222200001583,16,1179.28,91.8,5.7,-106.3,-0.27,-0.36,0.46,0.02,0.86,-0.18,-124.4,607.0,225.0,-1.21,-16.74,-0.03,0.0,0.8788629017087932,0.6435060217278468,0.0,0.0,2.0,0.6,1.2,100.0,1.0,0.18,0.06216314780539356,0.2,1.0,-160.0,0,0,calibrating,0,0,0,0,0,0.0
0.1635080039998229,17,1179.29,91.8,5.8,-106.2,-0.07,-0.32,0.58,0.04,0.87,-0.16,-118.3,619.9,143.0,-1.38,-16.99,-0.04,0.0,0.8854942122905152,0.6661080993352355,0.0,0.0,2.0,0.6,1.2,100.0,1.0,0.18,0.054421200479198184,0.2,1.0,-160.0,0,0,calibrating,0,0,0,0,0,0.0
0.17230108599983396,18,1179.3,91.8,5.8,-106.2,0.08,-0.34,0.69,0.03,0.88,-0.14,-112.0,635.0,179.0,-1.55,-17.58,0.19,0.0,0.8915716460273958,0.7733692520394123,0.0,0.0,2.0,0.6,1.2,100.0,1.0,0.18,0.047376891407471144,0.2,1.0,-160.0,0,0,calibrating,0,0,0,0,0,0.0
0.18362503299999844,19,1179.31,91.8,5.9,-106.2,0.17,-0.41,0.82,0.02,0.88,-0.14,-105.4,663.4,215.0,-1.73,-18.2,0.1,0.0,0.8912911982062877,0.9324162160752031,0.0,0.0,2.0,0.6,1.2,100.0,1.0,0.18,0.0467041924440077,0.2,1.0,-160.0,0,0,calibrating,0,0,0,0,0,0.0
0.19216981599993233,20,1179.32,91.8,6.0,-106.1,0.5,-0.5,0.91,0.01,0.88,-0.14,-98.6,684.0,235.0,-1.92,-18.89,-0.19,0.0,0.8911228871485682,1.152432210587677,0.0,0.0,2.0,0.6,1.2,100.0,1.0,0.18,0.04593505343169246,0.2,1.0,-160.0,0,0,calibrating,0,0,0,0,0,0.0
0.20339041699980953,21,1179.33,91.9,6.1,-106.1,1.05,-0.61,0.93,0.0,0.89,-0.13,-91.7,696.1,168.0,-2.11,-19.21,-0.03,0.0,0.8994442728707543,1.5295424152340464,0.0,0.0,2.0,0.6,1.2,100.0,1.0,0.18,0.036861394355316324,0.2,1.0,-160.0,0,0,calibrating,0,0,0,0,0,0.0
0.2122769469999639,22,1179.34,92.1,6.2,-106.0,1.59,-0.69,0.9,0.0,0.92,-0.15,-84.7,705.9,-3.0,-2.3,-18.89,-0.08,0.0,0.932148056909416,1.9529976958511754,0.0,0.0,2.0,0.6,1.2,100.0,1.0,0.18,0.004074458110321588,0.2,1.0,-160.0,0,0,calibrating,0,0,0,0,0,0.0
0.2236058209998646,23,1179.35,92.3,6.3,-105.9,1.92,-0.61,0.81,0.0,0.98,-0.17,-77.7,687.5,-103.0,-2.49,-18.47,0.15,0.0,0.9946356116689167,2.1713129668474784,0.0,0.0,2.0,0.6,1.2,100.0,1.0,0.18,0.05724483471619546,0.2,1.0,-160.0,0,0,calibrating,0,0,0,0,0,0.0
0.2324484369999027,24,1179.36,92.4,6.3,-105.9,1.78,-0.51,0.67,0.05,1.0,-0.21,-71.1,648.2,-483.0,-2.66,-16.45,0.57,0.0,1.0230347012687302,1.9691114747520009,0.0,0.0,2.0,0.6,1.2,100.0,1.0,0.18,0.0839310458296888,0.2,1.0,-160.0,0,0,calibrating,0,0,0,0,0,0.0
0.2435726319999958,25,1179.37,92.6,6.4,-105.8,1.38,-0.17,0.67,-0.03,1.09,-0.22,-65.5,498.1,-1450.0,-2.79,-10.87,0.9,0.0,1.112384825498802,1.5434377214516948,0.0,0.0,2.0,0.6,1.2,100.0,1.0,0.18,0.16981554665856546,0.2,1.0,-160.0,0,0,calibrating,0,0,0,0,0,0.0
0.2523984819999896,26,1179.38,92.7,6.5,-105.8,-0.13,-0.4,1.01,-0.11,1.1,-0.23,-62.1,264.2,-2144.0,-2.85,-3.96,0.98,0.0,1.1291589790636216,1.0940749517286281,0.0,0.0,2.0,0.6,1.2,100.0,1.0,0.18,0.1828579062189174,0.2,1.0,-160.0,0,0,calibrating,0,0,0,0,0,0.0
0.26327873399986856,27,1179.39,92.6,6.6,-105.7,0.0,-0.76,0.96,0.04,1.03,-0.24,-61.2,16.3,-2155.0,-2.85,1.73,0.47,0.0,1.058347768930421,1.2244182292011174,0.0,0.0,2.0,0.6,1.2,100.0,1.0,0.18,0.10980576216400251,0.2,1.0,-160.0,0,0,calibrating,0,0,0,0,0,0.0
0.27229037099982634,28,1179.4,92.8,6.7,-105.6,1.55,-1.46,0.71,0.21,1.08,-0.19,-62.0,-106.2,-1261.0,-2.81,3.64,0.05,0.0,1.1165124271587845,2.2445935044011867,0.0,0.0,2.0,0.6,1.2,100.0,1.0,0.18,0.16461101198451866,0.2,1.0,-160.0,0,0,calibrating,0,0,0,0,0,0.0
0.28433707999988656,29,1179.41,93.0,6.7,-105.4,2.97,-2.48,-0.13,0.47,1.13,-0.25,-63.5,-162.1,-776.0,-2.77,5.02,0.4,0.0,1.2491196900217367,3.871459673043231,0.0,0.0,2.0,0.6,1.2,100.0,1.0,0.18,0.29127390935052144,0.2,1.0,-160.0,0,0,calibrating,0,0,0,0,0,0.0
0.2920360250000158,30,1179.42,93.3,6.6,-105.2,2.1,-2.17,-0.93,0.42,1.31,-0.25,-65.5,-215.8,-630.0,-2.71,6.54,0.1,0.0,1.3982131454109563,3.159715177037323,0.0,0.0,2.0,0.6,1.2,100.0,1.0,0.18,0.4315600174449462,0.2,1.0,-160.0,0,0,calibrating,0,0,0,0,0,0.0
0.3036720749998949,31,1179.43,93.4,6.5,-105.0,0.44,-1.65,-1.55,0.23,1.25,-0.24,-68.0,-272.5,-587.0,-2.63,8.08,0.17,0.0,1.2934450123604018,2.3062090104758504,0.0,0.0,2.0,0.6,1.2,100.0,1.0,0.18,0.32025604670650387,0.2,1.0,-160.0,0,0,calibrating,0,0,0,0,0,0.0
0.31233403699980045,32,1179.44,93.5,6.3,-104.9,0.02,-1.2,-1.84,0.08,1.18,-0.14,-71.1,-320.7,-465.0,-2.54,9.12,0.18,0.0,1.1909659944767523,2.1968158775828255,0.0,0.0,2.0,0.6,1.2,100.0,1.0,0.18,0.2134214882463974,0.2,1.0,-160.0,0,0,calibrating,0,0,0,0,0,0.0
0.32430538299990985,33,1179.45,93.6,6.1,-104.8,1.98,-0.89,-2.02,0.12,1.01,-0.08,-74.5,-345.0,-269.0,-2.45,9.54,0.17,0.0,1.0202450685987166,2.9652824486041798,0.0,0.0,2.0,0.6,1.2,100.0,1.0,0.18,0.041846551120994335,0.2,1.0,-160.0,0,0,calibrating,0,0,0,0,0,0.0
0.3364371420000225,34,1179.46,94.0,5.9,-104.7,4.29,-1.16,-2.38,0.21,1.08,-0.08,-78.0,-353.9,-126.0,-2.35,9.65,0.0,0.0,1.1031319050775388,5.041239926843395,0.0,0.0,2.0,0.6,1.2,100.0,1.0,0.18,0.1222387198478202,0.2,1.0,-160.0,0,0,calibrating,0,0,0,0,0,0.0
0.34433778799984793,35,1179.47,94.5,5.7,-104.6,4.64,-1.13,-2.79,0.27,1.26,-0.08,-81.6,-350.0,18.0,-2.26,9.37,-0.36,0.0,1.2910848151845022,5.530876964822125,0.0,0.0,2.0,0.6,1.2,100.0,1.0,0.18,0.30398779735568804,0.2,1.0,-160.0,0,0,calibrating,0,0,0,0,0,0.0
0.35239476099991407,36,1179.48,94.9,5.4,-104.5,3.6,-0.69,-3.3,0.23,1.41,-0.05,-85.0,-336.8,100.0,-2.17,8.97,-0.1,0.0,1.4295104056983985,4.93214963276663,0.0,0.0,2.0,0.6,1.2,100.0,1.0,0.18,0.4335651201121926,0.2,1.0,-160.0,0,0,calibrating,0,0,0,0,0,0.0
0.36352425899985974,37,1179.49,95.1,5.1,-104.5,2.13,0.12,-3.76,0.16,1.51,0.0,-88.2,-320.3,157.0,-2.08,8.44,0.13,0.0,1.518453160291749,4.323066041595941,0.0,0.0,2.0,0.6,1.2,100.0,1.0,0.18,0.5120577172114322,0.2,1.0,-160.0,0,0,calibrating,0,0,0,0,0,0.0
0.372395792999896,38,1179.5,95.2,4.7,-104.6,0.71,0.91,-3.83,0.05,1.5,0.12,-91.3,-296.2,230.0,-2.0,7.7,-0.06,0.0,1.505622794726488,4.0001374976368,0.0,0.0,2.0,0.6,1.2,100.0,1.0,0.18,0.48924280461324776,0.2,1.0,-160.0,0,0,calibrating,0,0,0,0,0,0.0
0.3834284149997984,39,1179.51,95.2,4.3,-104.7,-0.09,0.91,-3.21,-0.11,1.37,0.22,-94.1,-270.6,231.0,-1.93,7.09,-0.09,0.0,1.3919051691835906,3.3377087949669906,0.0,0.0,2.0,0.6,1.2,100.0,1.0,0.18,0.3680146754889435,0.2,1.0,-160.0,0,0,calibrating,0,0,0,0,0,0.0
0.3932277889998659,40,1179.52,95.2,4.1,-104.8,-0.47,0.21,-2.11,-0.31,1.23,0.27,-96.6,-250.7,212.0,-1.86,6.53,0.04,0.0,1.2968808734806756,2.1718885790942406,0.0,0.0,2.0,0.6,1.2,100.0,1.0,0.18,0.26753057219030785,0.2,1.0,-160.0,0,0,calibrating,0,0,0,0,0,0.0
0.4035917090000112,41,1179.53,95.1,3.9,-104.8,0.02,-1.24,-1.16,-0.44,1.08,0.35,-99.0,-228.0,233.0,-1.8,5.88,-0.11,0.0,1.2175795661885922,1.6981166037701887,0.0,0.0,2.0,0.6,1.2,100.0,1.0,0.18,0.18446467960026003,0.2,1.0,-160.0,0,0,calibrating,0,0,0,0,0,0.0
0.4123582139998234,42,1179.54,95.2,3.8,-104.6,0.76,-3.0,-0.44,-0.42,1.05,0.37,-101.1,-200.9,263.0,-1.75,5.11,-0.11,0.0,1.1898739429031968,3.1258918727300853,0.0,0.0,2.0,0.6,1.2,100.0,1.0,0.18,0.15362387518856746,0.2,1.0,-160.0,0,0,calibrating,0,0,0,0,0,0.0
0.42356045899987294,43,1179.55,95.3,3.8,-104.2,0.96,-4.6,0.14,-0.33,1.06,0.36,-102.9,-172.2,281.0,-1.7,4.33,-0.03,0.0,1.1670903992407786,4.70119133837371,0.0,0.0,2.0,0.6,1.2,100.0,1.0,0.18,0.12822352489562627,0.2,1.0,-160.0,0,0,calibrating,0,0,0,0,0,0.0
0.43221171699997285,44,1179.56,95.4,3.8,-103.7,0.24,-5.84,0.41,-0.26,1.05,0.31,-104.4,-141.8,296.0,-1.66,3.48,-0.06,0.0,1.1252555265360842,5.859291766075487,0.0,0.0,2.0,0.6,1.2,100.0,1.0,0.18,0.08466087914711329,0.2,1.0,-160.0,0,0,calibrating,0,0,0,0,0,0.0
0.44344741499980955,45,1179.57,95.4,3.7,-103.0,-0.52,-6.73,0.32,-0.17,0.99,0.31,-105.6,-111.1,306.0,-1.63,2.63,-0.11,0.0,1.0512373661547614,6.75764012063383,0.0,0.0,2.0,0.6,1.2,100.0,1.0,0.18,0.010429864390474775,0.2,1.0,-160.0,0,0,calibrating,0,0,0,0,0,0.0
0.45245364999982485,46,1179.58,95.4,3.7,-102.3,-0.84,-7.52,-0.09,-0.06,0.93,0.24,-106.5,-79.1,320.0,-1.61,1.73,-0.39,0.0,0.9623408959407265,7.567304672074463,0.0,0.0,2.0,0.6,1.2,100.0,1.0,0.18,0.07689727370708899,0.2,1.0,-160.0,0,0,calibrating,0,0,0,0,0,0.0
0.46424397299983866,47,1179.59,95.4,3.6,-101.5,-1.17,-7.77,-0.54,0.04,0.9,0.1,-107.1,-44.8,331.0,-1.6,0.81,-0.22,0.0,0.9064215354899728,7.876128490572001,0.0,0.0,2.0,0.6,1.2,100.0,1.0,0.18,0.13016030147468582,0.2,1.0,-160.0,0,0,calibrating,0,0,0,0,0,0.0
0.47235549699985313,48,1179.6,95.3,3.4,-100.8,-1.54,-7.44,-0.85,0.13,0.9,-0.01,-107.3,-12.3,324.0,-1.6,-0.05,-0.01,0.0,0.9093954035511727,7.645109547939781,0.0,0.0,2.0,0.6,1.2,100.0,1.0,0.18,0.12464270474521633,0.2,1.0,-160.0,0,0,calibrating,0,0,0,0,0,0.0
0.4834967119998055,49,1179.61,95.1,3.3,-100.1,-1.62,-6.62,-0.99,0.21,0.9,-0.08,-107.2,11.5,219.0,-1.6,-0.46,-0.05,0.0,0.9276313923105449,6.886864308232013,0.0,0.0,2.0,0.6,1.2,100.0,1.0,0.18,0.10427858166612725,0.2,1.0,-160.0,0,0,calibrating,0,0,0,0,0,0.0
0.4922098739998546,50,1179.62,95.0,3.1,-99.5,-1.57,-5.73,-0.95,0.26,0.91,-0.09,-107.0,17.5,78.0,-1.61,-0.44,-0.18,0.0,0.9506839643120105,6.016668513388452,0.0,0.0,2.0,0.6,1.2,100.0,1.0,0.18,0.07960148947136847,0.2,1.0,-160.0,0,0,calibrating,0,0,0,0,0,0.0
0.503553077999868,51,1179.63,94.9,3.0,-99.0,-1.4,-4.71,-0.79,0.28,0.89,-0.1,-106.9,15.7,17.0,-1.61,-0.39,-0.07,0.0,0.9383496150156402,4.976766018209013,0.0,0.0,2.0,0.6,1.2,100.0,1.0,0.18,0.09009712199238396,0.2,1.0,-160.0,0,0,calibrating,0,0,0,0,0,0.0
0.512183665999828,52,1179.64,94.8,2.9,-98.6,-1.04,-3.76,-0.54,0.27,0.88,-0.12,-106.8,10.8,-42.0,-1.62,-0.18,0.26,0.0,0.9282779756085996,3.9383752995365993,0.0,0.0,2.0,0.6,1.2,100.0,1.0,0.18,0.098165386171436,0.2,1.0,-160.0,0,0,calibrating,0,0,0,0,0,0.0
0.5234293829998933,53,1179.65,94.7,2.8,-98.2,-0.54,-2.79,-0.2,0.25,0.88,-0.12,-106.7,0.2,-80.0,-1.62,0.08,-0.37,0.0,0.9226592003551474,2.848806767753826,0.0,0.0,2.0,0.6,1.2,100.0,1.0,0.18,0.1017084781963905,0.2,1.0,-160.0,0,0,calibrating,0,0,0,0,0,0.0
0.5320865740000045,54,1179.66,94.7,2.8,-98.0,0.0,-2.02,0.17,0.22,0.89,-0.1,-106.8,-4.6,-44.0,-1.61,0.15,0.01,0.0,0.9222255689363639,2.0271408436514715,0.0,0.0,2.0,0.6,1.2,100.0,1.0,0.18,0.10009926742287045,0.2,1.0,-160.0,0,0,calibrating,0,0,0,0,0,0.0
0.5435383719998299,55,1179.67,94.8,2.8,-97.8,0.41,-1.49,0.52,0.2,0.91,-0.09,-106.8,-10.2,-68.0,-1.61,0.38,0.09,0.0,0.936055553906925,1.630521389004143,0.0,0.0,2.0,0.6,1.2,100.0,1.0,0.18,0.08454389680326313,0.2,1.0,-160.0,0,0,calibrating,0,0,0,0,0,0.0
0.5523255999999037,56,1179.68,94.8,2.9,-97.7,0.55,-1.21,0.77,0.17,0.93,-0.08,-107.0,-19.8,-95.0,-1.6,0.69,0.04,0.0,0.9487887014504337,1.5360664048145833,0.0,0.0,2.0,0.6,1.2,100.0,1.0,0.18,0.0703745342745592,0.2,1.0,-160.0,0,0,calibrating,0,0,0,0,0,0.0
0.5635779649999222,57,1179.69,94.9,3.1,-97.6,0.34,-1.12,0.92,0.15,0.95,-0.07,-107.3,-34.1,-125.0,-1.59,1.08,0.07,0.0,0.9643132271207318,1.4887578715157144,0.0,0.0,2.0,0.6,1.2,100.0,1.0,0.18,0.05375300843217601,0.2,1.0,-160.0,0,0,calibrating,0,0,0,0,0,0.0
0.5722287789999427,58,1179.7,94.9,3.2,-97.5,0.01,-1.15,1.02,0.13,0.95,-0.07,-107.7,-48.6,-146.0,-1.58,1.52,0.06,0.0,0.9614052215377239,1.5372052563011875,0.0,0.0,2.0,0.6,1.2,100.0,1.0,0.18,0.05552779373488026,0.2,1.0,-160.0,0,0,calibrating,0,0,0,0,0,0.0
0.583428240999865,59,1179.71,94.9,3.3,-97.3,-0.27,-1.21,1.04,0.12,0.94,-0.06,-108.3,-64.4,-149.0,-1.56,1.92,0.01,0.0,0.9495261976375375,1.6182088863926065,0.0,0.0,2.0,0.6,1.2,100.0,1.0,0.18,0.06605868128236536,0.2,1.0,-160.0,0,0,calibrating,0,0,0,0,0,0.0
0.5922768649998034,60,1179.72,94.8,3.5,-97.2,-0.42,-1.28,1.0,0.12,0.91,-0.07,-109.1,-77.6,-125.0,-1.54,2.23,0.26,0.0,0.9205433178292046,1.677736570502056,0.0,0.0,2.0,0.6,1.2,100.0,1.0,0.18,0.09314072986888422,0.2,1.0,-160.0,0,0,calibrating,0,0,0,0,0,0.0
0.6034251879998465,61,1179.73,94.8,3.6,-97.1,-0.41,-1.32,0.88,0.12,0.88,-0.08,-109.9,-87.2,-93.0,-1.52,2.44,-0.02,0.0,0.8917398723843181,1.6385664466233891,0.0,0.0,2.0,0.6,1.2,100.0,1.0,0.18,0.11950529180749525,0.2,1.0,-160.0,0,0,calibrating,0,0,0,0,0,0.0
0.61200342799998,62,1179.74,94.8,3.7,-96.9,-0.35,-1.29,0.76,0.13,0.87,-0.1,-110.8,-93.1,-70.0,-1.49,2.6,-0.31,0.0,0.8853247991556545,1.5375955254877662,0.0,0.0,2.0,0.6,1.2,100.0,1.0,0.18,0.12340195773543572,0.2,1.0,-160.0,0,0,calibrating,0,0,0,0,0,0.0
0.6235484750000069,63,1179.75,94.8,3.8,-96.8,-0.26,-1.11,0.68,0.14,0.87,-0.13,-111.8,-95.6,-23.0,-1.47,2.59,-0.03,0.0,0.890730037665734,1.3274411474713297,0.0,0.0,2.0,0.6,1.2,100.0,1.0,0.18,0.11563678484084916,0.2,1.0,-160.0,0,0,calibrating,0,0,0,0,0,0.0
0.6323009619998174,64,1179.76,94.8,3.9,-96.7,-0.19,-0.83,0.62,0.16,0.88,-0.15,-112.7,-95.4,-5.0,-1.44,2.57,0.02,0.0,0.9069178573608526,1.0532805893967665,0.0,0.0,2.0,0.6,1.2,100.0,1.0,0.18,0.09745998584281579,0.2,1.0,-160.0,0,0,calibrating,0,0,0,0,0,0.0
0.6434548009999617,65,1179.77,94.8,3.9,-96.6,-0.21,-0.46,0.58,0.17,0.88,-0.16,-113.7,-94.1,8.0,-1.41,2.53,0.0,0.0,0.910439454329611,0.7694803441284254,0.0,0.0,2.0,0.6,1.2,100.0,1.0,0.18,0.09205962109657628,0.2,1.0,-160.0,0,0,calibrating,0,0,0,0,0,0.0
0.6522745059999124,66,1179.78,94.7,4.0,-96.6,-0.28,-0.06,0.6,0.19,0.88,-0.16,-114.6,-90.7,30.0,-1.39,2.41,-0.1,0.0,0.9143850392476902,0.6648308055437865,0.0,0.0,2.0,0.6,1.2,100.0,1.0,0.18,0.08635175545492713,0.2,1.0,-160.0,0,0,calibrating,0,0,0,0,0,0.0
0.6636896069999239,67,1179.79,94.7,4.0,-96.6,-0.43,0.36,0.61,0.21,0.88,-0.16,-115.5,-87.0,35.0,-1.37,2.31,0.25,0.0,0.9187491496594704,0.8286132994346639,0.0,0.0,2.0,0.6,1.2,100.0,1.0,0.18,0.080347892142284,0.2,1.0,-160.0,0,0,calibrating,0,0,0,0,0,0.0
0.6721503629999006,68,1179.8,94.6,4.1,-96.7,-0.55,0.78,0.61,0.22,0.88,-0.16,-116.3,-83.4,38.0,-1.34,2.2,0.01,0.0,0.9210863151735563,1.1326958991715297,0.0,0.0,2.0,0.6,1.2,100.0,1.0,0.18,0.07645051209563414,0.2,1.0,-160.0,0,0,calibrating,0,0,0,0,0,0.0
0.6836029369999324,69,1179.81,94.6,4.2,-96.7,-0.62,1.14,0.56,0.22,0.87,-0.16,-117.1,-77.7,52.0,-1.32,2.04,-0.27,0.0,0.9115371632577577,1.4133647795243802,0.0,0.0,2.0,0.6,1.2,100.0,1.0,0.18,0.08427967073120413,0.2,1.0,-160.0,0,0,calibrating,0,0,0,0,0,0.0
0.6922637379998378,70,1179.82,94.5,4.2,-96.9,-0.71,1.42,0.44,0.22,0.85,-0.16,-117.9,-72.5,49.0,-1.3,1.91,0.18,0.0,0.8924684868386109,1.6474525789836867,0.0,0.0,2.0,0.6,1.2,100.0,1.0,0.18,0.1012813802073439,0.2,1.0,-160.0,0,0,calibrating,0,0,0,0,0,0.0
0.7036239289998321,71,1179.83,94.4,4.3,-97.0,-0.82,1.61,0.27,0.21,0.82,-0.17,-118.6,-68.7,38.0,-1.28,1.83,-0.2,0.0,0.8633655077659751,1.8268552214119214,0.0,0.0,2.0,0.6,1.2,100.0,1.0,0.18,0.12777667209438026,0.2,1.0,-160.0,0,0,calibrating,0,0,0,0,0,0.0
0.7121557579998807,72,1179.84,94.3,4.3,-97.2,-0.95,1.71,0.02,0.19,0.77,-0.19,-119.2,-64.9,44.0,-1.27,1.7,-0.19,0.0,0.8155366331440912,1.95627196473292,0.0,0.0,2.0,0.6,1.2,100.0,1.0,0.18,0.1720934357819388,0.2,1.0,-160.0,0,0,calibrating,0,0,0,0,0,0.0
0.7233951029998025,73,1179.85,94.2,4.3,-97.4,-1.01,1.75,-0.27,0.17,0.72,-0.2,-119.8,-59.1,47.0,-1.25,1.55,-0.04,0.0,0.766355009117837,2.0385043536867906,0.0,0.0,2.0,0.6,1.2,100.0,1.0,0.18,0.21684955861202926,0.2,1.0,-160.0,0,0,calibrating,0,0,0,0,0,0.0
0.7323377699999583,74,1179.86,94.1,4.3,-97.5,-0.98,1.76,-0.6,0.16,0.71,-0.22,-120.4,-57.7,15.0,-1.24,1.57,0.01,0.0,0.7603288762108145,2.101903898849802,0.0,0.0,2.0,0.6,1.2,100.0,1.0,0.18,0.21841817768867067,0.2,1.0,-160.0,0,0,calibrating,0,0,0,0,0,0.0
0.7435520689998611,75,1179.87,94.0,4.2,-97.7,-0.84,1.91,-0.74,0.13,0.7,-0.24,-121.0,-58.3,-1.0,-1.22,1.6,0.13,0.0,0.7513321502504734,2.213887982712766,0.0,0.0,2.0,0.6,1.2,100.0,1.0,0.18,0.22286660557603155,0.2,1.0,-160.0,0,0,calibrating,0,0,0,0,0,0.0
0.7523134569999002,76,1179.88,93.9,4.1,-97.9,-0.33,2.07,-0.73,0.1,0.74,-0.23,-121.6,-60.9,-18.0,-1.2,1.67,-0.04,0.0,0.7813449942247023,2.2196170840935605,0.0,0.0,2.0,0.6,1.2,100.0,1.0,0.18,0.18899668636976663,0.2,1.0,-160.0,0,0,calibrating,0,0,0,0,0,0.0
0.7637718699998004,77,1179.89,93.9,4.1,-98.2,0.45,2.06,-0.56,0.07,0.82,-0.19,-122.2,-63.8,-39.0,-1.19,1.83,-0.08,0.0,0.844630096551147,2.181673669456548,0.0,0.0,2.0,0.6,1.2,100.0,1.0,0.18,0.12319735236245555,0.2,1.0,-160.0,0,0,calibrating,0,0,0,0,0,0.0
0.7722370179999416,78,1179.9,94.0,4.1,-98.4,1.05,1.88,-0.35,0.05,0.87,-0.19,-122.9,-71.8,-72.0,-1.17,2.06,0.07,0.0,0.8919080670113932,2.1816049138191818,0.0,0.0,2.0,0.6,1.2,100.0,1.0,0.18,0.07440099426416502,0.2,1.0,-160.0,0,0,calibrating,0,0,0,0,0,0.0
0.7836161349998747,79,1179.91,94.1,4.0,-98.5,1.21,1.66,-0.25,0.05,0.92,-0.18,-123.7,-80.3,-86.0,-1.14,2.31,0.26,0.0,0.9387757985802574,2.069347723317664,0.0,0.0,2.0,0.6,1.2,100.0,1.0,0.18,0.026982597441394862,0.2,1.0,-160.0,0,0,calibrating,0,0,0,0,0,0.0
0.7922712049999063,80,1179.92,94.2,4.0,-98.7,1.05,1.45,-0.32,0.05,0.91,-0.2,-124.6,-91.3,-104.0,-1.12,2.63,0.08,0.0,0.9330594836343501,1.8186258548695495,0.0,0.0,2.0,0.6,1.2,100.0,1.0,0.18,0.032044934139556114,0.2,1.0,-160.0,0,0,calibrating,0,0,0,0,0,0.0
0.8036068179999347,81,1179.93,94.3,4.0,-98.8,0.97,1.29,-0.52,0.05,0.9,-0.21,-125.6,-105.0,-134.0,-1.09,3.04,-0.01,0.0,0.925526876973327,1.6957004452437936,0.0,0.0,2.0,0.6,1.2,100.0,1.0,0.18,0.038785989984567615,0.2,1.0,-160.0,0,0,calibrating,0,0,0,0,0,0.0
0.8121184859999175,82,1179.94,94.4,3.9,-99.0,1.04,1.2,-0.64,0.06,0.94,-0.19,-126.7,-122.2,-166.0,-1.06,3.55,-0.01,0.0,0.9608850087289321,1.7120747647226158,0.0,0.0,2.0,0.6,1.2,100.0,1.0,0.18,0.0033593010643833132,0.2,1.0,-160.0,0,0,calibrating,0,0,0,0,0,0.0
0.8235697989998698,83,1179.95,94.5,3.9,-99.1,1.12,1.11,-0.57,0.05,1.0,-0.14,-128.1,-141.3,-183.0,-1.02,4.07,0.21,0.0,1.0109896141899777,1.6767229944149988,0.0,0.0,2.0,0.6,1.2,100.0,1.0,0.18,0.04581039830872902,0.2,1.0,-160.0,0,0,calibrating,0,0,0,0,0,0.0
0.8323020519999318,84,1179.96,94.6,3.8,-99.2,1.05,0.86,-0.41,0.03,1.04,-0.11,-129.7,-161.7,-207.0,-0.97,4.68,0.11,0.0,1.0462313319720453,1.4178152206828645,0.0,0.0,2.0,0.6,1.2,100.0,1.0,0.18,0.07943107376898073,0.2,1.0,-160.0,0,0,calibrating,0,0,0,0,0,0.0
0.8435340489997998,85,1179.97,94.7,3.8,-99.2,0.75,0.46,-0.27,0.01,1.09,-0.07,-131.4,-186.0,-236.0,-0.92,5.37,0.04,0.0,1.092291169972549,0.9203260291874831,0.0,0.0,2.0,0.6,1.2,100.0,1.0,0.18,0.12298109353409481,0.2,1.0,-160.0,0,0,calibrating,0,0,0,0,0,0.0
0.8522667619999993,86,1179.98,94.8,3.7,-99.3,0.22,-0.08,-0.21,0.0,1.07,-0.11,-133.5,-211.5,-246.0,-0.86,6.04,0.05,0.0,1.0756393447619885,0.31448370387032776,0.0,0.0,2.0,0.6,1.2,100.0,1.0,0.18,0.10420268295706359,0.2,1.0,-160.0,0,0,calibrating,0,0,0,0,0,0.0
0.8635802969999986,87,1179.99,94.8,3.7,-99.2,-0.26,-0.68,-0.32,0.0,0.98,-0.23,-135.8,-234.3,-216.0,-0.8,6.58,0.2,0.0,1.006628034578811,0.7952358140828418,0.0,0.0,2.0,0.6,1.2,100.0,1.0,0.18,0.034487545318408364,0.2,1.0,-160.0,0,0,calibrating,0,0,0,0,0,0.0
0.8723547559998224,88,1180.0,94.8,3.6,-99.1,-0.17,-0.98,-0.43,0.03,0.95,-0.35,-137.3,-245.6,-251.0,-0.73,7.03,0.08,0.0,1.0128672173587216,1.0836050941187014,0.0,0.0,2.0,0.6,1.2,100.0,1.0,0.18,0.03991219353635267,0.2,1.0,-160.0,0,0,calibrating,0,0,0,0,0,0.0
0.8833993499999906,89,1180.01,94.8,3.6,-99.0,0.6,-1.04,-0.19,0.1,1.04,-0.37,-140.8,-267.9,-212.0,-0.65,7.53,-0.07,0.0,1.1083771921146701,1.2156068443374282,0.0,0.0,2.0,0.6,1.2,100.0,1.0,0.18,0.13271372492645517,0.2,1.0,-160.0,0,0,calibrating,0,0,0,0,0,0.0
0.8922993959999985,90,1180.02,94.9,3.6,-98.9,1.56,-0.85,0.35,0.15,1.11,-0.38,-143.6,-287.1,-196.0,-0.58,8.04,0.11,0.0,1.1827933040053957,1.8106904760339355,0.0,0.0,2.0,0.6,1.2,100.0,1.0,0.18,0.20298724008083713,0.2,1.0,-160.0,0,0,calibrating,0,0,0,0,0,0.0
0.9035720389999824,91,1180.03,95.1,3.7,-98.9,2.4,-0.48,0.97,0.18,1.23,-0.36,-146.6,-303.3,-163.0,-0.49,8.41,0.01,0.0,1.2941792766073794,2.6327362192213637,0.0,0.0,2.0,0.6,1.2,100.0,1.0,0.18,0.30808574842916436,0.2,1.0,-160.0,0,0,calibrating,0,0,0,0,0,0.0
0.9122572759999912,92,1180.04,95.4,3.8,-98.8,2.52,0.0,1.6,0.17,1.3,-0.36,-149.7,-317.7,-164.0,-0.4,8.87,-0.02,0.0,1.3595955280891445,2.985029313088902,0.0,0.0,2.0,0.6,1.2,100.0,1.0,0.18,0.3660319599127111,0.2,1.0,-160.0,0,0,calibrating,0,0,0,0,0,0.0
0.9235790440000073,93,1180.05,95.6,4.0,-98.8,2.23,0.34,2.09,0.17,1.31,-0.33,-153.1,-336.8,-179.0,-0.31,9.37,0.05,0.0,1.3615799645999496,3.0751585324987714,0.0,0.0,2.0,0.6,1.2,100.0,1.0,0.18,0.3606560684950455,0.2,1.0,-160.0,0,0,calibrating,0,0,0,0,0,0.0
0.9323562549998314,94,1180.06,95.8,4.2,-98.9,1.73,0.57,2.48,0.18,1.31,-0.28,-156.5,-355.2,-190.0,-0.21,9.91,-0.13,0.0,1.3516286472252652,3.0770440360839815,0.0,0.0,2.0,0.6,1.2,100.0,1.0,0.18,0.343690656097954,0.2,1.0,-160.0,0,0,calibrating,0,0,0,0,0,0.0
0.943458438999869,95,1180.07,96.0,4.5,-98.9,1.36,0.63,2.66,0.18,1.28,-0.26,-160.3,-380.2,-245.0,-0.11,10.68,0.09,0.0,1.318483977907961,3.053211424058282,0.0,0.0,2.0,0.6,1.2,100.0,1.0,0.18,0.30433506704503666,0.2,1.0,-160.0,0,0,calibrating,0,0,0,0,0,0.0
0.9523660830000154,96,1180.08,96.1,4.8,-98.9,1.13,0.84,2.76,0.14,1.36,-0.21,-164.2,-403.2,-201.0,0.0,11.13,0.09,0.0,1.3832208789632987,3.098402814354518,0.0,0.0,2.0,0.6,1.2,100.0,1.0,0.18,0.36169052873836693,0.2,1.0,-160.0,0,0,calibrating,0,0,0,0,0,0.0
0.963567667999996,97,1180.09,96.2,5.1,-99.0,0.26,1.05,2.95,0.13,1.47,-0.1,-168.4,-421.3,-217.0,0.11,11.77,0.05,0.0,1.4791213608085036,3.1420693817928336,0.0,0.0,2.0,0.6,1.2,100.0,1.0,0.18,0.4484391903719005,0.2,1.0,-160.0,0,0,calibrating,0,0,0,0,0,0.0
0.9722147559998575,98,1180.1,96.1,5.4,-99.1,-0.76,1.41,3.25,0.17,1.59,0.0,-172.8,-443.0,-176.0,0.23,12.16,0.12,0.0,1.5990622251807465,3.623285801589491,0.0,0.0,2.0,0.6,1.2,100.0,1.0,0.18,0.5570124536492604,0.2,1.0,-160.0,0,0,calibrating,0,0,0,0,0,0.0
0.9835731939999732,99,1180.11,95.9,5.8,-99.2,-1.71,1.68,3.66,0.15,1.58,0.06,-177.3,-452.3,-132.0,0.35,12.46,0.07,0.0,1.5882380174268593,4.375168568181116,0.0,0.0,2.0,0.6,1.2,100.0,1.0,0.18,0.5352644809774658,0.2,1.0,-160.0,0,0,calibrating,0,0,0,0,0,0.0
0.9922690899998088,100,1180.12,95.7,6.1,-99.4,-2.24,1.97,3.62,0.06,1.35,0.05,-181.9,-463.8,-86.0,0.48,12.61,0.17,0.0,1.3522573719525437,4.690724890675214,0.0,0.0,2.0,0.6,1.2,100.0,1.0,0.18,0.2932981587930872,0.2,1.0,-160.0,0,0,calibrating,0,0,0,0,0,0.0
1.0036812749999626,101,1180.13,95.5,6.5,-99.5,-1.98,2.15,3.06,0.15,1.15,0.09,-186.5,-460.2,1.0,0.6,12.48,-0.06,0.0,1.1632282665066216,4.231607259659148,0.0,0.0,2.0,0.6,1.2,100.0,1.0,0.18,0.10218367228022185,0.2,1.0,-160.0,0,0,calibrating,0,0,0,0,0,0.0
1.0121861359998547,102,1180.14,95.3,6.8,-99.8,-1.4,2.42,2.58,0.28,1.07,0.14,-191.1,-457.4,17.0,0.73,12.4,0.0,0.0,1.114854250563723,3.8043133414586134,0.0,0.0,2.0,0.6,1.2,100.0,1.0,0.18,0.0527334632105767,0.2,1.0,-160.0,0,0,calibrating,0,0,0,0,0,0.0
1.0233695069998703,103,1180.15,95.2,7.0,-100.0,-0.83,2.76,1.99,0.28,0.92,0.1,-195.7,-459.1,-35.0,0.85,12.58,0.22,0.0,0.9668505572217456,3.5023706257333758,0.0,0.0,2.0,0.6,1.2,100.0,1.0,0.18,0.09336482552877245,0.2,1.0,-160.0,0,0,calibrating,0,0,0,0,0,0.0
1.032355447999862,104,1180.16,95.1,7.2,-100.3,-0.25,3.31,1.17,0.28,0.9,0.09,-200.3,-462.2,17.0,0.98,12.43,-0.02,0.0,0.9468368391650169,3.519588044075613,0.0,0.0,2.0,0.6,1.2,100.0,1.0,0.18,0.11111097271379122,0.2,1.0,-160.0,0,0,calibrating,0,0,0,0,0,0.0
1.0435588379998535,105,1180.17,95.0,7.3,-100.6,-0.33,3.86,0.6,0.3,0.99,0.13,-204.9,-450.0,71.0,1.1,12.16,-0.43,0.0,1.0425929215182692,3.920267847992022,0.0,0.0,2.0,0.6,1.2,100.0,1.0,0.18,0.01504779255332811,0.2,1.0,-160.0,0,0,calibrating,0,0,0,0,0,0.0
1.0522842909999781,106,1180.18,94.9,7.4,-101.1,-0.83,4.44,0.28,0.28,1.0,0.14,-209.3,-439.8,137.0,1.22,11.65,0.02,0.0,1.047854951794379,4.525582835392586,0.0,0.0,2.0,0.6,1.2,100.0,1.0,0.18,0.009590047031674098,0.2,1.0,-160.0,0,0,calibrating,0,0,0,0,0,0.0
1.0635822369999914,107,1180.19,94.7,7.5,-101.5,-1.54,4.91,0.17,0.24,0.96,0.15,-213.5,-410.9,250.0,1.33,10.8,0.0,0.0,1.0008496390567367,5.148650308576025,0.0,0.0,2.0,0.6,1.2,100.0,1.0,0.18,0.05546345257392993,0.2,1.0,-160.0,0,0,calibrating,0,0,0,0,0,0.0
1.0722349779998694,108,1180.2,94.5,7.5,-102.0,-1.68,5.26,0.16,0.2,0.91,0.17,-217.4,-377.8,328.0,1.43,9.78,-0.17,0.0,0.947100839404126,5.524092685681514,0.0,0.0,2.0,0.6,1.2,100.0,1.0,0.18,0.10702800718200989,0.2,1.0,-160.0,0,0,calibrating,0,0,0,0,0,0.0
1.0835166379999919,109,1180.21,94.2,7.6,-102.6,-1.36,5.37,0.14,0.15,0.88,0.2,-220.9,-331.9,440.0,1.52,8.39,0.05,0.0,0.9148223871331528,5.541308509729448,0.0,0.0,2.0,0.6,1.2,100.0,1.0,0.18,0.1365203302639234,0.2,1.0,-160.0,0,0,calibrating,0,0,0,0,0,0.0
1.0922407659998044,110,1180.22,94.1,7.6,-103.1,-1.03,5.1,0.07,0.11,0.88,0.22,-223.8,-281.4,472.0,1.59,7.06,-0.4,0.0,0.9137286249209883,5.203441169072636,0.0,0.0,2.0,0.6,1.2,100.0,1.0,0.18,0.1348618106265661,0.2,1.0,-160.0,0,0,calibrating,0,0,0,0,0,0.0
1.1035476299998663,111,1180.23,93.9,7.7,-103.6,-0.85,4.67,-0.09,0.07,0.87,0.22,-226.3,-234.3,467.0,1.65,5.8,-0.2,0.0,0.9001111042532471,4.747578330054176,0.0,0.0,2.0,0.6,1.2,100.0,1.0,0.18,0.14550974466842115,0.2,1.0,-160.0,0,0,calibrating,0,0,0,0,0,0.0
1.1121023429998331,112,1180.24,93.8,7.7,-104.0,-0.64,4.07,-0.4,0.03,0.86,0.18,-228.3,-187.4,471.0,1.7,4.51,-0.25,0.0,0.8791473141629905,4.139384012144802,0.0,0.0,2.0,0.6,1.2,100.0,1.0,0.18,0.16314406406350412,0.2,1.0,-160.0,0,0,calibrating,0,0,0,0,0,0.0
1.1236093059999348,113,1180.25,93.7,7.6,-104.4,-0.42,3.52,-0.76,0.0,0.86,0.15,-229.9,-139.1,479.0,1.74,3.19,-0.14,0.0,0.8729833904490967,3.6255206522649956,0.0,0.0,2.0,0.6,1.2,100.0,1.0,0.18,0.16592182802184996,0.2,1.0,-160.0,0,0,calibrating,0,0,0,0,0,0.0
1.1323261569998522,114,1180.26,93.6,7.6,-104.8,-0.26,3.08,-1.13,-0.03,0.84,0.11,-230.9,-95.9,480.0,1.76,2.02,-0.11,0.0,0.8477027781009095,3.2910332723933373,0.0,0.0,2.0,0.6,1.2,100.0,1.0,0.18,0.18737839156263625,0.2,1.0,-160.0,0,0,calibrating,0,0,0,0,0,0.0
1.1435860669998874,115,1180.27,93.5,7.5,-105.1,-0.15,2.77,-1.51,-0.06,0.84,0.08,-231.5,-43.2,506.0,1.77,0.56,-0.25,0.0,0.845931439302264,3.1584014944272045,0.0,0.0,2.0,0.6,1.2,100.0,1.0,0.18,0.18536673575405616,0.2,1.0,-160.0,0,0,calibrating,0,0,0,0,0,0.0
1.152365504999807,116,1180.28,93.5,7.3,-105.3,-0.28,2.54,-1.78,-0.07,0.85,0.07,-231.6,4.6,456.0,1.77,-0.58,-0.09,0.0,0.8557452892070163,3.114225425366635,0.0,0.0,2.0,0.6,1.2,100.0,1.0,0.18,0.17204182813231772,0.2,1.0,-160.0,0,0,calibrating,0,0,0,0,0,0.0
1.1635351259999425,117,1180.29,93.4,7.1,-105.6,-0.62,2.34,-1.92,-0.06,0.85,0.06,-231.3,37.7,346.0,1.76,-1.35,-0.11,0.0,0.8542247947700886,3.089724906848504,0.0,0.0,2.0,0.6,1.2,100.0,1.0,0.18,0.17009107611786067,0.2,1.0,-160.0,0,0,calibrating,0,0,0,0,0,0.0
1.1723082959999829,118,1180.3,93.3,7.0,-105.8,-0.93,2.13,-1.96,-0.05,0.84,0.08,-230.8,63.8,291.0,1.74,-2.06,0.14,0.0,0.8452810183601663,3.040296038217331,0.0,0.0,2.0,0.6,1.2,100.0,1.0,0.18,0.1754541554772272,0.2,1.0,-160.0,0,0,calibrating,0,0,0,0,0,0.0
1.1836975549999806,119,1180.31,93.1,6.8,-106.0,-1.22,1.9,-1.92,-0.02,0.85,0.07,-229.9,90.4,274.0,1.71,-2.77,-0.13,0.0,0.8531119504496464,2.9639163281037475,0.0,0.0,2.0,0.6,1.2,100.0,1.0,0.18,0.1642707589199922,0.2,1.0,-160.0,0,0,calibrating,0,0,0,0,0,0.0
1.1923021309999058,120,1180.32,93.0,6.6,-106.2,-1.36,1.7,-1.78,0.0,0.85,0.06,-228.9,117.2,268.0,1.68,-3.51,-0.05,0.0,0.8521150157109074,2.812116640539649,0.0,0.0,2.0,0.6,1.2,100.0,1.0,0.18,0.16196233978555652,0.2,1.0,-160.0,0,0,calibrating,0,0,0,0,0,0.0
1.203625787999954,121,1180.33,92.8,6.4,-106.4,-1.36,1.49,-1.6,0.0,0.87,0.04,-227.5,142.5,251.0,1.64,-4.16,-0.1,0.0,0.8709190547921202,2.574820382084933,0.0,0.0,2.0,0.6,1.2,100.0,1.0,0.18,0.14029513469025678,0.2,1.0,-160.0,0,0,calibrating,0,0,0,0,0,0.0
1.2120860879999782,122,1180.34,92.7,6.3,-106.6,-1.23,1.24,-1.41,0.0,0.9,0.03,-225.9,167.9,258.0,1.59,-4.88,-0.13,0.0,0.9004998611882181,2.2446826056260156,0.0,0.0,2.0,0.6,1.2,100.0,1.0,0.18,0.10850004172827565,0.2,1.0,-160.0,0,0,calibrating,0,0,0,0,0,0.0
1.2235803309999937,123,1180.35,92.5,6.2,-106.7,-1.22,1.0,-1.2,0.0,0.92,0.01,-224.1,192.5,247.0,1.54,-5.53,-0.11,0.0,0.9200543462209175,1.9820191724602463,0.0,0.0,2.0,0.6,1.2,100.0,1.0,0.18,0.08716664556166476,0.2,1.0,-160.0,0,0,calibrating,0,0,0,0,0,0.0
1.2323405079998793,124,1180.36,92.4,6.0,-106.8,-1.33,0.75,-1.05,0.0,0.92,0.0,-222.0,218.2,262.0,1.48,-6.27,0.22,0.0,0.92,1.8530785196531745,0.0,0.0,2.0,0.6,1.2,100.0,1.0,0.18,0.0854765719469307,0.2,1.0,-160.0,0,0,calibrating,0,0,0,0,0,0.0
1.2436139029998685,125,1180.37,92.2,5.9,-106.8,-1.39,0.54,-1.01,0.0,0.91,-0.02,-219.6,246.4,278.0,1.41,-7.05,-0.26,0.0,0.9102197536858888,1.8010552462376048,0.0,0.0,2.0,0.6,1.2,100.0,1.0,0.18,0.09335168189582099,0.2,1.0,-160.0,0,0,calibrating,0,0,0,0,0,0.0
1.252328701999886,126,1180.38,92.1,5.7,-106.9,-1.33,0.37,-1.03,0.01,0.89,-0.05,-216.9,273.0,257.0,1.34,-7.71,-0.04,0.0,0.8914594774862176,1.7224111007538243,0.0,0.0,2.0,0.6,1.2,100.0,1.0,0.18,0.10986971893358233,0.2,1.0,-160.0,0,0,calibrating,0,0,0,0,0,0.0
1.2633174279999366,127,1180.39,92.0,5.6,-106.9,-1.1,0.24,-1.05,0.03,0.87,-0.07,-214.0,295.3,228.0,1.26,-8.29,-0.17,0.0,0.8733269719870101,1.5395129099815956,0.0,0.0,2.0,0.6,1.2,100.0,1.0,0.18,0.12544217994413398,0.2,1.0,-160.0,0,0,calibrating,0,0,0,0,0,0.0
1.2723263139998835,128,1180.4,91.9,5.4,-106.9,-0.81,0.17,-1.1,0.04,0.86,-0.08,-210.9,318.6,245.0,1.17,-8.99,-0.02,0.0,0.8646386528486915,1.3765899897936207,0.0,0.0,2.0,0.6,1.2,100.0,1.0,0.18,0.13144788910080363,0.2,1.0,-160.0,0,0,calibrating,0,0,0,0,0,0.0
1.2836538379999638,129,1180.41,91.9,5.3,-106.9,-0.5,0.09,-1.1,0.05,0.86,-0.1,-207.6,345.1,246.0,1.07,-9.65,-0.11,0.0,0.8672369918309527,1.2116517651536682,0.0,0.0,2.0,0.6,1.2,100.0,1.0,0.18,0.12627255911617152,0.2,1.0,-160.0,0,0,calibrating,0,0,0,0,0,0.0
1.2921155899998666,130,1180.42,91.9,5.2,-107.0,-0.18,0.04,-1.05,0.06,0.87,-0.12,-204.0,363.3,194.0,0.97,-10.1,-0.12,0.0,0.8802840450672726,1.0660675400742676,0.0,0.0,2.0,0.6,1.2,100.0,1.0,0.18,0.1109609957622546,0.2,1.0,-160.0,0,0,calibrating,0,0,0,0,0,0.0
1.3035974570000235,131,1180.43,92.0,5.1,-107.0,0.08,0.02,-0.97,0.06,0.89,-0.14,-200.2,385.4,234.0,0.87,-10.8,0.18,0.0,0.9029396436085858,0.9734988443752771,0.0,0.0,2.0,0.6,1.2,100.0,1.0,0.18,0.08653928927652266,0.2,1.0,-160.0,0,0,calibrating,0,0,0,0,0,0.0
1.3119837219999226,132,1180.44,92.0,5.0,-107.0,0.29,0.02,-0.81,0.06,0.91,-0.16,-196.2,406.8,184.0,0.76,-11.21,0.18,0.0,0.9259049627256569,0.8605811989580066,0.0,0.0,2.0,0.6,1.2,100.0,1.0,0.18,0.062302490756262485,0.2,1.0,-160.0,0,0,calibrating,0,0,0,0,0,0.0
1.323612692999859,133,1180.45,92.0,4.9,-107.0,0.33,0.04,-0.63,0.05,0.93,-0.18,-192.0,421.4,176.0,0.64,-11.69,0.03,0.0,0.9485778829384544,0.7123201527403251,0.0,0.0,2.0,0.6,1.2,100.0,1.0,0.18,0.03883697913259565,0.2,1.0,-160.0,0,0,calibrating,0,0,0,0,0,0.0
1.3363787299999785,134,1180.46,92.1,4.9,-107.0,0.26,0.11,-0.47,0.05,0.94,-0.2,-187.7,441.5,193.0,0.52,-12.25,-0.02,0.0,0.9623408959407264,0.548270006474912,0.0,0.0,2.0,0.6,1.2,100.0,1.0,0.18,0.024572486807717286,0.2,1.0,-160.0,0,0,calibrating,0,0,0,0,0,0.0
1.344195950999847,135,1180.47,92.1,4.8,-107.0,0.0,0.22,-0.29,0.04,0.94,-0.21,-183.1,466.3,264.0,0.39,-13.09,-0.11,0.0,0.9640020746865642,0.3640054944640259,0.0,0.0,2.0,0.6,1.2,100.0,1.0,0.18,0.02245308190064199,0.2,1.0,-160.0,0,0,calibrating,0,0,0,0,0,0.0
1.3523307519999435,136,1180.48,92.1,4.8,-107.0,-0.38,0.34,-0.06,0.04,0.94,-0.2,-178.2,492.0,207.0,0.26,-13.53,0.06,0.0,0.9618731725128838,0.5134199061197374,0.0,0.0,2.0,0.6,1.2,100.0,1.0,0.18,0.02409034439283575,0.2,1.0,-160.0,0,0,calibrating,0,0,0,0,0,0.0
1.3644025479998163,137,1180.49,92.0,4.8,-107.1,-0.71,0.42,0.16,0.02,0.93,-0.19,-173.2,510.9,233.0,0.12,-14.23,0.0,0.0,0.9494208761134337,0.8402975663418286,0.0,0.0,2.0,0.6,1.2,100.0,1.0,0.18,0.035811787976440135,0.2,1.0,-160.0,0,0,calibrating,0,0,0,0,0,0.0
1.372211107999874,138,1180.5,91.9,4.8,-107.1,-0.88,0.44,0.39,0.01,0.91,-0.18,-167.9,530.4,163.0,-0.02,-14.55,-0.07,0.0,0.9276852914647294,1.058347768930421,0.0,0.0,2.0,0.6,1.2,100.0,1.0,0.18,0.05639642517264154,0.2,1.0,-160.0,0,0,calibrating,0,0,0,0,0,0.0
1.3833818509999674,139,1180.51,91.8,4.9,-107.1,-0.87,0.42,0.56,-0.01,0.89,-0.16,-162.5,553.2,249.0,-0.17,-15.39,-0.26,0.0,0.9043229511629128,1.1166467659918244,0.0,0.0,2.0,0.6,1.2,100.0,1.0,0.18,0.07816359016496899,0.2,1.0,-160.0,0,0,calibrating,0,0,0,0,0,0.0
1.3921333349999259,140,1180.52,91.7,5.0,-107.2,-0.75,0.37,0.67,-0.01,0.89,-0.13,-156.8,571.6,165.0,-0.32,-15.68,-0.08,0.0,0.899499861033897,1.0715876072445034,0.0,0.0,2.0,0.6,1.2,100.0,1.0,0.18,0.08132694668810514,0.2,1.0,-160.0,0,0,calibrating,0,0,0,0,0,0.0
1.4036402279998583,141,1180.53,91.7,5.0,-107.2,-0.67,0.27,0.77,-0.03,0.89,-0.09,-151.0,587.5,175.0,-0.48,-16.19,0.01,0.0,0.8950418984606252,1.0557935404235053,0.0,0.0,2.0,0.6,1.2,100.0,1.0,0.18,0.0840692110761494,0.2,1.0,-160.0,0,0,calibrating,0,0,0,0,0,0.0
1.4121171079998476,142,1180.54,91.6,5.1,-107.2,-0.54,0.09,0.86,-0.05,0.87,-0.08,-144.9,615.6,286.0,-0.65,-17.17,-0.02,0.0,0.8750999942863672,1.019460641712077,0.0,0.0,2.0,0.6,1.2,100.0,1.0,0.18,0.10193089294539914,0.2,1.0,-160.0,0,0,calibrating,0,0,0,0,0,0.0
1.4235645349999686,143,1180.55,91.6,5.2,-107.2,-0.32,-0.18,0.93,-0.06,0.85,-0.07,-138.6,640.3,236.0,-0.83,-17.71,-0.08,0.0,0.8549853799919622,0.9998499887483122,0.0,0.0,2.0,0.6,1.2,100.0,1.0,0.18,0.11960459709500826,0.2,1.0,-160.0,0,0,calibrating,0,0,0,0,0,0.0
1.4323629999998957,144,1180.56,91.5,5.3,-107.2,0.0,-0.57,0.92,-0.07,0.82,-0.07,-132.0,661.6,165.0,-1.01,-18.03,-0.09,0.0,0.8259539938761722,1.082266141020775,0.0,0.0,2.0,0.6,1.2,100.0,1.0,0.18,0.1456632635465822,0.2,1.0,-160.0,0,0,calibrating,0,0,0,0,0,0.0
1.4434183589999066,145,1180.57,91.6,5.4,-107.1,0.43,-1.0,0.79,-0.07,0.79,-0.07,-125.3,682.6,254.0,-1.2,-18.92,0.05,0.0,0.7961783719745219,1.3449907062875937,0.0,0.0,2.0,0.6,1.2,100.0,1.0,0.18,0.17193010773926787,0.2,1.0,-160.0,0,0,calibrating,0,0,0,0,0,0.0
1.4523049469999023,146,1180.58,91.7,5.5,-107.0,0.99,-1.38,0.57,-0.04,0.79,-0.11,-118.3,696.8,132.0,-1.39,-19.05,-0.19,0.0,0.7986238163240564,1.7914798352200338,0.0,0.0,2.0,0.6,1.2,100.0,1.0,0.18,0.16609497012193863,0.2,1.0,-160.0,0,0,calibrating,0,0,0,0,0,0.0
1.4634902199998123,147,1180.59,91.8,5.5,-106.8,1.56,-1.58,0.32,-0.01,0.83,-0.15,-111.3,708.8,168.0,-1.58,-19.59,0.01,0.0,0.8435045939412541,2.243301138946798,0.0,0.0,2.0,0.6,1.2,100.0,1.0,0.18,0.11878990865464611,0.2,1.0,-160.0,0,0,calibrating,0,0,0,0,0,0.0
1.4723626699999386,148,1180.6,92.0,5.5,-106.7,1.92,-1.62,0.15,0.0,0.89,-0.18,-104.1,724.8,77.0,-1.78,-19.63,-0.18,0.0,0.9080198235721508,2.516604855753084,0.0,0.0,2.0,0.6,1.2,100.0,1.0,0.18,0.053189185443274445,0.2,1.0,-160.0,0,0,calibrating,0,0,0,0,0,0.0
1.483365047999996,149,1180.61,92.2,5.5,-106.5,2.09,-1.51,0.05,0.02,0.93,-0.22,-96.8,730.8,57.0,-1.97,-19.76,-0.04,0.0,0.9558765610684259,2.578895112252532,0.0,0.0,2.0,0.6,1.2,100.0,1.0,0.18,0.005225798988059416,0.2,1.0,-160.0,0,0,calibrating,0,0,0,0,0,0.0
1.4922432219998427,150,1180.62,92.4,5.5,-106.4,2.11,-1.37,-0.03,0.06,0.96,-0.26,-89.6,706.4,-228.0,-2.17,-18.62,0.28,0.0,0.996393496566492,2.515929251787498,0.0,0.0,2.0,0.6,1.2,100.0,1.0,0.18,0.03458531377980656,0.2,1.0,-160.0,0,0,calibrating,0,0,0,0,0,0.0
1.503595095999799,151,1180.63,92.7,5.5,-106.2,1.96,-1.19,0.05,-0.01,1.03,-0.27,-83.1,616.1,-896.0,-2.33,-15.06,0.45,0.0,1.0648474069086142,2.2935125898935023,0.0,0.0,2.0,0.6,1.2,100.0,1.0,0.18,0.10097843963949016,0.2,1.0,-160.0,0,0,calibrating,0,0,0,0,0,0.0
1.5158942240000215,152,1180.64,92.9,5.5,-106.1,1.6,-1.27,0.3,-0.04,1.08,-0.3,-77.8,498.5,-1001.0,-2.46,-12.22,0.59,0.0,1.1216059914247962,2.0646791518296492,0.0,0.0,2.0,0.6,1.2,100.0,1.0,0.18,0.15458228367255866,0.2,1.0,-160.0,0,0,calibrating,0,0,0,0,0,0.0
1.5280728689999705,153,1180.65,93.0,5.5,-106.0,2.13,-1.51,0.08,0.17,1.03,-0.3,-73.8,342.8,-1613.0,-2.54,-6.75,0.57,0.0,1.0861859877571611,2.6121638539724112,0.0,0.0,2.0,0.6,1.2,100.0,1.0,0.18,0.11677903440482507,0.2,1.0,-160.0,0,0,calibrating,0,0,0,0,0,0.0
1.5364126289998694,154,1180.66,93.3,5.5,-105.8,2.91,-1.01,0.08,-0.09,1.22,-0.18,-71.8,127.3,-2010.0,-2.57,-0.67,0.8,0.0,1.2364869590901475,3.0813308812913944,0.0,0.0,2.0,0.6,1.2,100.0,1.0,0.18,0.26173840562305517,0.2,1.0,-160.0,0,0,calibrating,0,0,0,0,0,0.0
1.5442271599999913,155,1180.67,93.6,5.5,-105.7,3.18,-2.11,-0.74,0.06,1.18,-0.2,-72.0,-61.6,-1607.0,-2.55,2.9,0.28,0.0,1.1983321743156194,3.887428455933305,0.0,0.0,2.0,0.6,1.2,100.0,1.0,0.18,0.21911194843155657,0.2,1.0,-160.0,0,0,calibrating,0,0,0,0,0,0.0
1.5564069199999722,156,1180.68,94.0,5.4,-105.5,3.18,-2.2,-1.63,0.29,1.33,-0.11,-73.2,-145.0,-1009.0,-2.51,4.72,0.35,0.0,1.365686640485291,4.196343646557083,0.0,0.0,2.0,0.6,1.2,100.0,1.0,0.18,0.37873708630920355,0.2,1.0,-160.0,0,0,calibrating,0,0,0,0,0,0.0
1.5684744109998974,157,1180.69,94.3,5.1,-105.3,2.77,-2.08,-2.96,0.39,1.4,-0.13,-75.0,-196.8,-614.0,-2.45,5.76,0.15,0.0,1.4591093173576817,4.556413062925705,0.0,0.0,2.0,0.6,1.2,100.0,1.0,0.18,0.46271656791796234,0.2,1.0,-160.0,0,0,calibrating,0,0,0,0,0,0.0
1.5763095339998472,158,1180.7,94.5,4.8,-105.1,1.2,-1.9,-3.59,0.44,1.35,-0.12,-77.2,-227.3,-389.0,-2.39,6.46,0.1,0.0,1.424956139675885,4.235339419692358,0.0,0.0,2.0,0.6,1.2,100.0,1.0,0.18,0.41999212243144224,0.2,1.0,-160.0,0,0,calibrating,0,0,0,0,0,0.0
1.5842320849999396,159,1180.71,94.7,4.4,-105.0,1.2,-0.82,-3.83,0.31,1.35,-0.07,-79.6,-246.3,-220.0,-2.32,6.81,-0.07,0.0,1.386903024728117,4.096498504820916,0.0,0.0,2.0,0.6,1.2,100.0,1.0,0.18,0.3743002273340008,0.2,1.0,-160.0,0,0,calibrating,0,0,0,0,0,0.0
1.592108392,160,1180.72,94.8,4.0,-105.0,2.14,0.0,-3.76,0.26,1.28,-0.01,-82.2,-253.8,-117.0,-2.25,6.97,-0.12,0.0,1.306177629574171,4.326337943341921,0.0,0.0,2.0,0.6,1.2,100.0,1.0,0.18,0.28770333553645355,0.2,1.0,-160.0,0,0,calibrating,0,0,0,0,0,0.0
1.6036191839998537,161,1180.73,95.1,3.6,-105.1,3.25,1.04,-3.46,0.16,1.37,0.09,-84.7,-257.8,-61.0,-2.18,7.04,0.17,0.0,1.382244551445221,4.859598748868058,0.0,0.0,2.0,0.6,1.2,100.0,1.0,0.18,0.3564948522593536,0.2,1.0,-160.0,0,0,calibrating,0,0,0,0,0,0.0
1.6121161769999617,162,1180.74,95.4,3.3,-105.2,3.3,1.68,-2.83,0.03,1.44,0.11,-87.3,-262.8,-63.0,-2.11,7.24,0.02,0.0,1.4445068362593512,4.6606115478550665,0.0,0.0,2.0,0.6,1.2,100.0,1.0,0.18,0.41038199433201394,0.2,1.0,-160.0,0,0,calibrating,0,0,0,0,0,0.0
1.6236406369998804,163,1180.75,95.7,3.1,-105.4,2.42,1.68,-1.8,-0.15,1.47,0.18,-90.0,-267.8,-34.0,-2.04,7.27,-0.02,0.0,1.4885563476066332,3.4523615106184926,0.0,0.0,2.0,0.6,1.2,100.0,1.0,0.18,0.44534287556571006,0.2,1.0,-160.0,0,0,calibrating,0,0,0,0,0,0.0
1.6322586269998283,164,1180.76,95.8,3.0,-105.6,1.12,0.8,-0.69,-0.32,1.38,0.24,-92.7,-263.7,24.0,-1.97,7.1,0.18,0.0,1.4368020044529446,1.5396428157205815,0.0,0.0,2.0,0.6,1.2,100.0,1.0,0.18,0.3857167617637809,0.2,1.0,-160.0,0,0,calibrating,0,0,0,0,0,0.0
1.6435797369999818,165,1180.77,95.9,3.0,-105.6,0.32,-0.69,0.02,-0.42,1.21,0.33,-95.3,-259.5,31.0,-1.9,7.01,0.01,0.0,1.322648857406984,0.7608547824650903,0.0,0.0,2.0,0.6,1.2,100.0,1.0,0.18,0.26613234242346384,0.2,1.0,-160.0,0,0,calibrating,0,0,0,0,0,0.0
1.6521055669998077,166,1180.78,95.9,3.0,-105.4,0.09,-2.89,0.33,-0.43,1.1,0.39,-97.8,-253.9,65.0,-1.83,6.77,-0.02,0.0,1.2437845472588893,2.9101718162335364,0.0,0.0,2.0,0.6,1.2,100.0,1.0,0.18,0.1835226716298619,0.2,1.0,-160.0,0,0,calibrating,0,0,0,0,0,0.0
1.6636688819999108,167,1180.79,96.0,3.0,-105.0,-0.07,-4.82,0.35,-0.37,1.06,0.38,-100.3,-240.8,125.0,-1.76,6.33,0.01,0.0,1.1852847759083047,4.833197699246329,0.0,0.0,2.0,0.6,1.2,100.0,1.0,0.18,0.12252244227369169,0.2,1.0,-160.0,0,0,calibrating,0,0,0,0,0,0.0
1.6721672959999978,168,1180.8,96.0,3.0,-104.4,-0.48,-6.21,0.17,-0.3,1.01,0.3,-102.6,-222.3,169.0,-1.7,5.81,-0.13,0.0,1.0954907576059234,6.230842639643534,0.0,0.0,2.0,0.6,1.2,100.0,1.0,0.18,0.03207385549188424,0.2,1.0,-160.0,0,0,calibrating,0,0,0,0,0,0.0
1.6836060910000015,169,1180.81,95.9,2.9,-103.8,-0.85,-6.96,-0.15,-0.2,0.98,0.26,-104.6,-200.9,214.0,-1.65,5.14,-0.17,0.0,1.0334408546211051,7.0133159061887405,0.0,0.0,2.0,0.6,1.2,100.0,1.0,0.18,0.029376526543075654,0.2,1.0,-160.0,0,0,calibrating,0,0,0,0,0,0.0
1.6921695099999852,170,1180.82,95.9,2.8,-103.1,-0.92,-7.42,-0.49,-0.07,0.97,0.19,-106.5,-173.7,262.0,-1.6,4.35,-0.03,0.0,0.9909086738948246,7.492856598120639,0.0,0.0,2.0,0.6,1.2,100.0,1.0,0.18,0.07047053312396889,0.2,1.0,-160.0,0,0,calibrating,0,0,0,0,0,0.0
1.7034586049999234,171,1180.83,95.8,2.6,-102.3,-1.05,-7.37,-0.74,0.05,0.98,0.08,-108.0,-142.2,307.0,-1.56,3.44,-0.2,0.0,0.9845303448853163,7.481109543376571,0.0,0.0,2.0,0.6,1.2,100.0,1.0,0.18,0.07531188489080776,0.2,1.0,-160.0,0,0,calibrating,0,0,0,0,0,0.0
1.7123192249998738,172,1180.84,95.7,2.5,-101.6,-1.45,-7.03,-0.79,0.15,1.0,0.0,-109.2,-105.5,356.0,-1.54,2.41,-0.05,0.0,1.0111874208078342,7.22132259354199,0.0,0.0,2.0,0.6,1.2,100.0,1.0,0.18,0.04768171278892419,0.2,1.0,-160.0,0,0,calibrating,0,0,0,0,0,0.0
1.7235366349998458,173,1180.85,95.6,2.4,-101.0,-1.77,-6.38,-0.61,0.21,0.99,-0.05,-110.0,-66.9,372.0,-1.52,1.36,-0.22,0.0,1.0132620588969075,6.649014964639499,0.0,0.0,2.0,0.6,1.2,100.0,1.0,0.18,0.04469493320585394,0.2,1.0,-160.0,0,0,calibrating,0,0,0,0,0,0.0
1.7323409699999957,174,1180.86,95.4,2.3,-100.4,-1.93,-5.6,-0.34,0.25,0.96,-0.08,-110.4,-31.3,355.0,-1.51,0.41,-0.3,0.0,0.995238664843765,5.933000927018299,0.0,0.0,2.0,0.6,1.2,100.0,1.0,0.18,0.061463960713816546,0.2,1.0,-160.0,0,0,calibrating,0,0,0,0,0,0.0
1.7436119970000163,175,1180.87,95.2,2.2,-99.9,-1.83,-4.81,-0.02,0.27,0.91,-0.1,-110.4,1.7,308.0,-1.52,-0.32,-0.04,0.0,0.9544631999192007,5.146396797760545,0.0,0.0,2.0,0.6,1.2,100.0,1.0,0.18,0.10019463712561316,0.2,1.0,-160.0,0,0,calibrating,0,0,0,0,0,0.0
1.7520036280000113,176,1180.88,95.1,2.2,-99.4,-1.5,-4.05,0.29,0.25,0.87,-0.1,-110.3,11.0,97.0,-1.52,-0.22,-0.04,0.0,0.9107140056021978,4.328579443651231,0.0,0.0,2.0,0.6,1.2,100.0,1.0,0.18,0.1410649548137637,0.2,1.0,-160.0,0,0,calibrating,0,0,0,0,0,0.0
1.7634777569999187,177,1180.89,95.0,2.2,-99.0,-0.87,-3.34,0.58,0.23,0.85,-0.1,-110.3,3.0,-24.0,-1.52,0.02,-0.09,0.0,0.8862279616441809,3.499842853615002,0.0,0.0,2.0,0.6,1.2,100.0,1.0,0.18,0.162239978796345,0.2,1.0,-160.0,0,0,calibrating,0,0,0,0,0,0.0
1.7723622999999407,178,1180.9,95.0,2.2,-98.7,-0.26,-2.75,0.85,0.21,0.88,-0.09,-110.3,-3.8,-41.0,-1.52,0.15,0.03,0.0,0.9091754506144565,2.8900865038956876,0.0,0.0,2.0,0.6,1.2,100.0,1.0,0.18,0.13650664002954804,0.2,1.0,-160.0,0,0,calibrating,0,0,0,0,0,0.0
1.7835522969999147,179,1180.91,95.0,2.3,-98.5,0.04,-2.3,1.04,0.18,0.92,-0.08,-110.4,-7.2,-28.0,-1.52,0.21,-0.11,0.0,0.940850678907126,2.5245197563100983,0.0,0.0,2.0,0.6,1.2,100.0,1.0,0.18,0.10273478350214083,0.2,1.0,-160.0,0,0,calibrating,0,0,0,0,0,0.0
1.791904686999942,180,1180.92,95.0,2.4,-98.3,0.0,-2.01,1.16,0.16,0.94,-0.08,-110.4,-7.2,-4.0,-1.51,0.19,0.11,0.0,0.9568698971124548,2.3207110979180494,0.0,0.0,2.0,0.6,1.2,100.0,1.0,0.18,0.08498125399087575,0.2,1.0,-160.0,0,0,calibrating,0,0,0,0,0,0.0
1.8035854789998211,181,1180.93,95.0,2.6,-98.1,-0.31,-1.85,1.22,0.15,0.95,-0.08,-110.5,-8.7,-32.0,-1.51,0.33,-0.03,0.0,0.965090669315583,2.2376326776305353,0.0,0.0,2.0,0.6,1.2,100.0,1.0,0.18,0.0752252721519926,0.2,1.0,-160.0,0,0,calibrating,0,0,0,0,0,0.0
1.8121669059999022,182,1180.94,94.9,2.7,-97.9,-0.77,-1.78,1.17,0.15,0.93,-0.08,-110.7,-20.9,-110.0,-1.5,0.76,0.06,0.0,0.9454099639838793,2.26499448122948,0.0,0.0,2.0,0.6,1.2,100.0,1.0,0.18,0.09300785793402222,0.2,1.0,-160.0,0,0,calibrating,0,0,0,0,0,0.0
1.8233326769998257,183,1180.95,94.8,2.9,-97.7,-1.09,-1.69,1.08,0.16,0.9,-0.07,-111.0,-36.7,-135.0,-1.49,1.16,-0.01,0.0,0.9167878707749137,2.282673870705143,0.0,0.0,2.0,0.6,1.2,100.0,1.0,0.18,0.11919735212012816,0.2,1.0,-160.0,0,0,calibrating,0,0,0,0,0,0.0
1.8320643549998294,184,1180.96,94.7,3.0,-97.5,-1.21,-1.55,0.95,0.17,0.87,-0.06,-111.5,-48.7,-117.0,-1.48,1.46,-0.02,0.0,0.8884818512496472,2.1838269162184076,0.0,0.0,2.0,0.6,1.2,100.0,1.0,0.18,0.1445533042124869,0.2,1.0,-160.0,0,0,calibrating,0,0,0,0,0,0.0
1.8434719729998505,185,1180.97,94.6,3.1,-97.4,-1.16,-1.43,0.83,0.18,0.86,-0.06,-112.0,-59.1,-106.0,-1.46,1.73,0.09,0.0,0.8806815542521599,2.019752460080195,0.0,0.0,2.0,0.6,1.2,100.0,1.0,0.18,0.14930652918577458,0.2,1.0,-160.0,0,0,calibrating,0,0,0,0,0,0.0
1.8562100829999508,186,1180.98,94.5,3.2,-97.2,-1.01,-1.26,0.74,0.19,0.86,-0.08,-112.7,-69.5,-100.0,-1.44,1.99,0.11,0.0,0.8843641783790205,1.7763164132552511,0.0,0.0,2.0,0.6,1.2,100.0,1.0,0.18,0.14271142695773575,0.2,1.0,-160.0,0,0,calibrating,0,0,0,0,0,0.0
1.8684159689998978,187,1180.99,94.4,3.2,-97.1,-0.82,-1.02,0.72,0.19,0.85,-0.1,-113.4,-76.9,-75.0,-1.43,2.15,0.11,0.0,0.8766983517721474,1.4937201879870272,0.0,0.0,2.0,0.6,1.2,100.0,1.0,0.18,0.14736970849331676,0.2,1.0,-160.0,0,0,calibrating,0,0,0,0,0,0.0
1.8762765779999881,188,1181.0,94.4,3.3,-97.0,-0.66,-0.72,0.72,0.19,0.84,-0.11,-114.0,-79.8,-55.0,-1.4,2.19,0.11,0.0,0.8682165628459295,1.213424904969401,0.0,0.0,2.0,0.6,1.2,100.0,1.0,0.18,0.15273446747114394,0.2,1.0,-160.0,0,0,calibrating,0,0,0,0,0,0.0
1.8841601359999913,189,1181.01,94.3,3.4,-96.9,-0.56,-0.4,0.75,0.17,0.84,-0.13,-115.0,-81.0,-27.0,-1.38,2.25,0.15,0.0,0.8668333173107734,1.0178899744078433,0.0,0.0,2.0,0.6,1.2,100.0,1.0,0.18,0.15103535874617424,0.2,1.0,-160.0,0,0,calibrating,0,0,0,0,0,0.0
1.892079706000004,190,1181.02,94.3,3.5,-96.9,-0.43,-0.11,0.77,0.16,0.84,-0.13,-115.9,-83.2,-20.0,-1.35,2.26,0.14,0.0,0.8649277426467484,0.8887631855561975,0.0,0.0,2.0,0.6,1.2,100.0,1.0,0.18,0.1498821147419952,0.2,1.0,-160.0,0,0,calibrating,0,0,0,0,0,0.0
1.903665361999856,191,1181.03,94.2,3.5,-96.9,-0.32,0.07,0.79,0.14,0.84,-0.13,-116.7,-82.6,3.0,-1.33,2.22,-0.05,0.0,0.8614522621712708,0.855219270129012,0.0,0.0,2.0,0.6,1.2,100.0,1.0,0.18,0.15029044331312336,0.2,1.0,-160.0,0,0,calibrating,0,0,0,0,0,0.0
1.9123687769999833,192,1181.04,94.2,3.6,-96.9,-0.29,0.18,0.76,0.14,0.85,-0.14,-117.5,-80.8,12.0,-1.31,2.18,0.0,0.0,0.8727542609463445,0.8331266410336425,0.0,0.0,2.0,0.6,1.2,100.0,1.0,0.18,0.13620867564728878,0.2,1.0,-160.0,0,0,calibrating,0,0,0,0,0,0.0
1.9237047429999166,193,1181.05,94.2,3.7,-96.9,-0.35,0.19,0.67,0.14,0.86,-0.15,-118.3,-79.3,15.0,-1.29,2.13,-0.34,0.0,0.8841379982785492,0.7794228634059948,0.0,0.0,2.0,0.6,1.2,100.0,1.0,0.18,0.12232843954878236,0.2,1.0,-160.0,0,0,calibrating,0,0,0,0,0,0.0
1.93224184099995,194,1181.06,94.1,3.7,-96.9,-0.51,0.18,0.52,0.15,0.85,-0.17,-119.1,-76.9,28.0,-1.27,2.01,-0.12,0.0,0.8797158632194829,0.7502666192761077,0.0,0.0,2.0,0.6,1.2,100.0,1.0,0.18,0.12421556311569171,0.2,1.0,-160.0,0,0,calibrating,0,0,0,0,0,0.0
1.9435611389999394,195,1181.07,94.0,3.8,-97.0,-0.71,0.17,0.29,0.16,0.82,-0.19,-119.8,-73.3,21.0,-1.25,1.99,0.06,0.0,0.856796358535679,0.7855571271397135,0.0,0.0,2.0,0.6,1.2,100.0,1.0,0.18,0.14419236644350564,0.2,1.0,-160.0,0,0,calibrating,0,0,0,0,0,0.0
1.9521865679998882,196,1181.08,94.0,3.8,-97.0,-0.89,0.2,-0.04,0.18,0.76,-0.2,-120.6,-72.4,19.0,-1.23,1.93,0.04,0.0,0.806225774829855,0.9130717386930778,0.0,0.0,2.0,0.6,1.2,100.0,1.0,0.18,0.19086769114634305,0.2,1.0,-160.0,0,0,calibrating,0,0,0,0,0,0.0
1.9634752219999427,197,1181.09,93.9,3.8,-97.0,-0.95,0.35,-0.47,0.19,0.72,-0.22,-121.3,-70.4,13.0,-1.21,1.91,-0.14,0.0,0.7764663547121665,1.1161989070053777,0.0,0.0,2.0,0.6,1.2,100.0,1.0,0.18,0.21621456903875091,0.2,1.0,-160.0,0,0,calibrating,0,0,0,0,0,0.0
1.9723254929999712,198,1181.1,93.8,3.7,-97.1,-0.79,0.58,-0.79,0.2,0.71,-0.23,-122.0,-69.1,16.0,-1.19,1.85,-0.05,0.0,0.7726577508832743,1.2588089608832629,0.0,0.0,2.0,0.6,1.2,100.0,1.0,0.18,0.21562270941029027,0.2,1.0,-160.0,0,0,calibrating,0,0,0,0,0,0.0
1.9835876449999432,199,1181.11,93.7,3.6,-97.1,-0.51,0.95,-0.91,0.19,0.7,-0.23,-122.6,-68.2,6.0,-1.17,1.86,0.01,0.0,0.7609204951898719,1.4109216845735981,0.0,0.0,2.0,0.6,1.2,100.0,1.0,0.18,0.2228127658016188,0.2,1.0,-160.0,0,0,calibrating,0,0,0,0,0,0.0
1.9922309519999999,200,1181.12,93.7,3.5,-97.3,0.29,1.2,-0.93,0.17,0.76,-0.22,-123.3,-69.6,-8.0,-1.15,1.91,0.15,0.0,0.8092589202474076,1.5456390264224051,0.0,0.0,2.0,0.6,1.2,100.0,1.0,0.18,0.17098485392920137,0.2,1.0,-160.0,0,0,calibrating,0,0,0,0,0,0.0
2.003509930999826,201,1181.13,93.7,3.5,-97.4,0.81,1.37,-0.85,0.13,0.8,-0.21,-124.1,-73.9,-40.0,-1.13,2.08,0.01,0.0,0.8372574275573793,1.804300418444778,0.0,0.0,2.0,0.6,1.2,100.0,1.0,0.18,0.14012661968684526,0.2,1.0,-160.0,0,0,calibrating,0,0,0,0,0,0.0
2.0120982939999976,202,1181.14,93.8,3.4,-97.5,1.15,1.43,-0.82,0.1,0.82,-0.2,-124.8,-79.3,-51.0,-1.11,2.23,0.1,0.0,0.849941174435031,2.009925371748911,0.0,0.0,2.0,0.6,1.2,100.0,1.0,0.18,0.12489401535300959,0.2,1.0,-160.0,0,0,calibrating,0,0,0,0,0,0.0
2.023617929000011,203,1181.15,94.0,3.3,-97.7,1.24,1.46,-0.89,0.09,0.84,-0.2,-125.7,-87.3,-77.0,-1.09,2.48,0.18,0.0,0.8681589716175258,2.1121789696898317,0.0,0.0,2.0,0.6,1.2,100.0,1.0,0.18,0.10454269380710457,0.2,1.0,-160.0,0,0,calibrating,0,0,0,0,0,0.0
2.032361432000016,204,1181.16,94.1,3.2,-97.8,1.3,1.47,-0.98,0.1,0.86,-0.2,-126.6,-97.9,-103.0,-1.06,2.81,0.04,0.0,0.8885943956609225,2.1934675744127152,0.0,0.0,2.0,0.6,1.2,100.0,1.0,0.18,0.08242512436843374,0.2,1.0,-160.0,0,0,calibrating,0,0,0,0,0,0.0
2.0436125090000132,205,1181.17,94.2,3.1,-98.0,1.42,1.51,-0.97,0.1,0.9,-0.19,-127.7,-110.1,-119.0,-1.03,3.15,0.01,0.0,0.9252567211320327,2.288536650351049,0.0,0.0,2.0,0.6,1.2,100.0,1.0,0.18,0.04484754291937698,0.2,1.0,-160.0,0,0,calibrating,0,0,0,0,0,0.0
2.0523541189998014,206,1181.18,94.4,3.1,-98.2,1.64,1.5,-0.75,0.09,0.97,-0.14,-128.9,-123.3,-137.0,-1.0,3.55,0.03,0.0,0.9841747812253675,2.3456555586871657,0.0,0.0,2.0,0.6,1.2,100.0,1.0,0.18,0.013789106830478626,0.2,1.0,-160.0,0,0,calibrating,0,0,0,0,0,0.0
2.0636370319998605,207,1181.19,94.5,3.0,-98.3,1.76,1.35,-0.34,0.06,1.05,-0.07,-130.2,-139.9,-161.0,-0.96,4.02,0.05,0.0,1.0540398474441086,2.2440365415919588,0.0,0.0,2.0,0.6,1.2,100.0,1.0,0.18,0.08198108958823536,0.2,1.0,-160.0,0,0,calibrating,0,0,0,0,0,0.0
2.072230776999959,208,1181.2,94.7,3.0,-98.4,1.67,0.9,0.02,0.02,1.09,-0.03,-131.8,-159.0,-186.0,-0.91,4.57,0.06,0.0,1.090596167240652,1.8971821209362056,0.0,0.0,2.0,0.6,1.2,100.0,1.0,0.18,0.1161666611970833,0.2,1.0,-160.0,0,0,calibrating,0,0,0,0,0,0.0
2.0836141789998237,209,1181.21,94.8,3.0,-98.5,1.2,0.21,0.22,0.01,1.1,-0.05,-133.5,-178.1,-181.0,-0.87,5.03,0.15,0.0,1.101181184001979,1.2379418403139948,0.0,0.0,2.0,0.6,1.2,100.0,1.0,0.18,0.12421664439924196,0.2,1.0,-160.0,0,0,calibrating,0,0,0,0,0,0.0
2.092290888999969,210,1181.22,94.9,3.0,-98.5,0.52,-0.52,0.13,0.01,1.03,-0.19,-135.4,-194.2,-157.0,-0.81,5.43,0.08,0.0,1.0474254150057654,0.7467931440499438,0.0,0.0,2.0,0.6,1.2,100.0,1.0,0.18,0.06905165789496781,0.2,1.0,-160.0,0,0,calibrating,0,0,0,0,0,0.0
2.103634730999829,211,1181.23,94.9,3.0,-98.4,0.11,-0.92,-0.07,0.05,1.01,-0.34,-137.4,-208.1,-142.0,-0.75,5.8,0.02,0.0,1.0668645649753299,0.9291931984253867,0.0,0.0,2.0,0.6,1.2,100.0,1.0,0.18,0.08672099170724168,0.2,1.0,-160.0,0,0,calibrating,0,0,0,0,0,0.0
2.112219865999805,212,1181.24,95.0,3.0,-98.3,0.43,-0.92,0.1,0.1,1.11,-0.36,-139.6,-222.3,-150.0,-0.69,6.24,0.11,0.0,1.1711959699384216,1.020441081101697,0.0,0.0,2.0,0.6,1.2,100.0,1.0,0.18,0.1872313487369267,0.2,1.0,-160.0,0,0,calibrating,0,0,0,0,0,0.0
2.1234696409999287,213,1181.25,95.1,3.0,-98.2,1.36,-0.78,0.62,0.13,1.15,-0.37,-141.9,-240.4,-185.0,-0.63,6.8,0.18,0.0,1.2150308638055247,1.6859418732566078,0.0,0.0,2.0,0.6,1.2,100.0,1.0,0.18,0.2264449177519493,0.2,1.0,-160.0,0,0,calibrating,0,0,0,0,0,0.0
2.1323356099999273,214,1181.26,95.3,3.1,-98.1,2.13,-0.57,1.28,0.17,1.27,-0.33,-144.5,-261.1,-193.0,-0.56,7.33,0.15,0.0,1.3231402042111788,2.5495489797217075,0.0,0.0,2.0,0.6,1.2,100.0,1.0,0.18,0.32786317299445134,0.2,1.0,-160.0,0,0,calibrating,0,0,0,0,0,0.0
2.143660254999986,215,1181.27,95.5,3.3,-98.1,2.34,-0.3,1.93,0.15,1.29,-0.32,-147.2,-279.1,-183.0,-0.48,7.82,0.23,0.0,1.3375350462698166,3.0480321520613916,0.0,0.0,2.0,0.6,1.2,100.0,1.0,0.18,0.3354128547520272,0.2,1.0,-160.0,0,0,calibrating,0,0,0,0,0,0.0
2.152331545999914,216,1181.28,95.7,3.5,-98.0,2.33,-0.25,2.18,0.15,1.23,-0.29,-150.2,-299.6,-216.0,-0.4,8.46,0.26,0.0,1.2725957724273642,3.2005936949259897,0.0,0.0,2.0,0.6,1.2,100.0,1.0,0.18,0.26506410929138324,0.2,1.0,-160.0,0,0,calibrating,0,0,0,0,0,0.0
2.1638399839998783,217,1181.29,95.9,3.7,-98.0,2.06,0.0,2.21,0.18,1.22,-0.32,-153.3,-325.6,-241.0,-0.31,9.15,0.31,0.0,1.2740486646906388,3.021208367524491,0.0,0.0,2.0,0.6,1.2,100.0,1.0,0.18,0.26118666152356473,0.2,1.0,-160.0,0,0,calibrating,0,0,0,0,0,0.0
2.172194931999911,218,1181.3,96.2,3.9,-98.0,1.86,0.02,2.25,0.16,1.3,-0.24,-156.8,-351.9,-264.0,-0.21,9.92,0.03,0.0,1.3316155601373845,2.919332115399,0.0,0.0,2.0,0.6,1.2,100.0,1.0,0.18,0.3123784858309042,0.2,1.0,-160.0,0,0,calibrating,0,0,0,0,0,0.0
2.1836119989998224,219,1181.31,96.4,4.2,-97.9,1.65,0.17,2.48,0.1,1.44,-0.17,-160.5,-384.3,-317.0,-0.1,10.87,0.13,0.0,1.4534441853748632,2.983588443468703,0.0,0.0,2.0,0.6,1.2,100.0,1.0,0.18,0.42552296884701524,0.2,1.0,-160.0,0,0,calibrating,0,0,0,0,0,0.0
2.192375204999962,220,1181.32,96.5,4.4,-97.9,1.43,0.5,3.0,0.06,1.64,-0.06,-164.6,-412.5,-249.0,0.0,11.42,0.09,0.0,1.6421936548409872,3.3607885979335266,0.0,0.0,2.0,0.6,1.2,100.0,1.0,0.18,0.6019869895468766,0.2,1.0,-160.0,0,0,calibrating,0,0,0,0,0,0.0
2.2036300269999174,221,1181.33,96.6,4.8,-98.0,0.65,0.86,3.72,0.02,1.8,0.02,-168.8,-435.4,-271.0,0.12,12.23,0.12,0.0,1.8002222085064943,3.8730478953919487,0.0,0.0,2.0,0.6,1.2,100.0,1.0,0.18,0.7448152323481358,0.2,1.0,-160.0,0,0,calibrating,0,0,0,0,0,0.0
2.2120999679998476,222,1181.34,96.6,5.2,-98.0,-0.65,1.09,4.16,-0.06,1.69,0.05,-173.4,-460.3,-213.0,0.24,12.68,0.03,0.0,1.6918037711271363,4.349275801785856,0.0,0.0,2.0,0.6,1.2,100.0,1.0,0.18,0.6236688590694024,0.2,1.0,-160.0,0,0,calibrating,0,0,0,0,0,0.0
2.2236212169998453,223,1181.35,96.4,5.6,-98.1,-1.85,0.87,3.87,-0.03,1.42,0.07,-178.1,-476.5,-206.0,0.37,13.24,0.03,0.0,1.4220407870381215,4.376791061953952,0.0,0.0,2.0,0.6,1.2,100.0,1.0,0.18,0.34682775748077965,0.2,1.0,-160.0,0,0,calibrating,0,0,0,0,0,0.0
2.232391635999875,224,1181.36,96.2,6.0,-98.1,-2.46,0.62,3.18,0.13,1.15,0.11,-183.0,-494.1,-126.0,0.51,13.44,0.11,0.0,1.162540321881353,4.067972467950097,0.0,0.0,2.0,0.6,1.2,100.0,1.0,0.18,0.08558074647753111,0.2,1.0,-160.0,0,0,calibrating,0,0,0,0,0,0.0
2.24364777400001,225,1181.37,96.0,6.2,-98.1,-2.14,0.6,2.44,0.31,0.94,0.12,-187.9,-495.7,-67.0,0.64,13.54,0.01,0.0,0.9970456358662826,3.300484812872194,0.0,0.0,2.0,0.6,1.2,100.0,1.0,0.18,0.07831566074678853,0.2,1.0,-160.0,0,0,calibrating,0,0,0,0,0,0.0
2.2523252839998804,226,1181.38,95.8,6.5,-98.2,-1.46,0.93,1.78,0.41,0.78,0.06,-192.9,-500.6,-57.0,0.78,13.68,-0.13,0.0,0.8832326986700617,2.4829216661022553,0.0,0.0,2.0,0.6,1.2,100.0,1.0,0.18,0.18828602598414934,0.2,1.0,-160.0,0,0,calibrating,0,0,0,0,0,0.0
2.263651206999839,227,1181.39,95.7,6.6,-98.3,-0.64,1.65,1.19,0.44,0.74,0.0,-198.0,-509.9,-82.0,0.92,13.94,-0.04,0.0,0.8609297300012353,2.132650932525058,0.0,0.0,2.0,0.6,1.2,100.0,1.0,0.18,0.20637721475991633,0.2,1.0,-160.0,0,0,calibrating,0,0,0,0,0,0.0
2.272196602999884,228,1181.4,95.6,6.7,-98.5,0.04,2.91,0.74,0.42,0.75,0.02,-203.1,-504.2,53.0,1.06,13.57,-0.37,0.0,0.8598255637046388,3.002881949061601,0.0,0.0,2.0,0.6,1.2,100.0,1.0,0.18,0.20333175343538246,0.2,1.0,-160.0,0,0,calibrating,0,0,0,0,0,0.0
2.2836295039999186,229,1181.41,95.6,6.8,-98.9,0.1,3.91,0.55,0.35,0.84,0.12,-208.1,-495.3,88.0,1.19,13.26,-0.21,0.0,0.9178779875342908,3.9497594863485044,0.0,0.0,2.0,0.6,1.2,100.0,1.0,0.18,0.14237374301361572,0.2,1.0,-160.0,0,0,calibrating,0,0,0,0,0,0.0
2.2923172349999277,230,1181.42,95.5,6.9,-99.3,-0.11,4.61,0.42,0.26,0.87,0.11,-212.8,-469.6,236.0,1.32,12.38,-0.32,0.0,0.91465840618233,4.630399550794726,0.0,0.0,2.0,0.6,1.2,100.0,1.0,0.18,0.14268145787826514,0.2,1.0,-160.0,0,0,calibrating,0,0,0,0,0,0.0
2.303519483999935,231,1181.43,95.4,7.0,-99.8,-0.46,5.1,0.3,0.2,0.89,0.09,-217.3,-438.9,299.0,1.43,11.46,-0.06,0.0,0.916624241442479,5.129483404788439,0.0,0.0,2.0,0.6,1.2,100.0,1.0,0.18,0.1379013101657538,0.2,1.0,-160.0,0,0,calibrating,0,0,0,0,0,0.0
2.312352803999829,232,1181.44,95.3,7.1,-100.3,-0.82,5.48,0.16,0.15,0.89,0.09,-221.4,-393.9,433.0,1.54,10.07,-0.16,0.0,0.907028114227999,5.543320304654964,0.0,0.0,2.0,0.6,1.2,100.0,1.0,0.18,0.14454748863262923,0.2,1.0,-160.0,0,0,calibrating,0,0,0,0,0,0.0
2.323579077999966,233,1181.45,95.1,7.1,-100.9,-0.97,5.66,0.02,0.08,0.89,0.1,-225.0,-345.2,450.0,1.63,8.82,-0.22,0.0,0.899166280506559,5.742551697634076,0.0,0.0,2.0,0.6,1.2,100.0,1.0,0.18,0.14936113590698774,0.2,1.0,-160.0,0,0,calibrating,0,0,0,0,0,0.0
2.332187470000008,234,1181.46,95.0,7.2,-101.5,-1.08,5.58,-0.13,0.02,0.87,0.11,-228.2,-299.6,454.0,1.71,7.59,-0.23,0.0,0.8771544903835355,5.6850417764516035,0.0,0.0,2.0,0.6,1.2,100.0,1.0,0.18,0.16794546750941097,0.2,1.0,-160.0,0,0,calibrating,0,0,0,0,0,0.0
2.343475446999946,235,1181.47,94.8,7.2,-102.0,-1.23,5.3,-0.33,-0.02,0.85,0.12,-230.8,-253.5,459.0,1.78,6.33,-0.06,0.0,0.8586617494683223,5.450853144233478,0.0,0.0,2.0,0.6,1.2,100.0,1.0,0.18,0.18270944425613178,0.2,1.0,-160.0,0,0,calibrating,0,0,0,0,0,0.0
2.352347869999903,236,1181.48,94.6,7.2,-102.5,-1.29,4.8,-0.49,-0.06,0.84,0.12,-233.1,-208.4,452.0,1.83,5.11,-0.04,0.0,0.8506468127254695,4.994416882880323,0.0,0.0,2.0,0.6,1.2,100.0,1.0,0.18,0.18690989337900488,0.2,1.0,-160.0,0,0,calibrating,0,0,0,0,0,0.0
2.363565412999833,237,1181.49,94.4,7.2,-103.0,-1.14,4.19,-0.62,-0.08,0.82,0.12,-234.8,-162.1,465.0,1.88,3.82,-1.37,0.0,0.8325863318599458,4.386353838896265,0.0,0.0,2.0,0.6,1.2,100.0,1.0,0.18,0.2008709667596379,0.2,1.0,-160.0,0,0,calibrating,0,0,0,0,0,0.0
2.3723025949998373,238,1181.5,94.3,7.1,-103.4,-0.71,3.55,-0.71,-0.09,0.81,0.12,-236.1,-112.7,485.0,1.9,2.47,-0.01,0.0,0.8237718130647589,3.689268220121708,0.0,0.0,2.0,0.6,1.2,100.0,1.0,0.18,0.20549177584372846,0.2,1.0,-160.0,0,0,calibrating,0,0,0,0,0,0.0
2.3836710189998485,239,1181.51,94.2,7.1,-103.7,-0.18,2.93,-0.81,-0.09,0.83,0.1,-236.9,-65.2,473.0,1.92,1.19,-0.09,0.0,0.8408329203831163,3.0452257715972393,0.0,0.0,2.0,0.6,1.2,100.0,1.0,0.18,0.18466205515486356,0.2,1.0,-160.0,0,0,calibrating,0,0,0,0,0,0.0
2.392249945000003,240,1181.52,94.2,7.0,-104.0,0.09,2.43,-0.89,-0.08,0.88,0.08,-237.2,-18.7,466.0,1.92,-0.05,-0.09,0.0,0.8872429205127533,2.5894207846543598,0.0,0.0,2.0,0.6,1.2,100.0,1.0,0.18,0.13548701392472207,0.2,1.0,-160.0,0,0,calibrating,0,0,0,0,0,0.0
2.4037248409999847,241,1181.53,94.1,7.0,-104.2,0.0,1.96,-0.88,-0.07,0.93,0.07,-237.1,21.7,386.0,1.92,-0.96,-0.07,0.0,0.9352539762011173,2.1484878403193255,0.0,0.0,2.0,0.6,1.2,100.0,1.0,0.18,0.08572643907163091,0.2,1.0,-160.0,0,0,calibrating,0,0,0,0,0,0.0
2.412219483999934,242,1181.54,94.1,6.9,-104.4,-0.27,1.56,-0.82,-0.04,0.95,0.05,-236.7,51.4,322.0,1.9,-1.75,0.1,0.0,0.9521554494934112,1.7829469986513902,0.0,0.0,2.0,0.6,1.2,100.0,1.0,0.18,0.06744846646375025,0.2,1.0,-160.0,0,0,calibrating,0,0,0,0,0,0.0
2.4236054549999153,243,1181.55,94.0,6.8,-104.5,-0.52,1.19,-0.75,-0.02,0.97,0.03,-236.0,79.2,284.0,1.88,-2.45,-0.07,0.0,0.9706698717895801,1.4996666296213967,0.0,0.0,2.0,0.6,1.2,100.0,1.0,0.18,0.04795536328422978,0.2,1.0,-160.0,0,0,calibrating,0,0,0,0,0,0.0
2.432246897999903,244,1181.56,94.0,6.7,-104.6,-0.85,0.94,-0.67,-0.01,0.97,0.01,-235.0,104.7,266.0,1.85,-3.16,-0.22,0.0,0.9701030873056739,1.433527118683145,0.0,0.0,2.0,0.6,1.2,100.0,1.0,0.18,0.047551704812773266,0.2,1.0,-160.0,0,0,calibrating,0,0,0,0,0,0.0
2.4435701099998823,245,1181.57,93.8,6.7,-104.7,-1.1,0.78,-0.65,-0.01,0.95,-0.01,-233.8,131.5,269.0,1.81,-3.9,-0.05,0.0,0.9501052573267869,1.496963593411677,0.0,0.0,2.0,0.6,1.2,100.0,1.0,0.18,0.06619854409582715,0.2,1.0,-160.0,0,0,calibrating,0,0,0,0,0,0.0
2.452222362999919,246,1181.58,93.7,6.6,-104.8,-1.26,0.66,-0.64,0.0,0.95,-0.02,-232.3,157.7,261.0,1.77,-4.6,-0.08,0.0,0.9502105029939418,1.5597435686676193,0.0,0.0,2.0,0.6,1.2,100.0,1.0,0.18,0.06477143246009875,0.2,1.0,-160.0,0,0,calibrating,0,0,0,0,0,0.0
2.4635880339999403,247,1181.59,93.6,6.5,-104.9,-1.33,0.54,-0.63,0.02,0.93,-0.03,-230.5,183.1,260.0,1.72,-5.31,-0.06,0.0,0.9306986622962343,1.56760964528801,0.0,0.0,2.0,0.6,1.2,100.0,1.0,0.18,0.08259760769465019,0.2,1.0,-160.0,0,0,calibrating,0,0,0,0,0,0.0
2.472193576999871,248,1181.6,93.4,6.4,-104.9,-1.32,0.4,-0.63,0.05,0.91,-0.05,-228.5,210.6,269.0,1.66,-6.05,-0.2,0.0,0.9127431182978045,1.5163442880823603,0.0,0.0,2.0,0.6,1.2,100.0,1.0,0.18,0.09854208865921832,0.2,1.0,-160.0,0,0,calibrating,0,0,0,0,0,0.0
2.483802948999937,249,1181.61,93.3,6.3,-104.9,-1.17,0.3,-0.68,0.08,0.87,-0.07,-226.2,236.1,261.0,1.59,-6.74,-0.15,0.0,0.8764701934464172,1.3861096637712327,0.0,0.0,2.0,0.6,1.2,100.0,1.0,0.18,0.1321187132403936,0.2,1.0,-160.0,0,0,calibrating,0,0,0,0,0,0.0
2.492234190999852,250,1181.62,93.2,6.3,-105.0,-0.95,0.29,-0.77,0.11,0.85,-0.09,-223.7,260.3,246.0,1.52,-7.38,-0.14,0.0,0.8618004409374597,1.2567816039392046,0.0,0.0,2.0,0.6,1.2,100.0,1.0,0.18,0.14385269643436416,0.2,1.0,-160.0,0,0,calibrating,0,0,0,0,0,0.0
2.5037003569998433,251,1181.63,93.2,6.2,-105.0,-0.66,0.35,-0.87,0.13,0.84,-0.11,-220.9,286.3,263.0,1.44,-8.12,-0.15,0.0,0.8570880934886448,1.1467344941179716,0.0,0.0,2.0,0.6,1.2,100.0,1.0,0.18,0.14559374300551553,0.2,1.0,-160.0,0,0,calibrating,0,0,0,0,0,0.0
2.5122883529998035,252,1181.64,93.1,6.1,-105.1,-0.27,0.47,-0.95,0.14,0.83,-0.12,-217.9,315.1,273.0,1.36,-8.88,-0.16,0.0,0.850235261559999,1.0937549999885714,0.0,0.0,2.0,0.6,1.2,100.0,1.0,0.18,0.149397643435478,0.2,1.0,-160.0,0,0,calibrating,0,0,0,0,0,0.0
2.5236983309998777,253,1181.65,93.1,6.0,-105.1,0.06,0.6,-0.99,0.13,0.84,-0.14,-214.5,337.5,221.0,1.26,-9.4,-0.17,0.0,0.8614522621712708,1.1591807451816993,0.0,0.0,2.0,0.6,1.2,100.0,1.0,0.18,0.1354170299677222,0.2,1.0,-160.0,0,0,calibrating,0,0,0,0,0,0.0
2.532228418999921,254,1181.66,93.1,5.9,-105.2,0.38,0.71,-0.99,0.11,0.87,-0.16,-211.0,358.2,228.0,1.17,-10.04,-0.14,0.0,0.891403387922662,1.2761661333854617,0.0,0.0,2.0,0.6,1.2,100.0,1.0,0.18,0.10335658613200438,0.2,1.0,-160.0,0,0,calibrating,0,0,0,0,0,0.0
2.5436541389999547,255,1181.67,93.2,5.9,-105.3,0.63,0.81,-0.94,0.09,0.91,-0.18,-207.3,381.8,215.0,1.06,-10.59,-0.03,0.0,0.9319871243745806,1.3916177636118332,0.0,0.0,2.0,0.6,1.2,100.0,1.0,0.18,0.06151739268648404,0.2,1.0,-160.0,0,0,calibrating,0,0,0,0,0,0.0
2.552325749999909,256,1181.68,93.2,5.8,-105.4,0.72,0.91,-0.86,0.06,0.95,-0.2,-203.3,397.9,188.0,0.95,-11.07,-0.11,0.0,0.9726767191621274,1.4443337564427414,0.0,0.0,2.0,0.6,1.2,100.0,1.0,0.18,0.020411241940958558,0.2,1.0,-160.0,0,0,calibrating,0,0,0,0,0,0.0
2.5636451039999884,257,1181.69,93.3,5.7,-105.5,0.61,1.02,-0.76,0.03,0.98,-0.22,-199.2,423.4,243.0,0.84,-11.83,-0.21,0.0,1.0048382954485762,1.4107090415815728,0.0,0.0,2.0,0.6,1.2,100.0,1.0,0.18,0.01151532765858021,0.2,1.0,-160.0,0,0,calibrating,0,0,0,0,0,0.0
2.572204162999924,258,1181.7,93.3,5.6,-105.6,0.32,1.12,-0.63,0.01,1.0,-0.23,-194.8,443.8,194.0,0.71,-12.27,-0.08,0.0,1.0261578825892241,1.324273385672309,0.0,0.0,2.0,0.6,1.2,100.0,1.0,0.18,0.03217821650324382,0.2,1.0,-160.0,0,0,calibrating,0,0,0,0,0,0.0
2.5836384389999694,259,1181.71,93.3,5.6,-105.7,-0.18,1.23,-0.43,-0.01,1.01,-0.24,-190.2,462.5,201.0,0.59,-12.83,0.0,0.0,1.0381714694596458,1.3153706701914865,0.0,0.0,2.0,0.6,1.2,100.0,1.0,0.18,0.04330796730619213,0.2,1.0,-160.0,0,0,calibrating,0,0,0,0,0,0.0
2.5922305369999776,260,1181.72,93.3,5.6,-105.8,-0.8,1.29,-0.18,-0.04,0.98,-0.23,-185.5,484.1,223.0,0.46,-13.48,-0.14,0.0,1.007422453591342,1.5285614151874958,0.0,0.0,2.0,0.6,1.2,100.0,1.0,0.18,0.012307772409130613,0.2,1.0,-160.0,0,0,calibrating,0,0,0,0,0,0.0
2.6035976139999093,261,1181.73,93.1,5.6,-106.0,-1.12,1.26,0.06,-0.06,0.94,-0.21,-180.4,514.0,265.0,0.31,-14.26,0.06,0.0,0.9650388593212192,1.6868906307167637,0.0,0.0,2.0,0.6,1.2,100.0,1.0,0.18,0.029474305423772384,0.2,1.0,-160.0,0,0,calibrating,0,0,0,0,0,0.0
2.6122839239999394,262,1181.74,93.0,5.6,-106.1,-1.21,1.14,0.28,-0.07,0.91,-0.18,-175.1,532.0,209.0,0.17,-14.74,-0.13,0.0,0.9302687783646187,1.6858528998699738,0.0,0.0,2.0,0.6,1.2,100.0,1.0,0.18,0.0629594986527654,0.2,1.0,-160.0,0,0,calibrating,0,0,0,0,0,0.0
2.6236719119999634,263,1181.75,92.9,5.6,-106.2,-0.99,0.93,0.47,-0.06,0.88,-0.17,-169.7,554.7,181.0,0.02,-15.19,-0.33,0.0,0.898276126811795,1.437323902257247,0.0,0.0,2.0,0.6,1.2,100.0,1.0,0.18,0.09305310720147741,0.2,1.0,-160.0,0,0,calibrating,0,0,0,0,0,0.0
2.632232196999894,264,1181.76,92.8,5.7,-106.3,-0.6,0.72,0.57,-0.06,0.88,-0.17,-164.0,571.0,237.0,-0.13,-15.95,-0.08,0.0,0.898276126811795,1.0969503179269333,0.0,0.0,2.0,0.6,1.2,100.0,1.0,0.18,0.09119204505744782,0.2,1.0,-160.0,0,0,calibrating,0,0,0,0,0,0.0
2.643553546000021,265,1181.77,92.8,5.8,-106.3,-0.24,0.48,0.6,-0.04,0.9,-0.16,-158.1,594.6,173.0,-0.29,-16.28,-0.18,0.0,0.9149863386958299,0.8049844718999243,0.0,0.0,2.0,0.6,1.2,100.0,1.0,0.18,0.0729921965099446,0.2,1.0,-160.0,0,0,calibrating,0,0,0,0,0,0.0
2.652221235999832,266,1181.78,92.7,5.8,-106.4,-0.09,0.31,0.61,-0.04,0.92,-0.15,-152.1,609.3,185.0,-0.46,-16.82,-0.03,0.0,0.9330058949438638,0.6901449123191448,0.0,0.0,2.0,0.6,1.2,100.0,1.0,0.18,0.05387318745667247,0.2,1.0,-160.0,0,0,calibrating,0,0,0,0,0,0.0
2.6636501719999615,267,1181.79,92.7,5.9,-106.4,-0.02,0.1,0.58,-0.04,0.94,-0.15,-145.8,636.5,291.0,-0.63,-17.77,-0.15,0.0,0.952732911156112,0.5888972745734182,0.0,0.0,2.0,0.6,1.2,100.0,1.0,0.18,0.03346324781953569,0.2,1.0,-160.0,0,0,calibrating,0,0,0,0,0,0.0
2.6722394299999905,268,1181.8,92.7,5.9,-106.4,-0.03,-0.09,0.61,-0.04,0.95,-0.15,-139.2,664.2,246.0,-0.81,-18.36,-0.04,0.0,0.9626006440887104,0.6173329733620261,0.0,0.0,2.0,0.6,1.2,100.0,1.0,0.18,0.0231236045891986,0.2,1.0,-160.0,0,0,calibrating,0,0,0,0,0,0.0
2.683496342999888,269,1181.81,92.7,6.0,-106.3,-0.04,-0.26,0.61,-0.03,0.94,-0.14,-132.4,688.2,189.0,-1.0,-18.78,-0.03,0.0,0.9508417323613851,0.6643041472096949,0.0,0.0,2.0,0.6,1.2,100.0,1.0,0.18,0.034184865990193325,0.2,1.0,-160.0,0,0,calibrating,0,0,0,0,0,0.0
2.6922252489998755,270,1181.82,92.7,6.1,-106.3,0.09,-0.39,0.6,0.0,0.93,-0.13,-125.4,709.3,264.0,-1.2,-19.66,-0.45,0.0,0.9390420650854786,0.7212489168102785,0.0,0.0,2.0,0.6,1.2,100.0,1.0,0.18,0.04506484260077781,0.2,1.0,-160.0,0,0,calibrating,0,0,0,0,0,0.0
2.703504821000024,271,1181.83,92.8,6.1,-106.3,0.26,-0.44,0.58,0.04,0.92,-0.15,-118.2,724.8,152.0,-1.39,-19.86,-0.13,0.0,0.9330058949438638,0.7730459236035074,0.0,0.0,2.0,0.6,1.2,100.0,1.0,0.18,0.05007899248754477,0.2,1.0,-160.0,0,0,calibrating,0,0,0,0,0,0.0
2.712361432999842,272,1181.84,92.8,6.2,-106.2,0.48,-0.41,0.54,0.07,0.91,-0.18,-110.9,740.7,217.0,-1.59,-20.56,0.1,0.0,0.9302687783646187,0.8307225770376052,0.0,0.0,2.0,0.6,1.2,100.0,1.0,0.18,0.05175978688545402,0.2,1.0,-160.0,0,0,calibrating,0,0,0,0,0,0.0
2.7236474919998273,273,1181.85,92.9,6.2,-106.2,0.64,-0.31,0.47,0.11,0.93,-0.21,-103.3,764.8,147.0,-1.8,-20.82,0.12,0.0,0.9597395480024776,0.8524083528450435,0.0,0.0,2.0,0.6,1.2,100.0,1.0,0.18,0.021843236902643226,0.2,1.0,-160.0,0,0,calibrating,0,0,0,0,0,0.0
2.7322314399998504,274,1181.86,92.9,6.3,-106.1,0.55,-0.14,0.45,0.11,0.95,-0.23,-95.6,765.8,-41.0,-2.01,-20.42,0.15,0.0,0.9836157786453001,0.7242927584892728,0.0,0.0,2.0,0.6,1.2,100.0,1.0,0.18,0.001992333865375673,0.2,1.0,-160.0,0,0,calibrating,0,0,0,0,0,0.0
2.743505513999935,275,1181.87,93.0,6.3,-106.1,0.22,-0.04,0.55,0.07,0.96,-0.23,-88.2,724.2,-391.0,-2.21,-18.77,0.16,0.0,0.9896464014990405,0.5937171043518958,0.0,0.0,2.0,0.6,1.2,100.0,1.0,0.18,0.007862497584733674,0.2,1.0,-160.0,0,0,calibrating,0,0,0,0,0,0.0
2.752206772999898,276,1181.88,93.0,6.4,-106.1,-0.04,-0.15,0.79,-0.04,0.98,-0.21,-81.6,626.6,-825.0,-2.37,-15.81,0.48,0.0,1.0030453628824572,0.8051086883148139,0.0,0.0,2.0,0.6,1.2,100.0,1.0,0.18,0.020836229788787297,0.2,1.0,-160.0,0,0,calibrating,0,0,0,0,0,0.0
2.7635969609998483,277,1181.89,93.0,6.5,-106.1,-0.07,-0.7,0.96,0.03,0.94,-0.2,-76.1,499.9,-1339.0,-2.5,-11.27,1.03,0.0,0.9615092303249095,1.1901680553602503,0.0,0.0,2.0,0.6,1.2,100.0,1.0,0.18,0.020285904713385094,0.2,1.0,-160.0,0,0,calibrating,0,0,0,0,0,0.0
2.7723744309998892,278,1181.9,93.1,6.6,-106.0,1.11,-1.05,0.87,-0.09,1.03,-0.17,-72.5,296.0,-1889.0,-2.57,-5.29,0.82,0.0,1.047807234180028,1.7582661914511124,0.0,0.0,2.0,0.6,1.2,100.0,1.0,0.18,0.06469185715889869,0.2,1.0,-160.0,0,0,calibrating,0,0,0,0,0,0.0
2.7837856669998473,279,1181.91,93.2,6.6,-105.8,1.81,-2.39,0.6,-0.09,1.02,-0.13,-71.2,61.6,-2193.0,-2.58,1.06,0.49,0.0,1.0321821544669332,3.057482624644006,0.0,0.0,2.0,0.6,1.2,100.0,1.0,0.18,0.04808544189688779,0.2,1.0,-160.0,0,0,calibrating,0,0,0,0,0,0.0
2.792329944999892,280,1181.92,93.5,6.6,-105.5,3.01,-3.09,-0.13,0.04,1.16,-0.18,-71.8,-96.5,-1436.0,-2.55,3.58,0.1,0.0,1.174563748802082,4.315680711081392,0.0,0.0,2.0,0.6,1.2,100.0,1.0,0.18,0.18665769550739575,0.2,1.0,-160.0,0,0,calibrating,0,0,0,0,0,0.0
2.8035847730000114,281,1181.93,93.9,6.5,-105.2,3.25,-3.95,-1.43,0.37,1.21,-0.19,-73.2,-165.2,-872.0,-2.5,5.08,0.31,0.0,1.2794920867281674,5.311299276071722,0.0,0.0,2.0,0.6,1.2,100.0,1.0,0.18,0.28575431276481156,0.2,1.0,-160.0,0,0,calibrating,0,0,0,0,0,0.0
2.8120761440000024,282,1181.94,94.2,6.3,-104.8,2.08,-3.79,-2.41,0.41,1.3,-0.19,-75.2,-209.7,-572.0,-2.44,6.2,0.04,0.0,1.3762993860348844,4.949606044929233,0.0,0.0,2.0,0.6,1.2,100.0,1.0,0.18,0.3749103798300981,0.2,1.0,-160.0,0,0,calibrating,0,0,0,0,0,0.0
2.8236203909998494,283,1181.95,94.4,6.0,-104.5,1.35,-3.29,-3.46,0.37,1.29,-0.26,-77.6,-245.5,-391.0,-2.38,6.98,0.0,0.0,1.3669674465765453,4.961673104911286,0.0,0.0,2.0,0.6,1.2,100.0,1.0,0.18,0.3582668715643238,0.2,1.0,-160.0,0,0,calibrating,0,0,0,0,0,0.0
2.832230657999844,284,1181.96,94.5,5.6,-104.2,0.42,-2.24,-3.84,0.34,1.24,-0.16,-80.2,-262.2,-203.0,-2.31,7.22,-0.03,0.0,1.2956851469396413,4.4653779235357,0.0,0.0,2.0,0.6,1.2,100.0,1.0,0.18,0.2812448804888714,0.2,1.0,-160.0,0,0,calibrating,0,0,0,0,0,0.0
2.8434721579999405,285,1181.97,94.6,5.2,-104.1,1.57,-1.1,-4.19,0.32,1.16,-0.06,-82.8,-268.1,-95.0,-2.23,7.31,-0.13,0.0,1.2048236385463227,4.607710928432903,0.0,0.0,2.0,0.6,1.2,100.0,1.0,0.18,0.18657570465364182,0.2,1.0,-160.0,0,0,calibrating,0,0,0,0,0,0.0
2.852449950999926,286,1181.98,94.8,4.7,-104.1,2.79,-0.05,-4.3,0.28,1.29,-0.03,-85.5,-271.3,-60.0,-2.16,7.43,0.04,0.0,1.320378733545796,5.126070619880299,0.0,0.0,2.0,0.6,1.2,100.0,1.0,0.18,0.29608818366005285,0.2,1.0,-160.0,0,0,calibrating,0,0,0,0,0,0.0
2.8636060329999964,287,1181.99,95.1,4.3,-104.2,2.52,0.96,-3.81,0.16,1.46,0.01,-88.3,-276.8,-53.0,-2.08,7.57,0.25,0.0,1.4687749997872377,4.667772488028953,0.0,0.0,2.0,0.6,1.2,100.0,1.0,0.18,0.4355947609034647,0.2,1.0,-160.0,0,0,calibrating,0,0,0,0,0,0.0
2.872266927999817,288,1182.0,95.2,4.0,-104.3,1.31,1.5,-2.8,-0.06,1.47,0.12,-90.7,-276.4,14.0,-2.0,7.39,-0.15,0.0,1.4761097520171054,3.4360005820721273,0.0,0.0,2.0,0.6,1.2,100.0,1.0,0.18,0.4340709228706656,0.2,1.0,-160.0,0,0,calibrating,0,0,0,0,0,0.0
2.883651724999936,289,1182.01,95.3,3.8,-104.5,0.09,1.11,-1.7,-0.27,1.36,0.21,-94.0,-267.9,54.0,-1.93,7.2,0.1,0.0,1.402355161861645,2.032289349477579,0.0,0.0,2.0,0.6,1.2,100.0,1.0,0.18,0.35311000606090137,0.2,1.0,-160.0,0,0,calibrating,0,0,0,0,0,0.0
2.892342589000009,290,1182.02,95.3,3.7,-104.5,-0.64,-0.13,-0.81,-0.36,1.23,0.32,-96.7,-260.9,74.0,-1.86,6.96,0.01,0.0,1.3209466302617983,1.0404806581575652,0.0,0.0,2.0,0.6,1.2,100.0,1.0,0.18,0.26626744497183363,0.2,1.0,-160.0,0,0,calibrating,0,0,0,0,0,0.0
2.9036855769998056,291,1182.03,95.2,3.6,-104.4,-0.9,-1.88,-0.18,-0.38,1.12,0.4,-99.2,-246.8,136.0,-1.79,6.48,-0.18,0.0,1.2485191228010888,2.0920803043860436,0.0,0.0,2.0,0.6,1.2,100.0,1.0,0.18,0.18996313876090176,0.2,1.0,-160.0,0,0,calibrating,0,0,0,0,0,0.0
2.912317943999824,292,1182.04,95.1,3.6,-104.1,-0.81,-3.77,0.28,-0.34,1.05,0.39,-101.5,-226.1,195.0,-1.73,5.85,-0.11,0.0,1.170555423719868,3.8661867518266626,0.0,0.0,2.0,0.6,1.2,100.0,1.0,0.18,0.10975945088608752,0.2,1.0,-160.0,0,0,calibrating,0,0,0,0,0,0.0
2.9236679900000127,293,1182.05,95.1,3.6,-103.7,-0.74,-5.05,0.4,-0.3,1.01,0.37,-103.6,-201.7,234.0,-1.68,5.15,-0.14,0.0,1.1166915420114905,5.1195800609034325,0.0,0.0,2.0,0.6,1.2,100.0,1.0,0.18,0.05477765779415544,0.2,1.0,-160.0,0,0,calibrating,0,0,0,0,0,0.0
2.9324351819998355,294,1182.06,95.0,3.6,-103.1,-0.79,-6.02,0.24,-0.2,0.96,0.35,-105.3,-177.8,259.0,-1.63,4.49,-0.06,0.0,1.0412012293500235,6.076355815783009,0.0,0.0,2.0,0.6,1.2,100.0,1.0,0.18,0.020298401769965224,0.2,1.0,-160.0,0,0,calibrating,0,0,0,0,0,0.0
2.943773176999912,295,1182.07,95.0,3.5,-102.5,-0.78,-6.62,-0.26,-0.07,0.92,0.25,-106.8,-146.7,306.0,-1.6,3.57,-0.14,0.0,0.9559288676465421,6.670862013263354,0.0,0.0,2.0,0.6,1.2,100.0,1.0,0.18,0.1034593482039774,0.2,1.0,-160.0,0,0,calibrating,0,0,0,0,0,0.0
2.9524047559998507,296,1182.08,94.9,3.4,-101.8,-1.24,-6.78,-0.79,0.03,0.93,0.11,-108.1,-111.0,345.0,-1.57,2.56,-0.03,0.0,0.9369631796394137,6.937586035502551,0.0,0.0,2.0,0.6,1.2,100.0,1.0,0.18,0.1199765354868837,0.2,1.0,-160.0,0,0,calibrating,0,0,0,0,0,0.0
2.9637823579998894,297,1182.09,94.8,3.3,-101.2,-1.75,-6.38,-1.07,0.11,0.94,0.01,-108.9,-72.0,384.0,-1.55,1.44,-0.2,0.0,0.9464671151181112,6.7016266682052645,0.0,0.0,2.0,0.6,1.2,100.0,1.0,0.18,0.1082631480080225,0.2,1.0,-160.0,0,0,calibrating,0,0,0,0,0,0.0
2.9723010879999947,298,1182.1,94.7,3.1,-100.6,-1.88,-5.67,-1.07,0.18,0.95,-0.04,-109.3,-32.1,384.0,-1.54,0.41,-0.23,0.0,0.9677293009927931,6.068624226297094,0.0,0.0,2.0,0.6,1.2,100.0,1.0,0.18,0.08526094289067376,0.2,1.0,-160.0,0,0,calibrating,0,0,0,0,0,0.0
2.9835711459998038,299,1182.11,94.5,3.0,-100.1,-1.82,-4.73,-0.81,0.23,0.94,-0.08,-109.4,3.7,331.0,-1.54,-0.38,-0.09,0.0,0.9710303805751908,5.132387358724983,0.0,0.0,2.0,0.6,1.2,100.0,1.0,0.18,0.08032066604211041,0.2,1.0,-160.0,0,0,calibrating,0,0,0,0,0,0.0
2.991858857999887,300,1182.12,94.4,2.9,-99.6,-1.56,-3.93,-0.41,0.25,0.92,-0.1,-109.3,15.9,131.0,-1.55,-0.41,-0.14,0.0,0.9585927185202274,4.248128999924555,0.0,0.0,2.0,0.6,1.2,100.0,1.0,0.18,0.09090316153513234,0.2,1.0,-160.0,0,0,calibrating,0,0,0,0,0,0.0
3.0035181019998163,301,1182.13,94.2,2.8,-99.3,-1.04,-3.18,0.02,0.24,0.91,-0.09,-109.1,14.5,34.0,-1.55,-0.35,0.11,0.0,0.9454099639838793,3.3458033415011115,0.0,0.0,2.0,0.6,1.2,100.0,1.0,0.18,0.10200419775005076,0.2,1.0,-160.0,0,0,calibrating,0,0,0,0,0,0.0
3.0124650029999884,302,1182.14,94.2,2.8,-99.0,-0.6,-2.5,0.44,0.21,0.91,-0.09,-109.0,9.8,-29.0,-1.55,-0.18,0.16,0.0,0.9382430388763884,2.6083711392361324,0.0,0.0,2.0,0.6,1.2,100.0,1.0,0.18,0.10698770040039085,0.2,1.0,-160.0,0,0,calibrating,0,0,0,0,0,0.0
3.02350876599985,303,1182.15,94.2,2.9,-98.8,-0.19,-1.93,0.76,0.17,0.94,-0.08,-108.9,0.7,-71.0,-1.55,0.07,-0.05,0.0,0.9585927185202274,2.0829306277454367,0.0,0.0,2.0,0.6,1.2,100.0,1.0,0.18,0.08490526034142087,0.2,1.0,-160.0,0,0,calibrating,0,0,0,0,0,0.0
3.032392788999914,304,1182.16,94.2,3.0,-98.6,-0.04,-1.54,0.97,0.13,0.96,-0.07,-109.0,-3.2,-35.0,-1.55,0.09,-0.13,0.0,0.9712878049270464,1.820466973059385,0.0,0.0,2.0,0.6,1.2,100.0,1.0,0.18,0.07076597045590982,0.2,1.0,-160.0,0,0,calibrating,0,0,0,0,0,0.0
3.043489230999967,305,1182.17,94.2,3.2,-98.5,-0.2,-1.34,1.08,0.1,0.96,-0.06,-109.0,-6.5,-42.0,-1.55,0.24,0.01,0.0,0.9670573922989266,1.732628061645084,0.0,0.0,2.0,0.6,1.2,100.0,1.0,0.18,0.07349645542234906,0.2,1.0,-160.0,0,0,calibrating,0,0,0,0,0,0.0
3.0524486360000083,306,1182.18,94.1,3.3,-98.3,-0.48,-1.29,1.07,0.09,0.94,-0.07,-109.1,-13.0,-62.0,-1.55,0.44,0.2,0.0,0.9468896451012652,1.7433875071251372,0.0,0.0,2.0,0.6,1.2,100.0,1.0,0.18,0.09179091856761024,0.2,1.0,-160.0,0,0,calibrating,0,0,0,0,0,0.0
3.0634992899999816,307,1182.19,94.1,3.4,-98.2,-0.83,-1.28,0.99,0.09,0.92,-0.07,-109.3,-23.2,-95.0,-1.54,0.76,-0.23,0.0,0.9270382947861432,1.8186258548695498,0.0,0.0,2.0,0.6,1.2,100.0,1.0,0.18,0.10940942350507765,0.2,1.0,-160.0,0,0,calibrating,0,0,0,0,0,0.0
3.072292630999982,308,1182.2,94.0,3.5,-98.0,-1.07,-1.19,0.9,0.11,0.89,-0.08,-109.6,-32.7,-89.0,-1.53,0.99,0.2,0.0,0.9003332716277901,1.8360283222216371,0.0,0.0,2.0,0.6,1.2,100.0,1.0,0.18,0.13339215773016222,0.2,1.0,-160.0,0,0,calibrating,0,0,0,0,0,0.0
3.083680347999916,309,1182.21,93.9,3.6,-97.9,-1.15,-1.04,0.78,0.14,0.86,-0.09,-110.0,-40.5,-70.0,-1.52,1.16,0.12,0.0,0.875956619930462,1.735655495770978,0.0,0.0,2.0,0.6,1.2,100.0,1.0,0.18,0.1546134332389404,0.2,1.0,-160.0,0,0,calibrating,0,0,0,0,0,0.0
3.0965156229999593,310,1182.22,93.8,3.7,-97.8,-1.11,-0.82,0.68,0.18,0.86,-0.1,-110.5,-45.7,-55.0,-1.51,1.29,0.09,0.0,0.8843076387773657,1.538473269186046,0.0,0.0,2.0,0.6,1.2,100.0,1.0,0.18,0.1433371661041959,0.2,1.0,-160.0,0,0,calibrating,0,0,0,0,0,0.0
3.104282006999938,311,1182.23,93.7,3.8,-97.8,-1.04,-0.55,0.61,0.19,0.87,-0.11,-110.9,-49.9,-45.0,-1.49,1.41,0.02,0.0,0.8972736483370054,1.3252169633686404,0.0,0.0,2.0,0.6,1.2,100.0,1.0,0.18,0.1277637334136652,0.2,1.0,-160.0,0,0,calibrating,0,0,0,0,0,0.0
3.1122834699999657,312,1182.24,93.6,3.8,-97.7,-0.98,-0.16,0.6,0.2,0.87,-0.12,-111.5,-52.4,-28.0,-1.48,1.45,-0.14,0.0,0.9007219326740079,1.160172400981854,0.0,0.0,2.0,0.6,1.2,100.0,1.0,0.18,0.12182914009512946,0.2,1.0,-160.0,0,0,calibrating,0,0,0,0,0,0.0
3.123646493000024,313,1182.25,93.5,3.9,-97.7,-0.84,0.31,0.61,0.2,0.88,-0.14,-112.0,-54.7,-27.0,-1.46,1.51,-0.02,0.0,0.9132360045464699,1.0834205093129814,0.0,0.0,2.0,0.6,1.2,100.0,1.0,0.18,0.10712876685821404,0.2,1.0,-160.0,0,0,calibrating,0,0,0,0,0,0.0
3.132477190999907,314,1182.26,93.4,4.0,-97.8,-0.81,0.81,0.66,0.19,0.9,-0.15,-112.6,-58.9,-31.0,-1.45,1.61,-0.05,0.0,0.9319871243745806,1.3220438721918424,0.0,0.0,2.0,0.6,1.2,100.0,1.0,0.18,0.08661009408950127,0.2,1.0,-160.0,0,0,calibrating,0,0,0,0,0,0.0
3.144019282999807,315,1182.27,93.3,4.0,-97.9,-0.87,1.3,0.77,0.18,0.9,-0.15,-113.2,-60.4,-21.0,-1.43,1.67,0.29,0.0,0.93,1.7435022225394496,0.0,0.0,2.0,0.6,1.2,100.0,1.0,0.18,0.08682527409480023,0.2,1.0,-160.0,0,0,calibrating,0,0,0,0,0,0.0
3.152393856999879,316,1182.28,93.2,4.1,-98.0,-0.94,1.68,0.91,0.16,0.89,-0.14,-113.8,-62.0,-21.0,-1.42,1.71,-0.02,0.0,0.9150409826887537,2.129342621561875,0.0,0.0,2.0,0.6,1.2,100.0,1.0,0.18,0.09974860557792564,0.2,1.0,-160.0,0,0,calibrating,0,0,0,0,0,0.0
3.1637555259999317,317,1182.29,93.1,4.2,-98.2,-0.96,1.91,1.02,0.14,0.87,-0.14,-114.4,-62.8,-5.0,-1.4,1.7,-0.07,0.0,0.8922443611477743,2.368564966387876,0.0,0.0,2.0,0.6,1.2,100.0,1.0,0.18,0.12009432257652675,0.2,1.0,-160.0,0,0,calibrating,0,0,0,0,0,0.0
3.172223889999941,318,1182.3,93.0,4.4,-98.4,-0.92,2.01,1.07,0.13,0.85,-0.15,-115.1,-62.7,-3.0,-1.38,1.7,0.03,0.0,0.8728688332160794,2.455890877054597,0.0,0.0,2.0,0.6,1.2,100.0,1.0,0.18,0.13668045349805724,0.2,1.0,-160.0,0,0,calibrating,0,0,0,0,0,0.0
3.183692419999943,319,1182.31,92.9,4.5,-98.6,-0.84,2.03,1.01,0.13,0.84,-0.16,-115.7,-64.1,-12.0,-1.36,1.77,-0.17,0.0,0.8649277426467484,2.4179743588384057,0.0,0.0,2.0,0.6,1.2,100.0,1.0,0.18,0.14172911318604042,0.2,1.0,-160.0,0,0,calibrating,0,0,0,0,0,0.0
3.192219086000023,320,1182.32,92.8,4.6,-98.8,-0.85,1.97,0.85,0.13,0.83,-0.18,-116.4,-68.0,-31.0,-1.34,1.88,-0.03,0.0,0.8591856609604236,2.3077911517292895,0.0,0.0,2.0,0.6,1.2,100.0,1.0,0.18,0.14452177097491803,0.2,1.0,-160.0,0,0,calibrating,0,0,0,0,0,0.0
3.2035450910000236,321,1182.33,92.7,4.7,-99.0,-0.98,1.9,0.55,0.12,0.78,-0.2,-117.1,-70.3,-28.0,-1.33,1.96,0.09,0.0,0.8141252974819049,2.207464609002826,0.0,0.0,2.0,0.6,1.2,100.0,1.0,0.18,0.18579049176436802,0.2,1.0,-160.0,0,0,calibrating,0,0,0,0,0,0.0
3.212400796999873,322,1182.34,92.6,4.7,-99.2,-1.11,1.85,0.14,0.12,0.73,-0.22,-117.8,-74.5,-36.0,-1.31,2.06,0.04,0.0,0.7718160402582988,2.161989824212871,0.0,0.0,2.0,0.6,1.2,100.0,1.0,0.18,0.22353775400821463,0.2,1.0,-160.0,0,0,calibrating,0,0,0,0,0,0.0
3.2235355279999567,323,1182.35,92.4,4.7,-99.4,-1.04,1.86,-0.33,0.13,0.69,-0.24,-118.6,-79.2,-50.0,-1.28,2.23,-0.09,0.0,0.7420242583635659,2.156409052104911,0.0,0.0,2.0,0.6,1.2,100.0,1.0,0.18,0.24826294518488867,0.2,1.0,-160.0,0,0,calibrating,0,0,0,0,0,0.0
3.2324480139998286,324,1182.36,92.3,4.6,-99.5,-0.8,1.92,-0.65,0.15,0.69,-0.24,-119.4,-85.0,-47.0,-1.26,2.34,0.11,0.0,0.7457881736793631,2.179197099851227,0.0,0.0,2.0,0.6,1.2,100.0,1.0,0.18,0.23960904927170945,0.2,1.0,-160.0,0,0,calibrating,0,0,0,0,0,0.0
3.243489884999917,325,1182.37,92.3,4.6,-99.8,-0.06,2.2,-0.72,0.16,0.74,-0.22,-120.3,-90.5,-60.0,-1.24,2.55,-0.06,0.0,0.7884161337770809,2.315599274485981,0.0,0.0,2.0,0.6,1.2,100.0,1.0,0.18,0.19304146739051187,0.2,1.0,-160.0,0,0,calibrating,0,0,0,0,0,0.0
3.2524516819999008,326,1182.38,92.3,4.5,-100.0,0.77,2.32,-0.68,0.15,0.78,-0.21,-121.2,-99.6,-93.0,-1.21,2.86,-0.08,0.0,0.8215838362577492,2.537262304138064,0.0,0.0,2.0,0.6,1.2,100.0,1.0,0.18,0.1566762896116466,0.2,1.0,-160.0,0,0,calibrating,0,0,0,0,0,0.0
3.2636780849998104,327,1182.39,92.4,4.5,-100.2,1.32,2.51,-0.54,0.15,0.83,-0.19,-122.3,-110.4,-100.0,-1.18,3.13,0.05,0.0,0.8645808232895291,2.886884133456,0.0,0.0,2.0,0.6,1.2,100.0,1.0,0.18,0.11140571652826936,0.2,1.0,-160.0,0,0,calibrating,0,0,0,0,0,0.0
3.272311449999961,328,1182.4,92.5,4.4,-100.5,1.65,2.58,-0.47,0.14,0.85,-0.18,-123.5,-123.1,-132.0,-1.14,3.55,0.02,0.0,0.8800568163476719,3.098354401936615,0.0,0.0,2.0,0.6,1.2,100.0,1.0,0.18,0.09401112900072395,0.2,1.0,-160.0,0,0,calibrating,0,0,0,0,0,0.0
3.2837863749998633,329,1182.41,92.7,4.4,-100.8,1.67,2.58,-0.5,0.12,0.84,-0.18,-124.8,-139.2,-150.0,-1.1,3.98,0.09,0.0,0.8674099376880575,3.113727669530526,0.0,0.0,2.0,0.6,1.2,100.0,1.0,0.18,0.10452484750713165,0.2,1.0,-160.0,0,0,calibrating,0,0,0,0,0,0.0
3.2923313799999505,330,1182.42,92.8,4.4,-101.0,1.63,2.52,-0.49,0.1,0.88,-0.16,-126.4,-156.0,-165.0,-1.06,4.46,-0.02,0.0,0.9,3.040953797741755,0.0,0.0,2.0,0.6,1.2,100.0,1.0,0.18,0.07049608949128539,0.2,1.0,-160.0,0,0,calibrating,0,0,0,0,0,0.0
3.3036593780000203,331,1182.43,93.0,4.3,-101.3,1.74,2.33,-0.18,0.09,1.0,-0.06,-128.0,-173.2,-167.0,-1.01,4.9,0.3,0.0,1.005832988124768,2.9135716912408385,0.0,0.0,2.0,0.6,1.2,100.0,1.0,0.18,0.034630160660813036,0.2,1.0,-160.0,0,0,calibrating,0,0,0,0,0,0.0
3.312221495999893,332,1182.44,93.1,4.4,-101.5,1.68,1.84,0.3,0.06,1.04,0.03,-129.9,-190.2,-170.0,-0.96,5.37,0.06,0.0,1.0421612159354234,2.5095816384409573,0.0,0.0,2.0,0.6,1.2,100.0,1.0,0.18,0.069539220702039,0.2,1.0,-160.0,0,0,calibrating,0,0,0,0,0,0.0
3.323530355999992,333,1182.45,93.2,4.4,-101.6,1.54,0.99,0.58,0.03,1.05,0.07,-131.7,-206.8,-180.0,-0.9,5.89,0.08,0.0,1.0527582818482122,1.920442657305862,0.0,0.0,2.0,0.6,1.2,100.0,1.0,0.18,0.07853356088253138,0.2,1.0,-160.0,0,0,calibrating,0,0,0,0,0,0.0
3.332452068999828,334,1182.46,93.4,4.5,-101.7,1.26,0.2,0.61,0.0,1.07,-0.03,-134.1,-226.3,-174.0,-0.84,6.35,0.15,0.0,1.0704204781299729,1.4141074923781431,0.0,0.0,2.0,0.6,1.2,100.0,1.0,0.18,0.09427184202100602,0.2,1.0,-160.0,0,0,calibrating,0,0,0,0,0,0.0
3.3435612649998347,335,1182.47,93.5,4.5,-101.7,0.78,-0.24,0.39,-0.03,1.04,-0.21,-136.5,-240.6,-136.0,-0.78,6.66,0.12,0.0,1.0614141510268271,0.9044888059008801,0.0,0.0,2.0,0.6,1.2,100.0,1.0,0.18,0.08356020461950309,0.2,1.0,-160.0,0,0,calibrating,0,0,0,0,0,0.0
3.3522110989999874,336,1182.48,93.6,4.5,-101.6,0.97,-0.38,0.24,-0.03,1.09,-0.28,-139.0,-251.5,-123.0,-0.71,6.98,-0.07,0.0,1.1257886124845997,1.0690650120549265,0.0,0.0,2.0,0.6,1.2,100.0,1.0,0.18,0.14497597275573015,0.2,1.0,-160.0,0,0,calibrating,0,0,0,0,0,0.0
3.363691572999869,337,1182.49,93.7,4.6,-101.6,1.68,-0.37,0.48,0.01,1.18,-0.27,-141.6,-266.0,-148.0,-0.63,7.43,0.0,0.0,1.2105370708904373,1.7859731240978962,0.0,0.0,2.0,0.6,1.2,100.0,1.0,0.18,0.2251299425383364,0.2,1.0,-160.0,0,0,calibrating,0,0,0,0,0,0.0
3.3722919979998096,338,1182.5,93.9,4.6,-101.5,2.19,-0.28,1.12,0.1,1.29,-0.2,-144.4,-282.1,-152.0,-0.56,7.85,0.06,0.0,1.3092364186807515,2.475661527753744,0.0,0.0,2.0,0.6,1.2,100.0,1.0,0.18,0.31735270452207753,0.2,1.0,-160.0,0,0,calibrating,0,0,0,0,0,0.0
3.3836733489999915,339,1182.51,94.2,4.8,-101.5,2.29,-0.13,1.82,0.13,1.32,-0.21,-147.3,-296.6,-151.0,-0.48,8.26,0.07,0.0,1.3429072938963433,2.928036885013575,0.0,0.0,2.0,0.6,1.2,100.0,1.0,0.18,0.344003108142916,0.2,1.0,-160.0,0,0,calibrating,0,0,0,0,0,0.0
3.392154297999923,340,1182.52,94.5,5.0,-101.5,2.29,-0.01,2.22,0.14,1.34,-0.22,-150.4,-314.8,-187.0,-0.39,8.83,0.09,0.0,1.3651373557265218,3.1894513634793054,0.0,0.0,2.0,0.6,1.2,100.0,1.0,0.18,0.3589085065736326,0.2,1.0,-160.0,0,0,calibrating,0,0,0,0,0,0.0
3.4036774699998205,341,1182.53,94.8,5.2,-101.5,2.28,0.22,2.44,0.16,1.44,-0.24,-153.7,-338.9,-228.0,-0.3,9.52,0.15,0.0,1.4686047800548654,3.3466998670331938,0.0,0.0,2.0,0.6,1.2,100.0,1.0,0.18,0.45312841228393674,0.2,1.0,-160.0,0,0,calibrating,0,0,0,0,0,0.0
3.412248482999985,342,1182.54,95.0,5.5,-101.5,2.08,0.5,3.16,0.2,1.74,-0.07,-157.3,-366.1,-278.0,-0.2,10.36,0.11,0.0,1.7528548142958105,3.816018867877883,0.0,0.0,2.0,0.6,1.2,100.0,1.0,0.18,0.7226308775943839,0.2,1.0,-160.0,0,0,calibrating,0,0,0,0,0,0.0
3.423518171999831,343,1182.55,95.1,5.9,-101.5,1.23,0.76,4.21,0.13,1.84,0.06,-161.2,-400.2,-312.0,-0.09,11.26,0.11,0.0,1.8455622449540954,4.451359342942333,0.0,0.0,2.0,0.6,1.2,100.0,1.0,0.18,0.7990315420876155,0.2,1.0,-160.0,0,0,calibrating,0,0,0,0,0,0.0
3.43240515399998,344,1182.56,95.2,6.4,-101.5,-0.09,0.69,4.59,0.03,1.71,0.1,-165.3,-423.7,-219.0,0.02,11.7,0.18,0.0,1.7131841699011814,4.642445476254944,0.0,0.0,2.0,0.6,1.2,100.0,1.0,0.18,0.6533203976940074,0.2,1.0,-160.0,0,0,calibrating,0,0,0,0,0,0.0
3.4437027559999933,345,1182.57,95.1,6.8,-101.6,-1.97,0.49,4.01,0.1,1.49,0.11,-169.7,-443.9,-234.0,0.14,12.37,0.05,0.0,1.4973977427524057,4.494563382576777,0.0,0.0,2.0,0.6,1.2,100.0,1.0,0.18,0.428783291134327,0.2,1.0,-160.0,0,0,calibrating,0,0,0,0,0,0.0
3.452388395999833,346,1182.58,94.8,7.2,-101.6,-3.03,0.39,2.74,0.2,1.15,0.12,-174.3,-460.3,-141.0,0.27,12.58,-0.09,0.0,1.1734138229968145,4.1037300106122965,0.0,0.0,2.0,0.6,1.2,100.0,1.0,0.18,0.10270338395116108,0.2,1.0,-160.0,0,0,calibrating,0,0,0,0,0,0.0
3.463792372999933,347,1182.59,94.5,7.3,-101.6,-2.67,0.24,1.36,0.3,0.93,0.11,-178.9,-469.7,-132.0,0.4,12.94,0.12,0.0,0.9833615815151617,3.006010645357065,0.0,0.0,2.0,0.6,1.2,100.0,1.0,0.18,0.08560188037988192,0.2,1.0,-160.0,0,0,calibrating,0,0,0,0,0,0.0
3.4722072669999307,348,1182.6,94.3,7.4,-101.6,-1.5,0.74,0.42,0.42,0.83,0.08,-183.7,-474.5,-21.0,0.52,12.8,0.16,0.0,0.9336487562247379,1.7245289211839854,0.0,0.0,2.0,0.6,1.2,100.0,1.0,0.18,0.13260841155689962,0.2,1.0,-160.0,0,0,calibrating,0,0,0,0,0,0.0
3.483691113999839,349,1182.61,94.2,7.5,-101.7,-0.24,1.43,-0.08,0.48,0.81,0.04,-188.4,-469.7,-3.0,0.65,12.79,-0.12,0.0,0.9423905772024677,1.452205219657332,0.0,0.0,2.0,0.6,1.2,100.0,1.0,0.18,0.12138925876758644,0.2,1.0,-160.0,0,0,calibrating,0,0,0,0,0,0.0
3.4922129919998497,350,1182.62,94.2,7.4,-101.9,0.76,2.52,-0.34,0.44,0.86,-0.03,-193.1,-470.7,-3.0,0.78,12.8,0.04,0.0,0.9664884893261791,2.6539781461044476,0.0,0.0,2.0,0.6,1.2,100.0,1.0,0.18,0.09534551971099736,0.2,1.0,-160.0,0,0,calibrating,0,0,0,0,0,0.0
3.503563686999996,351,1182.63,94.3,7.4,-102.3,1.21,3.81,-0.45,0.36,0.95,0.0,-197.8,-471.5,13.0,0.91,12.72,0.1,0.0,1.0159232254457027,4.022772675655436,0.0,0.0,2.0,0.6,1.2,100.0,1.0,0.18,0.044992567919644344,0.2,1.0,-160.0,0,0,calibrating,0,0,0,0,0,0.0
3.5121269849998953,352,1182.64,94.3,7.4,-102.7,0.57,5.03,-0.45,0.28,0.98,0.02,-202.4,-450.9,203.0,1.03,11.85,-0.18,0.0,1.0194115949899727,5.082155054698745,0.0,0.0,2.0,0.6,1.2,100.0,1.0,0.18,0.040674114407866835,0.2,1.0,-160.0,0,0,calibrating,0,0,0,0,0,0.0
3.523504042000013,353,1182.65,94.2,7.4,-103.3,-0.57,5.76,-0.49,0.2,0.95,0.02,-206.7,-422.2,238.0,1.14,11.16,-0.04,0.0,0.9710303805751909,5.808838093801548,0.0,0.0,2.0,0.6,1.2,100.0,1.0,0.18,0.08727422224619563,0.2,1.0,-160.0,0,0,calibrating,0,0,0,0,0,0.0
3.5318171249998613,354,1182.66,94.0,7.4,-103.9,-1.45,6.47,-0.51,0.15,0.87,0.03,-210.7,-387.4,361.0,1.25,9.97,-0.33,0.0,0.8833459118601275,6.650075187544874,0.0,0.0,2.0,0.6,1.2,100.0,1.0,0.18,0.1714595171420339,0.2,1.0,-160.0,0,0,calibrating,0,0,0,0,0,0.0
3.5434861059998184,355,1182.67,93.8,7.4,-104.6,-1.55,6.93,-0.45,0.1,0.83,0.07,-214.3,-344.3,394.0,1.34,8.85,-0.24,0.0,0.8389278872465737,7.115469063947928,0.0,0.0,2.0,0.6,1.2,100.0,1.0,0.18,0.21155999092047595,0.2,1.0,-160.0,0,0,calibrating,0,0,0,0,0,0.0
3.5522692889999234,356,1182.68,93.6,7.4,-105.3,-1.26,7.08,-0.37,0.06,0.81,0.1,-217.4,-302.8,420.0,1.42,7.68,-0.14,0.0,0.8183520025025907,7.200756904659398,0.0,0.0,2.0,0.6,1.2,100.0,1.0,0.18,0.22749315815116977,0.2,1.0,-160.0,0,0,calibrating,0,0,0,0,0,0.0
3.564401622999867,357,1182.69,93.4,7.4,-106.0,-0.99,6.94,-0.31,0.02,0.8,0.14,-220.1,-254.7,475.0,1.49,6.29,-0.17,0.0,0.812403840463596,7.017107666268204,0.0,0.0,2.0,0.6,1.2,100.0,1.0,0.18,0.228772493786361,0.2,1.0,-160.0,0,0,calibrating,0,0,0,0,0,0.0
3.572253885000009,358,1182.7,93.2,7.4,-106.7,-0.74,6.57,-0.33,0.0,0.81,0.15,-222.3,-204.2,484.0,1.54,4.96,-0.12,0.0,0.8237718130647589,6.61977341001941,0.0,0.0,2.0,0.6,1.2,100.0,1.0,0.18,0.2130564307614944,0.2,1.0,-160.0,0,0,calibrating,0,0,0,0,0,0.0
3.583628613999963,359,1182.71,93.0,7.4,-107.3,-0.47,6.04,-0.33,-0.02,0.84,0.14,-224.0,-156.6,478.0,1.58,3.67,-0.2,0.0,0.851821577561874,6.067239899657833,0.0,0.0,2.0,0.6,1.2,100.0,1.0,0.18,0.1813065329390916,0.2,1.0,-160.0,0,0,calibrating,0,0,0,0,0,0.0
3.596193256999868,360,1182.72,92.9,7.4,-107.9,-0.14,5.41,-0.37,-0.07,0.85,0.14,-225.3,-109.6,464.0,1.61,2.42,-0.13,0.0,0.864291617453276,5.4244446720378665,0.0,0.0,2.0,0.6,1.2,100.0,1.0,0.18,0.16545976318673605,0.2,1.0,-160.0,0,0,calibrating,0,0,0,0,0,0.0
3.6082102249999934,361,1182.73,92.9,7.4,-108.4,0.2,4.69,-0.51,-0.11,0.86,0.13,-226.1,-64.2,464.0,1.63,1.18,-0.27,0.0,0.8766983517721474,4.721885216732826,0.0,0.0,2.0,0.6,1.2,100.0,1.0,0.18,0.14999196829050732,0.2,1.0,-160.0,0,0,calibrating,0,0,0,0,0,0.0
3.6164297279999573,362,1182.74,92.9,7.4,-108.8,0.44,3.93,-0.74,-0.15,0.88,0.11,-226.4,-18.5,458.0,1.63,-0.06,0.06,0.0,0.8994442728707543,4.023195247561321,0.0,0.0,2.0,0.6,1.2,100.0,1.0,0.18,0.1247011262480624,0.2,1.0,-160.0,0,0,calibrating,0,0,0,0,0,0.0
3.62424153500001,363,1182.75,92.9,7.3,-109.2,0.43,3.22,-1.01,-0.18,0.89,0.09,-226.3,21.7,385.0,1.62,-0.96,0.1,0.0,0.9124691775616314,3.4019700175045635,0.0,0.0,2.0,0.6,1.2,100.0,1.0,0.18,0.1094426971260416,0.2,1.0,-160.0,0,0,calibrating,0,0,0,0,0,0.0
3.632476520999944,364,1182.76,92.9,7.2,-109.5,0.21,2.54,-1.21,-0.18,0.91,0.08,-225.9,51.5,325.0,1.61,-1.74,-0.06,0.0,0.931074647920348,2.8213117516502852,0.0,0.0,2.0,0.6,1.2,100.0,1.0,0.18,0.08902048223197845,0.2,1.0,-160.0,0,0,calibrating,0,0,0,0,0,0.0
3.6436340849998032,365,1182.77,92.8,7.1,-109.7,-0.03,1.91,-1.32,-0.16,0.91,0.07,-225.1,78.3,278.0,1.58,-2.43,-0.3,0.0,0.92660671268883,2.3219388450172413,0.0,0.0,2.0,0.6,1.2,100.0,1.0,0.18,0.09161864911422657,0.2,1.0,-160.0,0,0,calibrating,0,0,0,0,0,0.0
3.6523360209998827,366,1182.78,92.8,6.9,-109.9,-0.22,1.36,-1.28,-0.13,0.91,0.05,-224.2,103.1,255.0,1.55,-3.08,-0.09,0.0,0.9205976319760985,1.8805318396666408,0.0,0.0,2.0,0.6,1.2,100.0,1.0,0.18,0.09567517523041902,0.2,1.0,-160.0,0,0,calibrating,0,0,0,0,0,0.0
3.6637915429998884,367,1182.79,92.8,6.8,-110.0,-0.28,0.93,-1.15,-0.09,0.91,0.02,-223.0,126.9,248.0,1.52,-3.75,-0.22,0.0,0.91465840618233,1.505257453062432,0.0,0.0,2.0,0.6,1.2,100.0,1.0,0.18,0.09958211300370379,0.2,1.0,-160.0,0,0,calibrating,0,0,0,0,0,0.0
3.6722813869998845,368,1182.8,92.7,6.7,-110.1,-0.25,0.67,-1.01,-0.05,0.92,0.0,-221.5,152.2,253.0,1.48,-4.45,0.05,0.0,0.9213576938409967,1.2375378782081783,0.0,0.0,2.0,0.6,1.2,100.0,1.0,0.18,0.09102516883813616,0.2,1.0,-160.0,0,0,calibrating,0,0,0,0,0,0.0
3.6837067499998284,369,1182.81,92.7,6.6,-110.2,-0.25,0.51,-0.88,-0.02,0.93,-0.03,-219.8,178.2,260.0,1.43,-5.17,-0.07,0.0,0.9306986622962343,1.047377677822093,0.0,0.0,2.0,0.6,1.2,100.0,1.0,0.18,0.08005051637524052,0.2,1.0,-160.0,0,0,calibrating,0,0,0,0,0,0.0
3.692125173000022,370,1182.82,92.7,6.5,-110.2,-0.29,0.44,-0.79,0.02,0.94,-0.06,-217.9,204.9,254.0,1.37,-5.85,-0.24,0.0,0.9421252570651102,0.9496315074806649,0.0,0.0,2.0,0.6,1.2,100.0,1.0,0.18,0.06725144317423726,0.2,1.0,-160.0,0,0,calibrating,0,0,0,0,0,0.0
3.7036641539998527,371,1182.83,92.6,6.4,-110.3,-0.34,0.44,-0.76,0.05,0.94,-0.07,-215.7,227.7,234.0,1.31,-6.45,0.01,0.0,0.9439279633531363,0.9417005893594843,0.0,0.0,2.0,0.6,1.2,100.0,1.0,0.18,0.06413976214848693,0.2,1.0,-160.0,0,0,calibrating,0,0,0,0,0,0.0
3.7121269849999408,372,1182.84,92.6,6.3,-110.3,-0.32,0.47,-0.76,0.07,0.93,-0.08,-213.2,249.7,223.0,1.24,-7.05,-0.07,0.0,0.936055553906925,0.9491575211733825,0.0,0.0,2.0,0.6,1.2,100.0,1.0,0.18,0.07057192816280444,0.2,1.0,-160.0,0,0,calibrating,0,0,0,0,0,0.0
3.7236792100000002,373,1182.85,92.6,6.2,-110.4,-0.33,0.52,-0.78,0.08,0.93,-0.1,-210.6,273.9,248.0,1.16,-7.78,0.02,0.0,0.9387757985802574,0.9938309715439543,0.0,0.0,2.0,0.6,1.2,100.0,1.0,0.18,0.06649464981968256,0.2,1.0,-160.0,0,0,calibrating,0,0,0,0,0,0.0
3.7323103759999867,374,1182.86,92.6,6.1,-110.4,-0.36,0.62,-0.8,0.08,0.93,-0.1,-207.7,299.2,238.0,1.08,-8.39,-0.12,0.0,0.9387757985802574,1.074243920159663,0.0,0.0,2.0,0.6,1.2,100.0,1.0,0.18,0.06516475682328893,0.2,1.0,-160.0,0,0,calibrating,0,0,0,0,0,0.0
3.7436785689999397,375,1182.87,92.6,6.0,-110.5,-0.39,0.72,-0.78,0.07,0.94,-0.11,-204.5,317.2,187.0,0.99,-8.82,0.0,0.0,0.9489994731294639,1.1308846094982459,0.0,0.0,2.0,0.6,1.2,100.0,1.0,0.18,0.05384226062860076,0.2,1.0,-160.0,0,0,calibrating,0,0,0,0,0,0.0
3.7521898630000123,376,1182.88,92.6,5.9,-110.6,-0.42,0.82,-0.73,0.05,0.94,-0.12,-201.2,338.0,227.0,0.9,-9.52,-0.11,0.0,0.9489467845985885,1.1754573577973808,0.0,0.0,2.0,0.6,1.2,100.0,1.0,0.18,0.052817050176286684,0.2,1.0,-160.0,0,0,calibrating,0,0,0,0,0,0.0
3.7637378889999127,377,1182.89,92.6,5.9,-110.6,-0.35,0.88,-0.65,0.02,0.94,-0.13,-197.7,361.8,215.0,0.8,-10.07,0.03,0.0,0.9491575211733825,1.1486513831445988,0.0,0.0,2.0,0.6,1.2,100.0,1.0,0.18,0.05155418732946293,0.2,1.0,-160.0,0,0,calibrating,0,0,0,0,0,0.0
3.7720946039999035,378,1182.9,92.5,5.8,-110.7,-0.25,0.91,-0.55,0.01,0.95,-0.14,-193.9,379.2,192.0,0.7,-10.55,0.29,0.0,0.9603124491539199,1.092291169972549,0.0,0.0,2.0,0.6,1.2,100.0,1.0,0.18,0.039591274161946965,0.2,1.0,-160.0,0,0,calibrating,0,0,0,0,0,0.0
3.7834949609998603,379,1182.91,92.5,5.8,-110.8,-0.21,0.93,-0.43,0.0,0.96,-0.15,-190.0,400.5,212.0,0.59,-11.16,-0.2,0.0,0.9716480844420988,1.0458967444255671,0.0,0.0,2.0,0.6,1.2,100.0,1.0,0.18,0.027690526096292634,0.2,1.0,-160.0,0,0,calibrating,0,0,0,0,0,0.0
3.792145005999828,380,1182.92,92.5,5.7,-110.9,-0.27,0.93,-0.27,0.0,0.96,-0.16,-185.8,422.1,218.0,0.47,-11.77,0.12,0.0,0.9732420048477152,1.0053357648069625,0.0,0.0,2.0,0.6,1.2,100.0,1.0,0.18,0.025574673576862716,0.2,1.0,-160.0,0,0,calibrating,0,0,0,0,0,0.0
3.803594428999986,381,1182.93,92.4,5.7,-111.0,-0.47,0.9,-0.11,-0.01,0.96,-0.17,-181.4,450.0,262.0,0.35,-12.55,0.01,0.0,0.9749871794028884,1.0212737145349429,0.0,0.0,2.0,0.6,1.2,100.0,1.0,0.18,0.023352909041255754,0.2,1.0,-160.0,0,0,calibrating,0,0,0,0,0,0.0
3.812150187999805,382,1182.94,92.3,5.7,-111.1,-0.77,0.82,0.07,-0.03,0.95,-0.16,-177.3,468.7,202.0,0.22,-13.0,-0.15,0.0,0.9638464608017192,1.1270314991161514,0.0,0.0,2.0,0.6,1.2,100.0,1.0,0.18,0.03380375508957645,0.2,1.0,-160.0,0,0,calibrating,0,0,0,0,0,0.0
3.823648510999874,383,1182.95,92.2,5.7,-111.2,-1.02,0.67,0.27,-0.04,0.93,-0.15,-171.9,492.8,229.0,0.09,-13.67,-0.14,0.0,0.9428679653058535,1.249879994239447,0.0,0.0,2.0,0.6,1.2,100.0,1.0,0.18,0.05368660557373328,0.2,1.0,-160.0,0,0,calibrating,0,0,0,0,0,0.0
3.8322017569998934,384,1182.96,92.1,5.8,-111.2,-1.15,0.48,0.48,-0.04,0.91,-0.12,-166.9,508.4,166.0,-0.04,-14.03,0.05,0.0,0.9187491496594705,1.335402561027947,0.0,0.0,2.0,0.6,1.2,100.0,1.0,0.18,0.0762493127957139,0.2,1.0,-160.0,0,0,calibrating,0,0,0,0,0,0.0
3.8436429129999397,385,1182.97,92.0,5.8,-111.3,-1.09,0.19,0.69,-0.04,0.88,-0.1,-162.2,531.2,244.0,-0.19,-14.8,0.02,0.0,0.8865664103720601,1.3039555207138012,0.0,0.0,2.0,0.6,1.2,100.0,1.0,0.18,0.10626341104146186,0.2,1.0,-160.0,0,0,calibrating,0,0,0,0,0,0.0
3.8520629390000067,386,1182.98,91.9,5.9,-111.3,-0.82,-0.14,0.85,-0.05,0.87,-0.09,-156.2,550.3,169.0,-0.34,-15.14,-0.13,0.0,0.8760707733967615,1.1893275410920239,0.0,0.0,2.0,0.6,1.2,100.0,1.0,0.18,0.11442386705642504,0.2,1.0,-160.0,0,0,calibrating,0,0,0,0,0,0.0
3.8644152229999236,387,1182.99,91.9,6.0,-111.2,-0.43,-0.48,0.89,-0.05,0.87,-0.09,-150.5,568.3,187.0,-0.49,-15.69,0.11,0.0,0.8760707733967615,1.0988175462741756,0.0,0.0,2.0,0.6,1.2,100.0,1.0,0.18,0.11213538971529657,0.2,1.0,-160.0,0,0,calibrating,0,0,0,0,0,0.0
3.8721381599998494,388,1183.0,91.8,6.1,-111.2,-0.19,-0.76,0.9,-0.04,0.9,-0.07,-146.1,588.2,355.0,-0.67,-16.65,-0.15,0.0,0.9036038955205982,1.1931890043073645,0.0,0.0,2.0,0.6,1.2,100.0,1.0,0.18,0.08291022223963085,0.2,1.0,-160.0,0,0,calibrating,0,0,0,0,0,0.0
3.8836211999998795,389,1183.01,91.8,6.2,-111.1,-0.16,-0.99,0.88,-0.04,0.91,-0.07,-137.9,622.1,289.0,-0.84,-17.26,-0.26,0.0,0.9135644476444998,1.3342038824707414,0.0,0.0,2.0,0.6,1.2,100.0,1.0,0.18,0.07149067671341458,0.2,1.0,-160.0,0,0,calibrating,0,0,0,0,0,0.0
3.892132876000005,390,1183.02,91.8,6.3,-111.0,-0.18,-1.22,0.87,-0.04,0.9,-0.08,-131.5,643.7,180.0,-1.02,-17.57,0.12,0.0,0.904433524367601,1.509205088780183,0.0,0.0,2.0,0.6,1.2,100.0,1.0,0.18,0.07900916799050706,0.2,1.0,-160.0,0,0,calibrating,0,0,0,0,0,0.0
3.903599277000012,391,1183.03,91.8,6.3,-110.8,-0.23,-1.42,0.84,-0.03,0.87,-0.1,-124.9,665.7,249.0,-1.2,-18.4,-0.17,0.0,0.8762419757121888,1.6658031096140984,0.0,0.0,2.0,0.6,1.2,100.0,1.0,0.18,0.10505670231300102,0.2,1.0,-160.0,0,0,calibrating,0,0,0,0,0,0.0
3.912166131999811,392,1183.04,91.8,6.4,-110.7,-0.11,-1.59,0.81,-0.01,0.84,-0.12,-118.2,677.9,133.0,-1.39,-18.55,0.02,0.0,0.8485870609430713,1.7878199014442144,0.0,0.0,2.0,0.6,1.2,100.0,1.0,0.18,0.130057384740476,0.2,1.0,-160.0,0,0,calibrating,0,0,0,0,0,0.0
3.9236486269999205,393,1183.05,91.8,6.5,-110.5,0.35,-1.75,0.73,0.01,0.83,-0.15,-111.3,690.0,154.0,-1.58,-19.03,0.07,0.0,0.8435045939412541,1.9281856757065696,0.0,0.0,2.0,0.6,1.2,100.0,1.0,0.18,0.13243705470744738,0.2,1.0,-160.0,0,0,calibrating,0,0,0,0,0,0.0
3.9322868239999025,394,1183.06,91.9,6.6,-110.3,0.91,-1.76,0.6,0.05,0.86,-0.18,-104.3,710.4,144.0,-1.77,-19.4,-0.05,0.0,0.8800568163476719,2.070193227696391,0.0,0.0,2.0,0.6,1.2,100.0,1.0,0.18,0.09396713565500892,0.2,1.0,-160.0,0,0,calibrating,0,0,0,0,0,0.0
3.9443278719998034,395,1183.07,92.1,6.6,-110.1,1.14,-1.66,0.44,0.11,0.88,-0.21,-97.1,724.2,122.0,-1.97,-19.69,-0.05,0.0,0.9113725912051558,2.0612617495116914,0.0,0.0,2.0,0.6,1.2,100.0,1.0,0.18,0.06139833358157454,0.2,1.0,-160.0,0,0,calibrating,0,0,0,0,0,0.0
3.9522857859999476,396,1183.08,92.2,6.6,-110.0,1.16,-1.3,0.22,0.14,0.91,-0.24,-89.9,718.2,-14.0,-2.16,-19.43,0.13,0.0,0.9514725429564429,1.7561321134812153,0.0,0.0,2.0,0.6,1.2,100.0,1.0,0.18,0.020872414193681688,0.2,1.0,-160.0,0,0,calibrating,0,0,0,0,0,0.0
3.9635305179999705,397,1183.09,92.3,6.6,-109.9,0.92,-0.88,0.04,0.12,0.95,-0.26,-82.9,685.9,-357.0,-2.35,-17.82,0.2,0.0,0.9922197337283712,1.2737346662472526,0.0,0.0,2.0,0.6,1.2,100.0,1.0,0.18,0.01947728104668167,0.2,1.0,-160.0,0,0,calibrating,0,0,0,0,0,0.0
3.9721614879999834,398,1183.1,92.4,6.6,-109.8,0.73,-0.77,-0.05,0.13,0.95,-0.28,-76.6,584.7,-1054.0,-2.5,-13.77,0.79,0.0,0.9988993943335835,1.0622146675696018,0.0,0.0,2.0,0.6,1.2,100.0,1.0,0.18,0.025633802818856077,0.2,1.0,-160.0,0,0,calibrating,0,0,0,0,0,0.0
3.9837611949999427,399,1183.11,92.5,6.6,-109.7,1.01,-0.6,0.03,-0.02,1.06,-0.27,-72.1,382.3,-1865.0,-2.59,-7.42,0.94,0.0,1.0940292500660118,1.1751595636338072,0.0,0.0,2.0,0.6,1.2,100.0,1.0,0.18,0.11834838538025871,0.2,1.0,-160.0,0,0,calibrating,0,0,0,0,0,0.0
3.992159630999822,400,1183.12,92.6,6.6,-109.7,0.92,-0.98,0.09,-0.05,1.05,-0.27,-70.0,136.4,-2256.0,-2.62,-0.7,0.88,0.0,1.08531101533155,1.3471822445385777,0.0,0.0,2.0,0.6,1.2,100.0,1.0,0.18,0.10743754763288094,0.2,1.0,-160.0,0,0,calibrating,0,0,0,0,0,0.0
4.003731539,401,1183.13,92.8,6.6,-109.5,3.11,-1.82,-0.47,0.04,1.1,-0.17,-70.1,-64.9,-1762.0,-2.6,3.14,0.29,0.0,1.113777356566383,3.63392349946996,0.0,0.0,2.0,0.6,1.2,100.0,1.0,0.18,0.13318581109035976,0.2,1.0,-160.0,0,0,calibrating,0,0,0,0,0,0.0
4.016381415999831,402,1183.14,93.3,6.5,-109.3,4.23,-2.33,-1.46,0.28,1.29,-0.19,-71.5,-157.4,-1110.0,-2.55,5.13,0.19,0.0,1.333641631023867,5.045136271697723,0.0,0.0,2.0,0.6,1.2,100.0,1.0,0.18,0.34598908383688676,0.2,1.0,-160.0,0,0,calibrating,0,0,0,0,0,0.0
4.024228871999867,403,1183.15,93.6,6.3,-109.1,2.76,-2.3,-2.63,0.37,1.46,-0.26,-73.5,-216.6,-704.0,-2.49,6.41,0.04,0.0,1.5284305676084864,4.4524712239384545,0.0,0.0,2.0,0.6,1.2,100.0,1.0,0.18,0.529962460013076,0.2,1.0,-160.0,0,0,calibrating,0,0,0,0,0,0.0
4.036383432999855,404,1183.16,93.8,6.0,-108.9,0.2,-1.86,-3.34,0.32,1.4,-0.2,-75.6,-250.0,-465.0,-2.43,7.14,0.09,0.0,1.4499655168313486,3.8282110704609797,0.0,0.0,2.0,0.6,1.2,100.0,1.0,0.18,0.44246746105121937,0.2,1.0,-160.0,0,0,calibrating,0,0,0,0,0,0.0
4.04415728999993,405,1183.17,93.8,5.6,-108.8,-0.3,-0.95,-3.65,0.22,1.27,-0.13,-78.3,-272.8,-266.0,-2.35,7.55,0.11,0.0,1.295453588516393,3.783516882478523,0.0,0.0,2.0,0.6,1.2,100.0,1.0,0.18,0.2821964220815385,0.2,1.0,-160.0,0,0,calibrating,0,0,0,0,0,0.0
4.05216910099989,406,1183.18,93.8,5.3,-108.7,0.92,-0.27,-3.73,0.17,1.12,-0.05,-81.1,-277.7,-91.0,-2.28,7.52,-0.05,0.0,1.1339312148450629,3.8512595342303277,0.0,0.0,2.0,0.6,1.2,100.0,1.0,0.18,0.1182605674420043,0.2,1.0,-160.0,0,0,calibrating,0,0,0,0,0,0.0
4.0637965549999535,407,1183.19,94.0,4.9,-108.8,3.1,0.38,-3.89,0.16,1.15,0.01,-83.8,-273.9,0.0,-2.2,7.39,-0.05,0.0,1.1611201488218177,4.988637088424052,0.0,0.0,2.0,0.6,1.2,100.0,1.0,0.18,0.14254051139038393,0.2,1.0,-160.0,0,0,calibrating,0,0,0,0,0,0.0
4.076243442999839,408,1183.2,94.4,4.5,-108.9,4.11,0.93,-3.9,0.15,1.32,0.05,-86.6,-270.4,13.0,-2.13,7.33,0.0,0.0,1.3294359706281458,5.741689646785169,0.0,0.0,2.0,0.6,1.2,100.0,1.0,0.18,0.3046392065327779,0.2,1.0,-160.0,0,0,calibrating,0,0,0,0,0,0.0
4.0842412529998455,409,1183.21,94.7,4.2,-109.0,3.24,1.57,-3.44,0.04,1.49,0.1,-89.2,-269.4,6.0,-2.06,7.33,-0.05,0.0,1.493887545968571,4.979568254377081,0.0,0.0,2.0,0.6,1.2,100.0,1.0,0.18,0.4597089662357392,0.2,1.0,-160.0,0,0,calibrating,0,0,0,0,0,0.0
4.092023352999831,410,1183.22,94.9,3.9,-109.2,1.29,1.46,-2.47,-0.16,1.48,0.18,-91.9,-267.0,27.0,-1.98,7.2,0.13,0.0,1.4994665718181248,3.1458862026462433,0.0,0.0,2.0,0.6,1.2,100.0,1.0,0.18,0.4559822322435869,0.2,1.0,-160.0,0,0,calibrating,0,0,0,0,0,0.0
4.103538168999876,411,1183.23,94.9,3.7,-109.4,-0.1,0.67,-1.32,-0.36,1.33,0.28,-94.6,-262.8,34.0,-1.91,7.1,0.03,0.0,1.4060227594174997,1.4836778626103444,0.0,0.0,2.0,0.6,1.2,100.0,1.0,0.18,0.3552876514461025,0.2,1.0,-160.0,0,0,calibrating,0,0,0,0,0,0.0
4.112017284999865,412,1183.24,94.9,3.6,-109.3,-0.36,-1.07,-0.47,-0.45,1.17,0.39,-97.2,-259.2,45.0,-1.84,6.95,0.03,0.0,1.3128213892224638,1.2228654872879519,0.0,0.0,2.0,0.6,1.2,100.0,1.0,0.18,0.25684455562604547,0.2,1.0,-160.0,0,0,calibrating,0,0,0,0,0,0.0
4.123568142999829,413,1183.25,94.9,3.6,-109.1,-0.14,-3.27,0.06,-0.43,1.09,0.41,-99.7,-248.2,110.0,-1.78,6.55,-0.06,0.0,1.2414104881142256,3.2735454785293574,0.0,0.0,2.0,0.6,1.2,100.0,1.0,0.18,0.18172498142745108,0.2,1.0,-160.0,0,0,calibrating,0,0,0,0,0,0.0
4.1323485450000135,414,1183.26,94.9,3.6,-108.7,-0.19,-5.26,0.48,-0.35,1.08,0.43,-102.1,-229.3,172.0,-1.71,5.97,0.08,0.0,1.2140016474453403,5.285271989216827,0.0,0.0,2.0,0.6,1.2,100.0,1.0,0.18,0.15122981794339418,0.2,1.0,-160.0,0,0,calibrating,0,0,0,0,0,0.0
4.143690569,415,1183.27,94.9,3.6,-108.0,-0.54,-6.89,0.67,-0.26,1.06,0.38,-104.2,-206.2,214.0,-1.66,5.31,-0.2,0.0,1.1556816170554935,6.94352936193115,0.0,0.0,2.0,0.6,1.2,100.0,1.0,0.18,0.09105159180247635,0.2,1.0,-160.0,0,0,calibrating,0,0,0,0,0,0.0
4.152561304999836,416,1183.28,94.9,3.6,-107.3,-1.09,-7.91,0.57,-0.18,1.01,0.3,-106.1,-180.4,259.0,-1.61,4.53,-0.14,0.0,1.0688779163215976,8.005067145252438,0.0,0.0,2.0,0.6,1.2,100.0,1.0,0.18,0.004162933247209066,0.2,1.0,-160.0,0,0,calibrating,0,0,0,0,0,0.0
4.1638430209998205,417,1183.29,94.8,3.6,-106.5,-1.35,-8.58,0.16,-0.06,0.96,0.24,-107.7,-149.0,302.0,-1.57,3.64,0.02,0.0,0.9913626985114984,8.687030562856332,0.0,0.0,2.0,0.6,1.2,100.0,1.0,0.18,0.07188523887163234,0.2,1.0,-160.0,0,0,calibrating,0,0,0,0,0,0.0
4.172325631999911,418,1183.3,94.7,3.5,-105.6,-1.5,-8.78,-0.34,0.06,0.91,0.11,-108.9,-113.6,347.0,-1.54,2.63,0.0,0.0,0.9185858696931932,8.913697324903959,0.0,0.0,2.0,0.6,1.2,100.0,1.0,0.18,0.14176882633613874,0.2,1.0,-160.0,0,0,calibrating,0,0,0,0,0,0.0
4.183807465999962,419,1183.31,94.6,3.4,-104.7,-1.73,-8.39,-0.73,0.15,0.89,0.0,-109.8,-76.6,362.0,-1.52,1.61,-0.23,0.0,0.9025519375637061,8.597551977161872,0.0,0.0,2.0,0.6,1.2,100.0,1.0,0.18,0.15464670329631325,0.2,1.0,-160.0,0,0,calibrating,0,0,0,0,0,0.0
4.192247701999804,420,1183.32,94.5,3.2,-103.9,-1.75,-7.67,-0.93,0.21,0.9,-0.06,-110.3,-38.9,371.0,-1.51,0.59,-0.11,0.0,0.926120942425988,7.921887401370963,0.0,0.0,2.0,0.6,1.2,100.0,1.0,0.18,0.1284561444653508,0.2,1.0,-160.0,0,0,calibrating,0,0,0,0,0,0.0
4.203548860999945,421,1183.33,94.3,3.1,-103.2,-1.59,-6.81,-0.88,0.25,0.9,-0.1,-110.4,-0.1,371.0,-1.52,-0.39,0.04,0.0,0.9394147114027969,7.048304760720836,0.0,0.0,2.0,0.6,1.2,100.0,1.0,0.18,0.11285912797877096,0.2,1.0,-160.0,0,0,calibrating,0,0,0,0,0,0.0
4.212409912999874,422,1183.34,94.2,2.9,-102.6,-1.41,-5.83,-0.65,0.26,0.89,-0.13,-110.3,19.4,189.0,-1.52,-0.59,0.05,0.0,0.9362691920596341,6.033199814360536,0.0,0.0,2.0,0.6,1.2,100.0,1.0,0.18,0.11368455437549507,0.2,1.0,-160.0,0,0,calibrating,0,0,0,0,0,0.0
4.223662882999861,423,1183.35,94.1,2.9,-102.1,-1.01,-4.92,-0.29,0.25,0.87,-0.15,-110.1,20.6,57.0,-1.53,-0.54,-0.1,0.0,0.9175510884958941,5.030964122312938,0.0,0.0,2.0,0.6,1.2,100.0,1.0,0.18,0.12975460478045042,0.2,1.0,-160.0,0,0,calibrating,0,0,0,0,0,0.0
4.232467736999979,424,1183.36,94.1,2.8,-101.6,-0.56,-3.93,0.15,0.24,0.88,-0.18,-109.9,14.7,-52.0,-1.53,-0.21,0.06,0.0,0.9297311439335567,3.972530679554281,0.0,0.0,2.0,0.6,1.2,100.0,1.0,0.18,0.11522305835593194,0.2,1.0,-160.0,0,0,calibrating,0,0,0,0,0,0.0
4.243529764999948,425,1183.37,94.1,2.8,-101.3,-0.04,-2.98,0.64,0.23,0.91,-0.17,-109.8,-0.5,-107.0,-1.53,0.14,0.0,0.0,0.9538867857350788,3.0482125910113287,0.0,0.0,2.0,0.6,1.2,100.0,1.0,0.18,0.0892460682233216,0.2,1.0,-160.0,0,0,calibrating,0,0,0,0,0,0.0
4.252395072999889,426,1183.38,94.1,2.9,-101.0,0.3,-2.22,1.08,0.22,0.94,-0.13,-109.9,-7.6,-68.0,-1.53,0.26,0.07,0.0,0.9741149829460586,2.4869258131275247,0.0,0.0,2.0,0.6,1.2,100.0,1.0,0.18,0.06763751359209491,0.2,1.0,-160.0,0,0,calibrating,0,0,0,0,0,0.0
4.263607419999971,427,1183.39,94.2,3.0,-100.8,0.41,-1.71,1.41,0.2,0.97,-0.1,-110.0,-12.5,-58.0,-1.52,0.41,-0.04,0.0,0.9954396013822235,2.253952084672609,0.0,0.0,2.0,0.6,1.2,100.0,1.0,0.18,0.045386637252811335,0.2,1.0,-160.0,0,0,calibrating,0,0,0,0,0,0.0
4.271934516999863,428,1183.4,94.2,3.2,-100.7,0.24,-1.44,1.59,0.17,0.97,-0.08,-110.2,-21.2,-103.0,-1.52,0.8,0.18,0.0,0.9880283396745257,2.1585411740339815,0.0,0.0,2.0,0.6,1.2,100.0,1.0,0.18,0.05174194098129892,0.2,1.0,-160.0,0,0,calibrating,0,0,0,0,0,0.0
4.28384542799995,429,1183.41,94.2,3.4,-100.5,-0.22,-1.35,1.63,0.15,0.97,-0.07,-110.5,-37.7,-137.0,-1.51,1.22,-0.18,0.0,0.9840223574695851,2.127862777530544,0.0,0.0,2.0,0.6,1.2,100.0,1.0,0.18,0.054632964722514665,0.2,1.0,-160.0,0,0,calibrating,0,0,0,0,0,0.0
4.291911106999805,430,1183.42,94.2,3.6,-100.4,-0.74,-1.34,1.59,0.14,0.93,-0.06,-111.0,-56.0,-173.0,-1.49,1.76,0.0,0.0,0.9423905772024677,2.2071021725330255,0.0,0.0,2.0,0.6,1.2,100.0,1.0,0.18,0.09433945008983957,0.2,1.0,-160.0,0,0,calibrating,0,0,0,0,0,0.0
4.303267312999878,431,1183.43,94.1,3.8,-100.2,-0.95,-1.43,1.42,0.14,0.88,-0.05,-111.7,-72.9,-161.0,-1.47,2.16,0.02,0.0,0.8924684868386109,2.227958706978206,0.0,0.0,2.0,0.6,1.2,100.0,1.0,0.18,0.14137630964462233,0.2,1.0,-160.0,0,0,calibrating,0,0,0,0,0,0.0
4.312122414999976,432,1183.44,94.0,4.0,-100.1,-0.94,-1.55,1.25,0.15,0.86,-0.05,-112.5,-88.4,-154.0,-1.45,2.57,0.04,0.0,0.8744140895479668,2.2019536779868916,0.0,0.0,2.0,0.6,1.2,100.0,1.0,0.18,0.15624209279656098,0.2,1.0,-160.0,0,0,calibrating,0,0,0,0,0,0.0
4.323353003999955,433,1183.45,93.9,4.1,-99.9,-0.77,-1.62,1.14,0.14,0.87,-0.06,-113.5,-101.5,-136.0,-1.42,2.91,-0.03,0.0,0.8832326986700617,2.1252999788265186,0.0,0.0,2.0,0.6,1.2,100.0,1.0,0.18,0.14447501400097684,0.2,1.0,-160.0,0,0,calibrating,0,0,0,0,0,0.0
4.332090161999986,434,1183.46,93.9,4.3,-99.7,-0.62,-1.59,1.12,0.14,0.89,-0.08,-114.6,-112.0,-101.0,-1.39,3.13,-0.12,0.0,0.9044888059008801,2.041298606279836,0.0,0.0,2.0,0.6,1.2,100.0,1.0,0.18,0.12075452863475522,0.2,1.0,-160.0,0,0,calibrating,0,0,0,0,0,0.0
4.343503121999902,435,1183.47,93.8,4.4,-99.6,-0.51,-1.42,1.17,0.12,0.89,-0.1,-115.8,-119.6,-80.0,-1.35,3.32,0.13,0.0,0.9036038955205982,1.909293062890032,0.0,0.0,2.0,0.6,1.2,100.0,1.0,0.18,0.11920665023473631,0.2,1.0,-160.0,0,0,calibrating,0,0,0,0,0,0.0
4.355998960999841,436,1183.48,93.8,4.6,-99.4,-0.47,-1.2,1.25,0.11,0.89,-0.11,-117.0,-125.1,-57.0,-1.32,3.44,0.13,0.0,0.9034932207825358,1.7953829675030337,0.0,0.0,2.0,0.6,1.2,100.0,1.0,0.18,0.11693097847334266,0.2,1.0,-160.0,0,0,calibrating,0,0,0,0,0,0.0
4.363937936999946,437,1183.49,93.8,4.7,-99.3,-0.44,-1.0,1.32,0.1,0.88,-0.12,-118.3,-127.6,-32.0,-1.28,3.5,0.15,0.0,0.8937561188601731,1.7134759992483115,0.0,0.0,2.0,0.6,1.2,100.0,1.0,0.18,0.12413471878779114,0.2,1.0,-160.0,0,0,calibrating,0,0,0,0,0,0.0
4.3718408810000255,438,1183.5,93.8,4.9,-99.2,-0.42,-0.88,1.37,0.1,0.88,-0.12,-119.6,-127.6,-3.0,-1.25,3.44,0.06,0.0,0.8937561188601731,1.6815766411317683,0.0,0.0,2.0,0.6,1.2,100.0,1.0,0.18,0.12165202441203526,0.2,1.0,-160.0,0,0,calibrating,0,0,0,0,0,0.0
4.383406971999875,439,1183.51,93.9,5.0,-99.1,-0.37,-0.85,1.39,0.11,0.88,-0.13,-120.8,-125.6,16.0,-1.22,3.37,0.05,0.0,0.8963258336118624,1.6707782617690474,0.0,0.0,2.0,0.6,1.2,100.0,1.0,0.18,0.11670066346713914,0.2,1.0,-160.0,0,0,calibrating,0,0,0,0,0,0.0
4.392030262999924,440,1183.52,93.9,5.2,-99.0,-0.44,-0.87,1.36,0.12,0.88,-0.13,-122.1,-123.0,26.0,-1.18,3.29,-0.37,0.0,0.8976079322287654,1.6733499335165973,0.0,0.0,2.0,0.6,1.2,100.0,1.0,0.18,0.11311019355323138,0.2,1.0,-160.0,0,0,calibrating,0,0,0,0,0,0.0
4.403409736999947,441,1183.53,93.9,5.3,-98.9,-0.56,-0.91,1.25,0.14,0.87,-0.14,-123.3,-118.8,39.0,-1.15,3.15,0.15,0.0,0.8922443611477743,1.6444451951950239,0.0,0.0,2.0,0.6,1.2,100.0,1.0,0.18,0.11610428934153805,0.2,1.0,-160.0,0,0,calibrating,0,0,0,0,0,0.0
4.411806671000022,442,1183.54,93.8,5.4,-98.8,-0.7,-0.92,1.05,0.16,0.85,-0.15,-124.4,-113.7,49.0,-1.12,3.02,-0.1,0.0,0.8778382538941897,1.5616977940690062,0.0,0.0,2.0,0.6,1.2,100.0,1.0,0.18,0.12790018866322028,0.2,1.0,-160.0,0,0,calibrating,0,0,0,0,0,0.0
4.423617123999975,443,1183.55,93.7,5.5,-98.7,-0.87,-0.96,0.75,0.19,0.81,-0.16,-125.5,-107.2,69.0,-1.09,2.79,0.08,0.0,0.8472307831990054,1.496996993984958,0.0,0.0,2.0,0.6,1.2,100.0,1.0,0.18,0.15533750617123654,0.2,1.0,-160.0,0,0,calibrating,0,0,0,0,0,0.0
4.43184488299994,444,1183.56,93.6,5.6,-98.6,-1.09,-0.97,0.3,0.21,0.75,-0.18,-126.5,-97.5,87.0,-1.07,2.54,-0.15,0.0,0.7993747556684537,1.4896308267486948,0.0,0.0,2.0,0.6,1.2,100.0,1.0,0.18,0.19912966302775237,0.2,1.0,-160.0,0,0,calibrating,0,0,0,0,0,0.0
4.443916219999892,445,1183.57,93.5,5.6,-98.5,-1.16,-0.88,-0.2,0.23,0.7,-0.19,-127.5,-89.3,77.0,-1.04,2.34,-0.13,0.0,0.7609204951898719,1.469693845669907,0.0,0.0,2.0,0.6,1.2,100.0,1.0,0.18,0.23283224503620747,0.2,1.0,-160.0,0,0,calibrating,0,0,0,0,0,0.0
4.452160525999943,446,1183.58,93.4,5.5,-98.4,-0.95,-0.66,-0.63,0.24,0.7,-0.19,-128.3,-83.7,62.0,-1.02,2.2,-0.1,0.0,0.7640026177965623,1.3171939872319491,0.0,0.0,2.0,0.6,1.2,100.0,1.0,0.18,0.22515511998092685,0.2,1.0,-160.0,0,0,calibrating,0,0,0,0,0,0.0
4.46349873600002,447,1183.59,93.4,5.4,-98.4,-0.67,-0.29,-0.79,0.23,0.71,-0.18,-129.1,-79.4,37.0,-1.0,2.14,0.0,0.0,0.7677239087067693,1.07568582773968,0.0,0.0,2.0,0.6,1.2,100.0,1.0,0.18,0.2170051524893052,0.2,1.0,-160.0,0,0,calibrating,0,0,0,0,0,0.0
4.471752945999924,448,1183.6,93.4,5.3,-98.4,0.16,0.07,-0.78,0.2,0.76,-0.18,-129.9,-78.0,19.0,-0.98,2.12,0.16,0.0,0.806225774829855,0.7993122043357026,0.0,0.0,2.0,0.6,1.2,100.0,1.0,0.18,0.17493322063889516,0.2,1.0,-160.0,0,0,calibrating,0,0,0,0,0,0.0
4.4834710699999505,449,1183.61,93.4,5.3,-98.4,0.78,0.37,-0.69,0.16,0.79,-0.19,-130.7,-80.5,-29.0,-0.95,2.27,0.09,0.0,0.8281304245105358,1.1051696702316798,0.0,0.0,2.0,0.6,1.2,100.0,1.0,0.18,0.14996799953905016,0.2,1.0,-160.0,0,0,calibrating,0,0,0,0,0,0.0
4.491864446999898,450,1183.62,93.5,5.2,-98.5,1.12,0.6,-0.69,0.13,0.79,-0.2,-131.5,-88.0,-69.0,-0.93,2.51,-0.25,0.0,0.8252272414311104,1.445856147754679,0.0,0.0,2.0,0.6,1.2,100.0,1.0,0.18,0.14981375896610605,0.2,1.0,-160.0,0,0,calibrating,0,0,0,0,0,0.0
4.503329400999974,451,1183.63,93.6,5.1,-98.5,1.25,0.71,-0.76,0.12,0.81,-0.2,-132.5,-101.2,-116.0,-0.9,2.92,-0.05,0.0,0.8429116205154608,1.6260996279441184,0.0,0.0,2.0,0.6,1.2,100.0,1.0,0.18,0.12948679228412052,0.2,1.0,-160.0,0,0,calibrating,0,0,0,0,0,0.0
4.512028310999995,452,1183.64,93.7,5.1,-98.6,1.35,0.74,-0.74,0.14,0.85,-0.21,-133.6,-117.4,-155.0,-0.87,3.4,0.05,0.0,0.8866791979064356,1.708127629891865,0.0,0.0,2.0,0.6,1.2,100.0,1.0,0.18,0.08400483059528285,0.2,1.0,-160.0,0,0,calibrating,0,0,0,0,0,0.0
4.523386131999814,453,1183.65,93.9,5.0,-98.7,1.65,0.7,-0.49,0.16,0.97,-0.17,-134.9,-136.7,-193.0,-0.83,3.99,0.22,0.0,0.9976973488989535,1.8581173267584583,0.0,0.0,2.0,0.6,1.2,100.0,1.0,0.18,0.02647305398929034,0.2,1.0,-160.0,0,0,calibrating,0,0,0,0,0,0.0
4.5319354719999865,454,1183.66,94.1,5.0,-98.8,1.86,0.57,0.01,0.14,1.07,-0.08,-136.5,-160.0,-224.0,-0.79,4.65,0.13,0.0,1.082081327812286,1.945404842185811,0.0,0.0,2.0,0.6,1.2,100.0,1.0,0.18,0.10863989224457049,0.2,1.0,-160.0,0,0,calibrating,0,0,0,0,0,0.0
4.543542766999963,455,1183.67,94.2,5.1,-98.8,1.79,0.18,0.3,0.11,1.08,-0.04,-138.2,-185.1,-240.0,-0.73,5.33,0.2,0.0,1.086324076875773,1.8238695128764009,0.0,0.0,2.0,0.6,1.2,100.0,1.0,0.18,0.11062498848189617,0.2,1.0,-160.0,0,0,calibrating,0,0,0,0,0,0.0
4.551753766999809,456,1183.68,94.4,5.1,-98.8,1.33,-0.34,0.26,0.09,1.08,-0.04,-140.3,-209.5,-238.0,-0.68,5.98,0.18,0.0,1.0844814429025516,1.3971757226634023,0.0,0.0,2.0,0.6,1.2,100.0,1.0,0.18,0.10660670741850131,0.2,1.0,-160.0,0,0,calibrating,0,0,0,0,0,0.0
4.563394586999948,457,1183.69,94.5,5.1,-98.7,0.55,-0.81,-0.07,0.07,1.0,-0.21,-142.5,-233.6,-235.0,-0.61,6.61,0.01,0.0,1.0242070103255494,0.9815803584016951,0.0,0.0,2.0,0.6,1.2,100.0,1.0,0.18,0.045405629344669185,0.2,1.0,-160.0,0,0,calibrating,0,0,0,0,0,0.0
4.571750800000018,458,1183.7,94.5,5.1,-98.6,0.18,-0.85,-0.4,0.08,0.99,-0.31,-145.0,-253.6,-193.0,-0.54,7.07,0.27,0.0,1.0404806581575652,0.9565040512198576,0.0,0.0,2.0,0.6,1.2,100.0,1.0,0.18,0.06044569163315128,0.2,1.0,-160.0,0,0,calibrating,0,0,0,0,0,0.0
4.583386125999823,459,1183.71,94.6,5.0,-98.6,0.66,-0.6,-0.44,0.1,0.97,-0.37,-147.6,-267.6,-155.0,-0.47,7.44,-0.22,0.0,1.0429765098025938,0.9945853407325085,0.0,0.0,2.0,0.6,1.2,100.0,1.0,0.18,0.06168271241261636,0.2,1.0,-160.0,0,0,calibrating,0,0,0,0,0,0.0
4.591959162999956,460,1183.72,94.7,5.0,-98.5,1.76,-0.28,-0.21,0.14,1.01,-0.37,-150.4,-283.5,-170.0,-0.39,7.94,0.13,0.0,1.0847119433287347,1.7944637081869335,0.0,0.0,2.0,0.6,1.2,100.0,1.0,0.18,0.1013497830199821,0.2,1.0,-160.0,0,0,calibrating,0,0,0,0,0,0.0
4.603438494999864,461,1183.73,94.9,5.0,-98.5,2.63,0.28,0.32,0.21,1.15,-0.33,-153.4,-302.7,-185.0,-0.31,8.46,0.19,0.0,1.2147016094498269,2.6641508966272913,0.0,0.0,2.0,0.6,1.2,100.0,1.0,0.18,0.22671266015825275,0.2,1.0,-160.0,0,0,calibrating,0,0,0,0,0,0.0
4.615822706000017,462,1183.74,95.2,5.1,-98.6,2.67,0.89,0.91,0.22,1.2,-0.3,-156.6,-324.4,-215.0,-0.22,9.1,0.21,0.0,1.2563439019631528,2.9578877598718987,0.0,0.0,2.0,0.6,1.2,100.0,1.0,0.18,0.26298785361814714,0.2,1.0,-160.0,0,0,calibrating,0,0,0,0,0,0.0
4.623804871999937,463,1183.75,95.4,5.2,-98.7,2.56,1.39,1.31,0.23,1.25,-0.29,-160.0,-351.7,-269.0,-0.12,9.93,0.12,0.0,1.303648725692623,3.194025673033954,0.0,0.0,2.0,0.6,1.2,100.0,1.0,0.18,0.304086823800665,0.2,1.0,-160.0,0,0,calibrating,0,0,0,0,0,0.0
4.631816870999955,464,1183.76,95.7,5.4,-98.8,2.51,1.88,1.81,0.21,1.4,-0.2,-163.7,-380.2,-254.0,-0.02,10.6,0.08,0.0,1.4297202523570824,3.6208562523248555,0.0,0.0,2.0,0.6,1.2,100.0,1.0,0.18,0.421555183455822,0.2,1.0,-160.0,0,0,calibrating,0,0,0,0,0,0.0
4.643479667999827,465,1183.77,95.9,5.6,-99.0,2.04,2.05,2.55,0.12,1.6,-0.05,-167.7,-401.9,-249.0,0.08,11.27,0.21,0.0,1.6052725625263768,3.855723019097715,0.0,0.0,2.0,0.6,1.2,100.0,1.0,0.18,0.5851653437526141,0.2,1.0,-160.0,0,0,calibrating,0,0,0,0,0,0.0
4.651992266999969,466,1183.78,96.0,5.9,-99.2,1.41,1.82,3.39,0.02,1.7,0.02,-171.9,-431.6,-270.0,0.2,12.03,0.2,0.0,1.7002352778365704,4.097877499389165,0.0,0.0,2.0,0.6,1.2,100.0,1.0,0.18,0.6665254978815514,0.2,1.0,-160.0,0,0,calibrating,0,0,0,0,0,0.0
4.663340022999819,467,1183.79,96.1,6.3,-99.3,0.73,1.55,4.03,-0.05,1.78,0.08,-176.4,-454.1,-240.0,0.32,12.64,0.15,0.0,1.7824982468434576,4.379075244843368,0.0,0.0,2.0,0.6,1.2,100.0,1.0,0.18,0.7338126975506698,0.2,1.0,-160.0,0,0,calibrating,0,0,0,0,0,0.0
