host_time_s,seq,device_time_s,roll,pitch,yaw,gyro_x,gyro_y,gyro_z,accel_x,accel_y,accel_z,belt_length,belt_velocity,belt_acceleration,motor_pos,motor_vel,motor_iq_meas,motor_iq_set,acc_mag,gyro_mag,acc_residual,threshold,heel_strike,hs_count,torque_cmd_nm
3.071781533999456,1,4946.28,-96.2,-1.7,-104.2,-0.03,0.08,0.0,-0.03,-0.99,-0.11,-207.3,0.0,0.0,1.11,0.0,-0.03,0.0,0.9965440281292142,0.08544003745317531,0.0,0.28,0,0,0.0
3.079832284999611,2,4946.29,-96.2,-1.7,-104.2,-0.02,0.1,-0.01,-0.03,-0.99,-0.12,-207.3,-0.1,1.0,1.11,0.0,0.02,0.0,0.9976973488989535,0.10246950765959599,0.001130254354344551,0.28,0,0,0.0
3.091661798000132,3,4946.3,-96.2,-1.7,-104.2,0.0,0.11,0.0,-0.03,-0.99,-0.12,-207.3,0.1,2.0,1.11,0.0,0.0,0.0,0.9976973488989535,0.11,0.0011076492672577043,0.28,0,0,0.0
3.099745769999572,4,4946.31,-96.2,-1.7,-104.2,0.01,0.11,0.0,-0.03,-0.98,-0.12,-207.3,0.0,0.0,1.11,0.0,0.01,0.0,0.9877752780870758,0.11045361017187261,0.00863813311372763,0.28,0,0,0.0
3.1078046819993688,5,4946.32,-96.3,-1.7,-104.2,0.0,0.11,0.0,-0.03,-0.97,-0.12,-207.3,0.1,0.0,1.11,0.0,0.0,0.0,0.9778547949465708,0.11,0.01818744392914795,0.28,0,0,0.0
3.115833179999754,6,4946.33,-96.3,-1.7,-104.2,-0.03,0.11,0.0,-0.03,-0.97,-0.12,-207.3,-0.3,0.0,1.11,0.0,0.09,0.0,0.9778547949465708,0.11401754250991379,0.017823695050565025,0.28,0,0,0.0
3.127756686999419,7,4946.34,-96.3,-1.7,-104.2,-0.08,0.11,0.01,-0.03,-0.98,-0.12,-207.3,0.0,4.0,1.11,0.0,0.0,0.0,0.9877752780870758,0.13638181696985854,0.007745147671858854,0.28,0,0,0.0
3.135651568999492,8,4946.35,-96.3,-1.7,-104.2,-0.07,0.12,0.02,-0.03,-0.98,-0.12,-207.3,-0.3,1.0,1.11,0.0,-0.06,0.0,0.9877752780870758,0.14035668847618202,0.007590244718421624,0.28,0,0,0.0
3.1476129699995,9,4946.36,-96.3,-1.7,-104.1,-0.06,0.11,0.03,-0.03,-0.98,-0.12,-207.3,0.0,0.0,1.11,0.0,0.01,0.0,0.9877752780870758,0.12884098726725127,0.0074384398240532335,0.28,0,0,0.0
3.1557571180001105,10,4946.37,-96.3,-1.7,-104.1,-0.05,0.12,0.04,-0.03,-0.98,-0.12,-207.3,0.0,-1.0,1.11,0.01,-0.06,0.0,0.9877752780870758,0.13601470508735444,0.007289671027572164,0.28,0,0,0.0
3.1677457089999734,11,4946.38,-96.3,-1.7,-104.1,-0.07,0.15,0.04,-0.03,-0.98,-0.13,-207.3,0.0,0.0,1.11,0.0,0.0,0.0,0.9890399385262457,0.17029386365926402,0.005904510376634198,0.28,0,0,0.0
3.179717127999538,12,4946.39,-96.4,-1.7,-104.1,-0.09,0.18,0.03,-0.03,-0.98,-0.13,-207.3,-0.2,-1.0,1.11,0.0,0.02,0.0,0.9890399385262457,0.20346989949375802,0.005786420169101469,0.28,0,0,0.0
3.1876963599997907,13,4946.4,-96.4,-1.7,-104.1,-0.08,0.22,0.03,-0.03,-0.99,-0.12,-207.4,0.0,0.0,1.11,0.0,0.05,0.0,0.9976973488989535,0.23600847442411893,0.0028135703995341155,0.28,0,0,0.0
3.1958429429996613,14,4946.41,-96.4,-1.7,-104.1,-0.07,0.23,0.03,-0.03,-0.99,-0.12,-207.4,0.0,2.0,1.11,0.0,0.0,0.0,0.9976973488989535,0.24228082879171436,0.002757298991543422,0.28,0,0,0.0
3.207397540999409,15,4946.42,-96.4,-1.7,-104.0,-0.06,0.24,0.01,-0.03,-0.99,-0.12,-207.4,-0.2,0.0,1.11,0.0,0.02,0.0,0.9976973488989535,0.24758836806279894,0.0027021530117125048,0.28,0,0,0.0
3.2155891610000253,16,4946.43,-96.4,-1.7,-104.0,-0.07,0.25,0.0,-0.03,-0.98,-0.12,-207.4,0.1,1.0,1.11,0.0,0.01,0.0,0.9877752780870758,0.2596150997149434,0.0070755194441618485,0.28,0,0,0.0
3.227397865999592,17,4946.44,-96.5,-1.7,-104.0,-0.09,0.26,0.0,-0.03,-0.98,-0.12,-207.4,0.0,0.0,1.11,0.0,0.01,0.0,0.9877752780870758,0.2751363298439521,0.006934009055278634,0.28,0,0,0.0
3.235819908999474,18,4946.45,-96.5,-1.7,-104.0,-0.08,0.27,0.0,-0.03,-0.99,-0.12,-207.4,-0.2,-3.0,1.11,0.0,-0.01,0.0,0.9976973488989535,0.2816025568065745,0.0029283005214670865,0.28,0,0,0.0
3.247902442999475,19,4946.46,-96.5,-1.7,-103.9,-0.07,0.28,0.0,-0.03,-0.99,-0.12,-207.4,-0.1,-2.0,1.11,0.0,-0.02,0.0,0.9976973488989535,0.28861739379323625,0.0028697345110377803,0.28,0,0,0.0
3.255834206000145,20,4946.47,-96.5,-1.7,-103.9,-0.06,0.27,-0.02,-0.04,-0.98,-0.12,-207.4,0.0,1.0,1.11,0.0,0.08,0.0,0.98812954616285,0.277308492477241,0.0065641068605644115,0.28,0,0,0.0
3.2676718709999477,21,4946.48,-96.5,-1.7,-103.9,-0.06,0.26,-0.03,-0.04,-0.99,-0.12,-207.4,-0.5,-1.0,1.11,0.01,-0.06,0.0,0.9980480950335009,0.26851443164195105,0.0032873531698848213,0.28,0,0,0.0
3.2757853129996874,22,4946.49,-96.5,-1.7,-103.8,-0.06,0.26,-0.05,-0.04,-0.99,-0.12,-207.4,-0.2,3.0,1.11,0.0,0.0,0.0,0.9980480950335009,0.2714774392099646,0.0032216061064871404,0.28,0,0,0.0
3.2877335699995456,23,4946.5,-96.5,-1.7,-103.8,-0.06,0.23,-0.08,-0.04,-0.99,-0.12,-207.4,0.0,-1.0,1.11,0.0,-0.06,0.0,0.9980480950335009,0.25079872407968906,0.003157173984357442,0.28,0,0,0.0
3.2997461889999613,24,4946.51,-96.5,-1.7,-103.8,-0.05,0.21,-0.11,-0.04,-0.99,-0.12,-207.4,0.1,1.0,1.11,0.0,0.06,0.0,0.9980480950335009,0.24228082879171434,0.0030940305046702754,0.28,0,0,0.0
3.3077027479994285,25,4946.52,-96.6,-1.7,-103.8,-0.03,0.19,-0.12,-0.04,-0.99,-0.12,-207.4,0.0,0.0,1.11,0.0,0.01,0.0,0.9980480950335009,0.22671568097509268,0.0030321498945768965,0.28,0,0,0.0
3.3156559809995088,26,4946.53,-96.6,-1.7,-103.8,-0.03,0.15,-0.12,-0.04,-0.99,-0.11,-207.4,0.0,0.0,1.11,0.0,0.12,0.0,0.9968951800465282,0.1944222209522358,0.0018416502094521503,0.28,0,0,0.0
3.327629531999264,27,4946.54,-96.6,-1.7,-103.7,0.0,0.08,-0.11,-0.03,-0.99,-0.11,-207.4,0.1,-1.0,1.11,0.0,0.04,0.0,0.9965440281292142,0.13601470508735444,0.0014606883262953119,0.28,0,0,0.0
3.3357771749997482,28,4946.55,-96.6,-1.7,-103.7,0.02,0.03,-0.07,-0.04,-0.99,-0.11,-207.4,-0.1,0.0,1.11,0.0,0.01,0.0,0.9968951800465282,0.07874007874011811,0.0017756034387371722,0.28,0,0,0.0
3.3475799239995467,29,4946.56,-96.6,-1.7,-103.7,0.05,0.0,-0.04,-0.04,-0.98,-0.12,-207.4,0.0,3.0,1.11,0.0,0.01,0.0,0.98812954616285,0.06403124237432849,0.006850229836042221,0.28,0,0,0.0
3.355708575999415,30,4946.57,-96.6,-1.7,-103.7,0.03,-0.05,-0.01,-0.04,-0.97,-0.12,-207.4,0.1,-1.0,1.11,0.0,0.16,0.0,0.9782126558167197,0.05916079783099616,0.01643177777852911,0.28,0,0,0.0
3.3675830319998568,31,4946.58,-96.6,-1.7,-103.8,0.0,-0.12,0.01,-0.04,-0.97,-0.12,-207.4,0.0,2.0,1.11,0.0,0.08,0.0,0.9782126558167197,0.12041594578792295,0.0161031422229585,0.28,0,0,0.0
3.3756607229997826,32,4946.59,-96.6,-1.7,-103.8,-0.05,-0.18,0.04,-0.04,-0.97,-0.12,-207.4,0.0,0.0,1.11,0.0,0.03,0.0,0.9782126558167197,0.191049731745428,0.015781079378499374,0.28,0,0,0.0
3.3878043929998967,33,4946.6,-96.6,-1.7,-103.8,-0.08,-0.2,0.07,-0.03,-0.97,-0.13,-207.4,-0.2,0.0,1.11,0.0,-0.13,0.0,0.9791322688993556,0.22649503305812252,0.014564236969946243,0.28,0,0,0.0
3.3997760299998845,34,4946.61,-96.6,-1.7,-103.8,-0.1,-0.2,0.08,-0.03,-0.98,-0.13,-207.4,0.0,0.0,1.11,0.0,-0.02,0.0,0.9890399385262457,0.23748684174075838,0.004563435996194909,0.28,0,0,0.0
3.407671826999831,35,4946.62,-96.6,-1.7,-103.8,-0.14,-0.16,0.07,-0.03,-0.98,-0.14,-207.4,-0.2,0.0,1.11,0.0,-0.11,0.0,0.9904039579888602,0.22383029285599393,0.0031354282029089076,0.28,0,0,0.0
3.419728211999427,36,4946.63,-96.7,-1.8,-103.8,-0.25,-0.14,0.05,-0.03,-0.99,-0.13,-207.4,0.0,0.0,1.11,0.0,-0.04,0.0,0.9989494481704267,0.2908607914449798,0.005301860739084563,0.28,0,0,0.0
3.4277061349994256,37,4946.64,-96.7,-1.8,-103.9,-0.39,-0.14,0.02,-0.02,-1.0,-0.13,-207.4,0.1,-2.0,1.11,0.01,-0.05,0.0,1.008612908900139,0.41484937025383084,0.014666015039420888,0.28,0,0,0.0
3.4357144319992585,38,4946.65,-96.8,-1.8,-103.9,-0.45,-0.16,0.0,-0.02,-1.03,-0.13,-207.4,-0.9,-4.0,1.11,0.01,-0.01,0.0,1.0383640979926068,0.47759815745038214,0.04352886004925083,0.28,0,0,0.0
3.4475506009994206,39,4946.66,-96.8,-1.8,-103.9,-0.41,-0.13,0.01,-0.02,-1.06,-0.13,-207.4,-0.8,-4.0,1.11,0.02,0.0,0.0,1.068129205667554,0.430232495285979,0.0718280883697141,0.28,0,0,0.0
3.4555824009994467,40,4946.67,-96.8,-1.8,-103.9,-0.36,-0.07,0.05,-0.01,-1.1,-0.11,-207.4,-1.3,-7.0,1.11,0.04,0.04,0.0,1.105531546361297,0.37013511046643494,0.10704582048218791,0.28,0,0,0.0
3.467588961999354,41,4946.68,-96.9,-1.8,-103.9,-0.25,-0.02,0.08,-0.01,-1.12,-0.09,-207.4,-1.8,-5.0,1.11,0.06,0.0,0.0,1.123654751247019,0.26324893162176366,0.12266564486055187,0.28,0,0,0.0
3.47565662299985,42,4946.69,-96.9,-1.7,-103.9,-0.15,0.02,0.11,0.0,-1.15,-0.08,-207.4,-2.8,-9.0,1.11,0.09,-0.02,0.0,1.1527792503337313,0.18708286933869708,0.14875434106831897,0.28,0,0,0.0
3.4878825870000583,43,4946.7,-96.8,-1.7,-103.9,-0.13,0.07,0.18,0.0,-1.16,-0.07,-207.5,-4.2,-14.0,1.11,0.15,-0.15,0.0,1.1621101496846156,0.23280893453645632,0.15492353561081917,0.28,0,0,0.0
3.495853589000035,44,4946.71,-96.8,-1.7,-103.9,-0.02,0.11,0.3,0.01,-1.17,-0.06,-207.5,-7.4,-29.0,1.12,0.25,0.0,0.0,1.1715801295686095,0.32015621187164245,0.16110564518491688,0.28,0,0,0.0
3.5076158459996805,45,4946.72,-96.8,-1.8,-103.9,0.24,0.15,0.4,0.01,-1.18,-0.05,-207.6,-10.8,-33.0,1.12,0.37,-0.07,0.0,1.1811011811017715,0.49000000000000005,0.16721416278371737,0.28,0,0,0.0
3.515752694999719,46,4946.73,-96.7,-1.8,-103.8,0.56,0.22,0.48,0.01,-1.16,-0.05,-207.8,-16.4,-50.0,1.12,0.51,-0.09,0.0,1.1611201488218177,0.7696752561957543,0.1442884678936882,0.28,0,0,0.0
3.527690228999745,47,4946.74,-96.6,-1.8,-103.8,0.88,0.29,0.55,0.0,-1.12,-0.04,-208.0,-21.9,-57.0,1.13,0.68,0.14,0.0,1.120714058089752,1.0774970997640783,0.10180472961839016,0.28,0,0,0.0
3.535591647999354,48,4946.75,-96.4,-1.8,-103.8,1.09,0.32,0.54,0.0,-1.07,-0.04,-208.2,-28.2,-65.0,1.14,0.87,0.04,0.0,1.0707474025184465,1.257815566766448,0.05080131256614284,0.28,0,0,0.0
3.547653232999437,49,4946.76,-96.3,-1.9,-103.7,1.22,0.35,0.5,-0.01,-1.02,-0.03,-208.6,-33.3,-39.0,1.15,0.93,0.01,0.0,1.0204900783447137,1.364148085803004,0.0005331086245619066,0.28,0,0,0.0
3.55573503100004,50,4946.77,-96.1,-1.9,-103.7,1.37,0.39,0.41,-0.02,-1.0,-0.03,-208.9,-36.2,-31.0,1.16,1.01,-0.22,0.0,1.000649788887201,1.4822617852457778,0.01892103721629179,0.28,0,0,0.0
3.5676220199993622,51,4946.78,-95.9,-1.9,-103.7,1.49,0.41,0.27,-0.04,-0.97,-0.02,-209.3,-38.1,-16.0,1.17,1.02,-0.21,0.0,0.9710303805751909,1.5687893421361583,0.047569636617735944,0.28,0,0,0.0
3.575639519000106,52,4946.79,-95.7,-2.0,-103.6,1.58,0.42,0.13,-0.06,-0.94,-0.02,-209.7,-36.4,12.0,1.18,0.94,0.0,0.0,0.9421252570651102,1.6400304875214975,0.07494526492526021,0.28,0,0,0.0
3.5877367160001086,53,4946.8,-95.5,-2.0,-103.6,1.65,0.41,-0.05,-0.06,-0.93,-0.01,-210.0,-32.0,41.0,1.19,0.74,-0.07,0.0,0.9319871243745806,1.7009115203325538,0.0833817296634739,0.28,0,0,0.0
3.595737249999729,54,4946.81,-95.3,-2.0,-103.5,1.71,0.37,-0.28,-0.07,-0.91,0.0,-210.3,-25.3,56.0,1.19,0.61,-0.37,0.0,0.9126883367283709,1.7718352067841974,0.10062690696348997,0.28,0,0,0.0
3.6076114399993457,55,4946.82,-95.1,-1.9,-103.5,1.79,0.26,-0.48,-0.07,-0.87,0.01,-210.5,-20.5,58.0,1.2,0.44,0.0,0.0,0.8728688332160796,1.8713898578329422,0.1376374822662657,0.28,0,0,0.0
3.615668898999502,56,4946.83,-94.9,-1.9,-103.5,1.83,0.11,-0.61,-0.06,-0.83,0.01,-210.7,-11.2,93.0,1.2,0.15,-0.07,0.0,0.8322259308625273,1.932123184478671,0.17471477692742154,0.28,0,0,0.0
3.6275749440001164,57,4946.84,-94.7,-1.8,-103.5,1.78,-0.03,-0.66,-0.04,-0.79,0.01,-210.7,0.0,98.0,1.2,-0.09,0.0,0.0,0.7910752176626443,1.898657420389471,0.2115481803247583,0.28,0,0,0.0
3.635604017999867,58,4946.85,-94.5,-1.8,-103.5,1.72,-0.14,-0.65,-0.03,-0.77,0.0,-210.7,3.2,32.0,1.2,-0.07,0.17,0.0,0.7705841939723393,1.8440444680104653,0.22739841993476206,0.28,0,0,0.0
3.647660982999696,59,4946.86,-94.3,-1.7,-103.5,1.68,-0.23,-0.67,-0.02,-0.75,0.0,-210.6,0.6,-12.0,1.2,0.03,-0.08,0.0,0.7502666192761077,1.8232388762858256,0.24276167473837384,0.28,0,0,0.0
3.6557728069992663,60,4946.87,-94.0,-1.6,-103.6,1.73,-0.34,-0.66,-0.01,-0.71,0.0,-210.6,0.6,11.0,1.2,-0.03,-0.15,0.0,0.7100704190430692,1.8825780196315902,0.2772987174719841,0.28,0,0,0.0
3.6676450909999403,61,4946.88,-93.8,-1.6,-103.6,1.88,-0.51,-0.61,-0.01,-0.66,0.0,-210.6,2.1,11.0,1.2,-0.09,0.16,0.0,0.66007575322837,2.041225122322376,0.3207475156209497,0.28,1,1,3.0
3.6756862510001156,62,4946.89,-93.6,-1.5,-103.7,2.09,-0.67,-0.54,0.0,-0.61,0.0,-210.6,3.9,21.0,1.2,-0.19,0.33,0.0,0.61,2.260221228110204,0.36340680347233334,0.28,0,1,3.0
3.687730311999985,63,4946.9,-93.3,-1.5,-103.8,2.32,-0.75,-0.44,0.0,-0.57,-0.02,-210.5,20.7,341.0,1.19,-2.25,2.57,3.49,0.5703507692639679,2.47759964481754,0.39499491352419813,0.28,0,1,3.0
3.695600784999442,64,4946.91,-93.1,-1.4,-103.8,2.54,-0.79,-0.32,-0.01,-0.52,-0.03,-209.5,157.4,1190.0,1.13,-7.25,3.06,3.49,0.5209606511052443,2.679197641085853,0.43549733104926336,0.28,0,1,3.0
3.7076675769994836,65,4946.92,-92.9,-1.4,-103.9,1.72,-0.65,-0.16,0.0,-0.61,-0.05,-206.7,322.4,1331.0,1.04,-10.41,3.01,3.49,0.6120457499239742,1.8456706098326428,0.3375239875859227,0.28,0,1,3.0
3.715744729999642,66,4946.93,-92.8,-1.4,-104.0,0.34,-0.47,-0.07,0.0,-0.83,-0.07,-202.6,427.4,1068.0,0.92,-12.66,3.4,3.49,0.8329465769183519,0.5842944463196617,0.11429069737971409,0.28,0,1,3.0
3.7276258920001055,67,4946.94,-92.9,-1.3,-104.0,-1.69,-0.11,-0.28,0.0,-1.27,-0.1,-197.9,491.3,655.0,0.77,-13.78,3.18,3.49,1.2739309243440164,1.7165663401103959,0.3201597770450314,0.28,0,1,3.0
3.7357569890000377,68,4946.95,-93.2,-1.3,-104.0,-3.27,0.41,-0.86,-0.04,-1.8,-0.22,-192.8,505.4,215.0,0.63,-13.5,3.27,3.49,1.8138357147217055,3.4059653550792324,0.842863276074266,0.28,0,1,3.0
3.747666171999299,69,4946.96,-93.5,-1.1,-103.9,-2.2,0.87,-1.29,-0.05,-2.12,-0.24,-187.8,478.8,-209.0,0.51,-12.08,4.07,3.49,2.1341274563624357,2.6946242780766303,1.1398919173606963,0.28,0,1,3.0
3.755787973999759,70,4946.97,-93.5,-1.0,-103.8,1.94,0.76,-0.98,-0.06,-1.95,-0.13,-183.6,407.4,-647.0,0.4,-9.42,4.13,3.49,1.9552493447128425,2.3025203582161873,0.9417935295968811,0.28,0,1,3.0
3.7676731689998633,71,4946.98,-93.1,-0.9,-103.8,5.78,0.31,-0.47,0.03,-1.49,-0.06,-180.3,288.6,-1112.0,0.34,-5.63,4.06,3.49,1.4915093026863762,5.807357402468011,0.4684924178190064,0.28,0,1,3.0
3.7756998989998465,72,4946.99,-92.5,-0.9,-103.8,6.58,0.0,0.06,0.07,-0.97,-0.13,-178.4,143.3,-1343.0,0.31,-1.75,3.97,3.49,0.981172767661231,6.58027355054484,0.04100723486201607,0.28,0,1,3.0
3.7877569189995484,73,4947.0,-91.9,-0.9,-103.8,4.92,0.0,0.72,0.0,-0.76,-0.17,-177.8,15.5,-1143.0,0.31,0.57,3.47,3.49,0.7787810988975015,4.972403845224159,0.23853092555323063,0.28,0,1,3.0
3.795841375999771,74,4947.01,-91.6,-1.0,-103.8,2.32,-0.26,0.96,-0.08,-0.76,-0.1,-178.0,-16.6,-635.0,0.31,0.41,3.52,3.49,0.7707139547199077,2.5242028444639706,0.24166610833620805,0.28,0,1,3.0
3.8076518119996763,75,4947.02,-91.5,-1.1,-103.8,0.37,-0.48,0.83,-0.05,-0.87,-0.1,-178.2,-9.8,-166.0,0.32,0.19,3.29,3.49,0.8771544903835355,1.0277159140540737,0.13252106121912854,0.28,0,1,3.0
3.815655925000101,76,4947.03,-91.5,-1.2,-103.9,-0.35,-0.44,0.67,-0.03,-1.03,-0.09,-178.2,-4.1,-20.0,0.32,0.03,3.36,3.49,1.0343597053249898,0.8746427842267951,0.02419047064787927,0.28,0,1,3.0
3.8277073409999502,77,4947.04,-91.6,-1.3,-103.9,0.08,-0.2,0.58,-0.05,-1.14,-0.1,-178.2,0.0,2.0,0.32,0.0,3.37,3.49,1.145469336123844,0.6187083319303207,0.13259409941779876,0.28,0,1,3.0
3.8357156149995717,78,4947.05,-91.5,-1.4,-103.9,1.52,0.08,0.47,-0.07,-1.15,-0.06,-178.2,0.0,2.0,0.32,0.0,3.41,3.49,1.1536897329871665,1.5930160074525304,0.13799820635549898,0.28,0,1,3.0
3.8476657169994724,79,4947.06,-91.3,-1.4,-103.9,2.75,0.08,0.47,-0.08,-0.99,-0.02,-178.2,0.0,1.0,0.32,0.0,3.62,3.49,0.9934284070832683,2.7910213184424086,0.02181785715743112,0.28,0,1,0.0
3.8557231380000303,80,4947.07,-91.0,-1.5,-103.9,3.04,0.0,0.47,-0.06,-0.86,0.01,-178.2,0.0,0.0,0.32,0.0,3.4,3.49,0.8621484790916237,3.076117683054405,0.15003582944609406,0.28,0,1,0.0
3.8676811669993185,81,4947.08,-90.7,-1.6,-103.9,2.75,-0.13,0.33,-0.04,-0.76,0.01,-178.3,-14.8,-327.0,0.32,1.46,0.48,0.0,0.7611175993235211,2.7727783899908047,0.24604537502991275,0.28,0,1,0.0
3.875662855999508,82,4947.09,-90.4,-1.6,-103.9,1.83,-0.16,0.04,-0.08,-0.74,0.01,-179.1,-112.4,-758.0,0.36,4.14,0.2,0.0,0.7443789357578571,1.8374166647769363,0.25752835782366523,0.28,0,1,0.0
3.8878403329999855,83,4947.1,-90.3,-1.6,-103.9,0.55,-0.42,-0.32,-0.15,-0.75,0.04,-180.7,-184.3,-628.0,0.41,5.58,0.04,0.0,0.7658981655546643,0.7624303246854758,0.23128894546632084,0.28,0,1,0.0
3.895653339999626,84,4947.11,-90.3,-1.6,-104.0,-0.3,-0.5,-0.56,-0.12,-0.77,0.01,-182.8,-220.1,-385.0,0.47,6.23,0.23,0.0,0.7793587107359485,0.8084553172563095,0.21347183227933586,0.28,0,1,0.0
3.9077396149996275,85,4947.12,-90.3,-1.5,-104.1,-0.8,-0.67,-0.62,-0.07,-0.83,0.03,-185.2,-234.7,-189.0,0.53,6.43,0.34,0.0,0.833486652562595,1.2137956994486347,0.15615701264363557,0.28,0,1,0.0
3.9154745789992376,86,4947.13,-90.4,-1.5,-104.1,-1.16,-0.92,-0.6,-0.02,-0.9,0.03,-187.5,-236.4,-52.0,0.6,6.37,-0.12,0.0,0.9007219326740079,1.5974980438172686,0.08714329788157826,0.28,0,1,0.0
3.927710037999532,87,4947.14,-90.5,-1.4,-104.2,-1.27,-1.04,-0.51,0.01,-0.95,-0.01,-189.8,-228.0,68.0,0.66,5.98,-0.25,0.0,0.9501052573267869,1.7188949938841522,0.03700477376422329,0.28,0,1,0.0
3.9357654589994127,88,4947.15,-90.7,-1.3,-104.3,-1.15,-0.99,-0.36,0.04,-0.99,-0.06,-191.8,-209.7,169.0,0.72,5.31,-0.02,0.0,0.992622788374315,1.559551217498162,0.0054025021376387095,0.28,0,1,0.0
3.9476841099995,89,4947.16,-90.8,-1.3,-104.4,-0.84,-0.79,-0.18,0.06,-1.01,-0.09,-193.9,-178.5,265.0,0.76,4.46,0.07,0.0,1.0157755657624374,1.1670903992407786,0.027984173935245993,0.28,0,1,0.0
3.955856147999839,90,4947.17,-90.8,-1.3,-104.5,-0.49,-0.56,-0.04,0.07,-1.02,-0.09,-195.4,-145.3,317.0,0.8,3.51,-0.07,0.0,1.026352765865616,0.7451845409024533,0.037790146557656,0.28,0,1,0.0
3.967610824000076,91,4947.18,-90.9,-1.3,-104.5,-0.14,-0.35,0.0,0.06,-1.02,-0.1,-196.6,-109.2,351.0,0.83,2.51,-0.25,0.0,1.0266450214168479,0.3769615364994153,0.037320754066710204,0.28,0,1,0.0
3.975661546000083,92,4947.19,-90.9,-1.3,-104.6,-0.05,-0.12,-0.03,0.05,-0.99,-0.1,-197.5,-71.2,371.0,0.85,1.45,-0.2,0.0,0.9962931295557548,0.13341664064126332,0.006829484961504706,0.28,0,1,0.0
3.9877875649999623,93,4947.2,-90.9,-1.3,-104.6,-0.24,0.09,-0.04,0.02,-0.98,-0.08,-197.9,-32.9,383.0,0.85,0.41,-0.08,0.0,0.9834632682515396,0.25942243542145693,0.005880368815856185,0.28,0,1,0.0
3.9997248059999038,94,4947.21,-91.0,-1.2,-104.5,-0.48,0.27,-0.09,0.0,-1.0,-0.07,-198.0,3.5,334.0,0.85,-0.4,0.02,0.0,1.0024470060806208,0.5580322571321482,0.012841301632960489,0.28,0,1,0.0
4.007708959999945,95,4947.22,-91.1,-1.2,-104.5,-0.75,0.43,-0.13,-0.01,-1.04,-0.07,-197.8,21.7,194.0,0.85,-0.7,-0.22,0.0,1.042401074443038,0.8742425292789181,0.05173946259547024,0.28,0,1,0.0
4.015781050999976,96,4947.23,-91.2,-1.2,-104.5,-0.94,0.49,-0.13,-0.02,-1.09,-0.06,-197.6,26.4,92.0,0.84,-0.74,0.1,0.0,1.0918333206126292,1.067988763985839,0.09914827458976005,0.28,0,1,0.0
4.027713202999621,97,4947.24,-91.3,-1.2,-104.4,-0.91,0.51,-0.1,-0.03,-1.14,-0.05,-197.3,28.2,30.0,0.83,-0.76,0.0,0.0,1.1414902540100813,1.047950380504726,0.14582910382746794,0.28,0,1,0.0
4.035862813999302,98,4947.25,-91.4,-1.2,-104.4,-0.76,0.46,-0.05,-0.04,-1.17,-0.03,-197.0,28.4,4.0,0.82,-0.74,0.07,0.0,1.171067888723792,0.8897752525216691,0.17189860377035504,0.28,0,1,0.0
4.047679753999546,99,4947.26,-91.5,-1.2,-104.3,-0.54,0.37,0.01,-0.04,-1.18,-0.02,-196.7,25.0,-19.0,0.82,-0.64,-0.01,0.0,1.1808471535300409,0.6546754921333163,0.1780443112050718,0.28,0,1,0.0
4.05574015000002,100,4947.27,-91.5,-1.2,-104.3,-0.14,0.2,0.06,-0.04,-1.15,0.0,-196.5,17.3,-77.0,0.81,-0.32,0.05,0.0,1.1506954418958997,0.25139610179953076,0.14493474757951197,0.28,0,1,0.0
4.067664868000065,101,4947.28,-91.5,-1.2,-104.3,0.17,0.05,0.08,-0.03,-1.07,0.0,-196.4,4.4,-113.0,0.81,0.03,0.01,0.0,1.0704204781299729,0.19442222095223582,0.06336658813731355,0.28,0,1,0.0
4.075701898999796,102,4947.29,-91.4,-1.2,-104.3,0.3,-0.04,0.17,-0.02,-0.97,-0.01,-196.5,-5.2,-75.0,0.81,0.16,0.1,0.0,0.9702576977277737,0.34713109915419565,0.03606026841958787,0.28,0,1,0.0
4.08777064700007,103,4947.3,-91.4,-1.3,-104.3,0.3,-0.02,0.28,-0.01,-0.91,-0.01,-196.5,-6.1,-22.0,0.82,0.16,0.07,0.0,0.9101098834756164,0.4108527716834828,0.09428392101831029,0.28,0,1,0.0
4.095763301999796,104,4947.31,-91.4,-1.3,-104.3,0.12,0.04,0.34,0.0,-0.87,-0.01,-196.6,-6.4,-19.0,0.82,0.2,-0.06,0.0,0.8700574693662483,0.3627671429443411,0.13164960842512474,0.28,0,1,0.0
4.1077032469993355,105,4947.32,-91.4,-1.3,-104.3,-0.17,0.16,0.31,0.0,-0.87,-0.02,-196.7,-9.0,-21.0,0.82,0.26,-0.06,0.0,0.8702298546935746,0.3880721582386451,0.12884767863584246,0.28,0,1,0.0
4.115757896999639,106,4947.33,-91.4,-1.3,-104.2,-0.51,0.29,0.21,0.0,-0.88,-0.02,-196.8,-9.9,-16.0,0.82,0.3,-0.06,0.0,0.8802272433866154,0.6231372240526158,0.11647328414394564,0.28,0,1,0.0
4.1276988889994755,107,4947.34,-91.5,-1.3,-104.2,-0.86,0.41,0.08,-0.01,-0.91,-0.02,-196.9,-14.6,-44.0,0.83,0.46,-0.09,0.0,0.910274683818022,0.9560857702110203,0.08469732683828823,0.28,0,1,0.0
4.135866554000131,108,4947.35,-91.6,-1.3,-104.2,-1.03,0.44,-0.06,-0.02,-0.94,0.0,-197.1,-19.1,-32.0,0.83,0.51,0.07,0.0,0.9402127418834526,1.121650569473399,0.053664083397400475,0.28,0,1,0.0
4.14765036999961,109,4947.36,-91.7,-1.3,-104.1,-0.97,0.4,-0.18,-0.04,-0.97,0.0,-197.3,-20.8,-35.0,0.84,0.62,-0.01,0.0,0.9708243919473799,1.0645656391223606,0.02259138466680366,0.28,0,1,0.0
4.155713702999492,110,4947.37,-91.7,-1.3,-104.1,-0.83,0.3,-0.27,-0.06,-0.97,0.01,-197.5,-24.3,-25.0,0.84,0.67,0.0,0.0,0.9719053451854249,0.9229301165310404,0.021080222800183512,0.28,0,1,0.0
4.1677033629994185,111,4947.38,-91.8,-1.3,-104.1,-0.7,0.13,-0.34,-0.08,-0.96,0.03,-197.8,-25.9,-19.0,0.85,0.71,-0.03,0.0,0.9637945839233586,0.788986691902975,0.028607164381004857,0.28,0,1,0.0
4.175696888999482,112,4947.39,-91.8,-1.3,-104.1,-0.63,-0.03,-0.35,-0.08,-0.93,0.03,-198.0,-25.1,9.0,0.86,0.64,0.0,0.0,0.9339164844888435,0.72131823767322,0.057315558539209555,0.28,0,1,0.0
4.187692950999917,113,4947.4,-91.8,-1.3,-104.1,-0.64,-0.17,-0.3,-0.07,-0.91,0.04,-198.3,-22.7,21.0,0.86,0.57,-0.01,0.0,0.9135644476444998,0.7269800547470336,0.07611424347588214,0.28,0,1,0.0
4.1997867649997715,114,4947.41,-91.8,-1.3,-104.1,-0.65,-0.28,-0.26,-0.06,-0.9,0.04,-198.4,-18.4,42.0,0.87,0.41,-0.34,0.0,0.902884267223657,0.7539893898457724,0.08505853541879049,0.28,0,1,0.0
4.207741948999683,115,4947.42,-91.9,-1.3,-104.1,-0.67,-0.38,-0.25,-0.05,-0.9,0.05,-198.6,-13.0,37.0,0.87,0.32,-0.21,0.0,0.9027735042633894,0.809814793641114,0.08346591241147694,0.28,0,1,0.0
4.215733152999746,116,4947.43,-91.9,-1.3,-104.2,-0.68,-0.48,-0.28,-0.04,-0.91,0.05,-198.7,-9.0,54.0,0.87,0.13,-0.01,0.0,0.9122499657440388,0.878179936004006,0.07250966191221098,0.28,0,1,0.0
4.227688117000071,117,4947.44,-91.9,-1.3,-104.2,-0.68,-0.61,-0.31,-0.03,-0.93,0.04,-198.7,-0.9,68.0,0.87,-0.04,0.16,0.0,0.9313431161500042,0.9646761114488116,0.05234818127612073,0.28,0,1,0.0
4.235755338999297,118,4947.45,-91.9,-1.3,-104.3,-0.64,-0.69,-0.32,-0.02,-0.94,0.01,-198.7,0.1,14.0,0.87,0.0,0.19,0.0,0.9402659198333203,0.9940321926376429,0.04255687004094855,0.28,0,1,0.0
4.247621830999378,119,4947.46,-92.0,-1.2,-104.4,-0.5,-0.72,-0.28,0.0,-0.95,0.0,-198.7,0.3,7.0,0.87,0.0,0.25,0.0,0.95,0.9202173656261873,0.03216633407678349,0.28,0,1,0.0
4.25584062300004,120,4947.47,-92.0,-1.2,-104.5,-0.3,-0.76,-0.18,0.0,-0.94,-0.01,-198.7,-0.1,2.0,0.87,-0.01,0.16,0.0,0.9400531899844816,0.8366600265340756,0.041270881210455745,0.28,0,1,0.0
4.2677052809995075,121,4947.48,-92.0,-1.2,-104.5,-0.13,-0.78,-0.07,0.02,-0.94,-0.03,-198.7,0.2,-1.0,0.87,0.0,-0.16,0.0,0.9406912352095134,0.7938513714795736,0.03982017926571557,0.28,0,1,0.0
4.275691175999782,122,4947.49,-92.0,-1.2,-104.6,-0.13,-0.73,0.0,0.01,-0.97,-0.05,-198.7,0.0,0.0,0.87,0.0,-0.22,0.0,0.9713392816107047,0.741484996476665,0.008988690207233696,0.28,0,1,0.0
4.2878379679996215,123,4947.5,-92.0,-1.1,-104.7,-0.32,-0.63,0.01,0.0,-1.02,-0.07,-198.7,0.3,5.0,0.87,-0.03,0.16,0.0,1.022399139279763,0.7066823897621901,0.04122974411258795,0.28,0,1,0.0
4.295630296000127,124,4947.51,-92.1,-1.1,-104.7,-0.54,-0.56,-0.02,-0.03,-1.08,-0.07,-198.7,0.9,3.0,0.87,-0.02,-0.04,0.0,1.0826818553942796,0.7782030583337488,0.0994822110225626,0.28,0,1,0.0
4.307729946999643,125,4947.52,-92.2,-1.2,-104.8,-0.65,-0.55,-0.09,-0.06,-1.13,-0.07,-198.7,0.9,0.0,0.87,-0.02,0.08,0.0,1.1337548235840056,0.8562125904236635,0.14754407562804284,0.28,0,1,0.0
4.315749608999795,126,4947.53,-92.3,-1.2,-104.9,-0.58,-0.61,-0.13,-0.07,-1.16,-0.08,-198.7,0.4,-4.0,0.87,0.0,0.06,0.0,1.1648605066702191,0.8517041739947033,0.17507676353997126,0.28,0,1,0.0
4.32774205899932,127,4947.54,-92.3,-1.2,-104.9,-0.46,-0.69,-0.17,-0.07,-1.15,-0.09,-198.7,0.0,-2.0,0.87,0.0,0.1,0.0,1.1556383517346591,0.8465222974027323,0.16253751643232306,0.28,0,1,0.0
4.33576245399945,128,4947.55,-92.4,-1.2,-105.0,-0.37,-0.77,-0.18,-0.06,-1.12,-0.11,-198.7,0.7,4.0,0.87,-0.02,0.05,0.0,1.1269871339105875,0.8730406634286859,0.13120857263608643,0.28,0,1,0.0
4.347653939999873,129,4947.56,-92.5,-1.2,-105.1,-0.31,-0.8,-0.18,-0.04,-1.07,-0.12,-198.7,0.0,-4.0,0.87,0.0,0.1,0.0,1.0774506949276148,0.8766413177577247,0.08003869098005145,0.28,0,1,0.0
4.359699908000039,130,4947.57,-92.5,-1.2,-105.2,-0.27,-0.82,-0.17,-0.02,-1.03,-0.12,-198.7,0.1,-3.0,0.87,0.0,0.1,0.0,1.0371595827065379,0.8798863562983573,0.038952627183795,0.28,0,1,0.0
4.367770977999498,131,4947.58,-92.6,-1.2,-105.2,-0.21,-0.81,-0.13,0.0,-1.0,-0.12,-198.7,0.1,0.0,0.87,0.0,0.24,0.0,1.0071742649611337,0.8468175718535842,0.008787963249623054,0.28,0,1,0.0
4.375598693999564,132,4947.59,-92.7,-1.1,-105.3,-0.17,-0.78,-0.08,0.01,-0.98,-0.13,-198.7,-0.5,-5.0,0.87,0.01,-0.23,0.0,0.9886354231970448,0.8023091673413685,0.009555860944176597,0.28,0,1,0.0
4.38776598000004,133,4947.6,-92.7,-1.1,-105.4,-0.13,-0.7,-0.02,0.01,-0.96,-0.13,-198.7,0.0,7.0,0.87,-0.02,-0.21,0.0,0.9688137075826291,0.7122499561249547,0.02879002502742045,0.28,0,1,0.0
4.395792076999896,134,4947.61,-92.8,-1.1,-105.5,-0.17,-0.62,0.0,0.01,-0.95,-0.13,-198.7,0.0,1.0,0.87,0.0,0.09,0.0,0.9589056262218926,0.6428841264178172,0.03792414426039381,0.28,0,1,0.0
4.407721360999858,135,4947.62,-92.9,-1.1,-105.5,-0.26,-0.52,0.0,0.01,-0.94,-0.12,-198.7,-0.2,-2.0,0.87,0.0,0.13,0.0,0.9476813810558905,0.5813776741499453,0.04816542163786797,0.28,0,1,0.0
4.415688172000046,136,4947.63,-92.9,-1.1,-105.6,-0.41,-0.47,-0.03,0.0,-0.94,-0.1,-198.7,-0.6,0.0,0.87,0.01,0.0,0.0,0.9453041838477179,0.6244197306299666,0.04953176646911983,0.28,0,1,0.0
4.427716467999744,137,4947.64,-93.0,-1.1,-105.6,-0.52,-0.46,-0.09,-0.01,-0.94,-0.09,-198.7,0.0,2.0,0.87,0.0,0.06,0.0,0.9443516294262428,0.7000714249274855,0.049474634472783,0.28,0,1,0.0
4.435737255999811,138,4947.65,-93.1,-1.1,-105.7,-0.66,-0.5,-0.13,-0.03,-0.94,-0.07,-198.7,-0.2,-3.0,0.87,0.02,-0.23,0.0,0.9430800602281866,0.8381527307120105,0.04973127959742252,0.28,0,1,0.0
4.447721870999885,139,4947.66,-93.2,-1.1,-105.7,-0.77,-0.55,-0.15,-0.03,-0.98,-0.05,-198.7,-0.7,0.0,0.87,0.0,0.09,0.0,0.9817331613019904,0.958070978581441,0.01085661495314627,0.28,0,1,0.0
4.4559141989993805,140,4947.67,-93.3,-1.0,-105.8,-0.93,-0.57,-0.19,-0.03,-1.03,-0.03,-198.7,-0.2,-1.0,0.87,0.01,0.19,0.0,1.0308734160894828,1.1072036849649662,0.037517967037659194,0.28,0,1,0.0
4.467733727999985,141,4947.68,-93.3,-1.0,-105.8,-1.19,-0.58,-0.2,-0.04,-1.09,-0.02,-198.7,-0.7,-1.0,0.87,0.02,-0.02,0.0,1.0909170454255448,1.3388427838995884,0.09561036444624682,0.28,0,1,0.0
4.475817159000144,142,4947.69,-93.4,-1.0,-105.9,-1.28,-0.65,-0.21,-0.03,-1.15,0.0,-198.7,-1.2,-6.0,0.87,0.04,-0.26,0.0,1.1503912377969503,1.4508618128546908,0.15198286568129926,0.28,0,1,0.0
4.487789127999349,143,4947.7,-93.5,-1.0,-106.0,-1.04,-0.73,-0.23,-0.02,-1.19,0.03,-198.7,-2.5,-12.0,0.88,0.09,0.03,0.0,1.1905460931858118,1.2912784362793333,0.18829496664875767,0.28,0,1,0.0
4.495873640999889,144,4947.71,-93.5,-1.0,-106.0,-0.75,-0.86,-0.23,-0.03,-1.19,0.05,-198.8,-3.9,-17.0,0.88,0.14,0.01,0.0,1.1914277149705725,1.1640446726822815,0.18539305666484807,0.28,0,1,0.0
4.507643465999536,145,4947.72,-93.5,-1.0,-106.1,-0.52,-1.04,-0.23,-0.05,-1.16,0.05,-198.9,-9.1,-43.0,0.88,0.3,0.01,0.0,1.16215317406958,1.1852847759083047,0.15299614544857842,0.28,0,1,0.0
4.515792378999322,146,4947.73,-93.5,-1.0,-106.3,-0.35,-1.22,-0.18,-0.05,-1.1,0.05,-199.0,-13.6,-48.0,0.88,0.45,0.01,0.0,1.1022703842524302,1.28191263352851,0.09125108851880004,0.28,0,1,0.0
4.52762102899942,147,4947.74,-93.5,-1.0,-106.4,-0.2,-1.38,-0.07,-0.05,-1.04,0.03,-199.2,-23.5,-95.0,0.89,0.79,0.0,0.0,1.041633332799983,1.3961733416735902,0.030001756325025664,0.28,0,1,0.0
4.53984028099967,148,4947.75,-93.4,-1.0,-106.5,-0.06,-1.49,0.1,-0.05,-0.97,0.01,-199.5,-34.5,-98.0,0.9,1.06,-0.07,0.0,0.9713392816107047,1.494556790490077,0.03948644896696751,0.28,0,1,0.0
4.547939260000021,149,4947.76,-93.4,-1.1,-106.7,-0.01,-1.54,0.29,-0.03,-0.93,0.0,-199.9,-46.8,-126.0,0.91,1.48,0.16,0.0,0.9304837451562494,1.5670992310635596,0.07873514571299423,0.28,0,1,0.0
4.555995335999796,150,4947.77,-93.4,-1.1,-106.8,-0.02,-1.49,0.42,-0.01,-0.91,-0.02,-200.5,-60.8,-126.0,0.93,1.78,-0.06,0.0,0.910274683818022,1.5481924944915604,0.09696532291019722,0.28,0,1,0.0
4.56767324700013,151,4947.78,-93.4,-1.2,-107.0,-0.16,-1.41,0.46,0.0,-0.91,-0.03,-201.1,-68.8,-84.0,0.95,1.94,0.0,0.0,0.910494371207203,1.4917439458566606,0.094810722810596,0.28,0,1,0.0
4.575827132000086,152,4947.79,-93.4,-1.2,-107.1,-0.25,-1.28,0.43,0.0,-0.92,-0.03,-201.9,-73.2,-47.0,0.97,2.01,0.11,0.0,0.9204890004774636,1.373244333685743,0.08311977166952855,0.28,0,1,0.0
4.5877070199994705,153,4947.8,-93.4,-1.3,-107.2,-0.19,-1.15,0.35,0.0,-0.92,-0.04,-202.6,-73.3,-9.0,0.99,1.98,0.08,0.0,0.9208691546577071,1.217004519301387,0.08108482513949944,0.28,0,1,0.0
4.5958351479994235,154,4947.81,-93.4,-1.3,-107.3,-0.06,-1.05,0.25,0.0,-0.89,-0.04,-203.3,-70.3,29.0,1.01,1.83,0.06,0.0,0.8908984229416954,1.0810180387024075,0.10883444571840095,0.28,0,1,0.0
4.607730043999254,155,4947.82,-93.4,-1.3,-107.4,0.15,-1.01,0.18,0.0,-0.84,-0.04,-204.0,-64.0,50.0,1.03,1.67,0.16,0.0,0.8409518416651455,1.036822067666386,0.15560540645505183,0.28,0,1,0.0
4.615760242999386,156,4947.83,-93.4,-1.3,-107.5,0.32,-0.95,0.14,0.02,-0.78,-0.05,-204.6,-58.3,61.0,1.04,1.48,0.0,0.0,0.7818567643756751,1.0121758740456126,0.21040647406963175,0.28,0,1,0.0
4.6276296369997,157,4947.84,-93.3,-1.3,-107.6,0.39,-0.84,0.14,0.03,-0.72,-0.06,-205.1,-50.0,71.0,1.05,1.27,-0.1,0.0,0.723118247591637,0.9366429415737888,0.2637620910365964,0.28,0,1,0.0
4.6358828249994986,158,4947.85,-93.3,-1.2,-107.7,0.43,-0.7,0.18,0.04,-0.66,-0.07,-205.6,-40.7,94.0,1.06,0.97,-0.16,0.0,0.6649060083951717,0.8410112960002379,0.31553484362840056,0.28,1,2,3.0
4.647707665999405,159,4947.86,-93.3,-1.3,-107.8,0.64,-0.52,0.24,0.05,-0.61,-0.06,-205.9,-29.3,125.0,1.07,0.58,-0.15,0.0,0.6149796744608719,0.8588364221433555,0.3581519540114464,0.28,0,2,3.0
4.655778602999817,160,4947.87,-93.2,-1.3,-107.8,0.83,-0.26,0.24,0.05,-0.58,-0.06,-205.9,18.2,721.0,1.06,-2.37,2.87,3.49,0.5852349955359812,0.9022749026765623,0.3801387002776103,0.28,0,2,3.0
4.667702746999566,161,4947.88,-93.1,-1.3,-107.8,1.04,0.01,0.18,0.05,-0.57,-0.04,-204.7,170.5,1205.0,1.01,-6.3,3.2,3.49,0.5735852159879994,1.0555093557141026,0.3839527102290803,0.28,0,2,3.0
4.675765309999406,162,4947.89,-93.0,-1.3,-107.8,0.43,0.39,0.0,0.05,-0.64,-0.04,-202.2,288.6,1093.0,0.93,-9.04,3.04,3.49,0.6431951492354401,0.5805170109479997,0.3080559214420068,0.28,0,2,3.0
4.687756481999713,163,4947.9,-93.0,-1.2,-107.7,-0.97,0.6,-0.24,0.01,-0.83,0.0,-198.7,369.7,812.0,0.83,-10.71,3.02,3.49,0.8300602387778853,1.1655470818461175,0.11876701526157041,0.28,0,2,3.0
4.695823004999511,164,4947.91,-93.2,-1.2,-107.7,-3.18,0.84,-0.75,-0.02,-1.26,-0.03,-194.7,412.6,488.0,0.71,-11.54,3.39,3.49,1.2605157674539418,3.3734996665184362,0.30545474314619636,0.28,0,2,3.0
4.707723908999469,165,4947.92,-93.6,-1.0,-107.6,-4.83,1.19,-1.53,-0.11,-1.75,-0.13,-190.4,430.1,226.0,0.59,-11.72,4.01,3.49,1.7582661914511126,5.204411590180008,0.7871410638004999,0.28,0,2,3.0
4.715757500000109,166,4947.93,-94.1,-0.9,-107.4,-3.74,1.41,-1.76,-0.17,-1.97,-0.15,-186.2,411.9,-170.0,0.48,-10.57,4.04,3.49,1.9830027735734512,4.367298936413674,0.9916400930043817,0.28,0,2,3.0
4.727658210999834,167,4947.94,-94.3,-0.8,-107.3,0.27,0.81,-0.83,-0.1,-1.82,-0.02,-182.5,346.3,-604.0,0.39,-8.23,3.74,3.49,1.8228549037155974,1.1907560623402258,0.8148623786835973,0.28,0,2,3.0
4.735849023999435,168,4947.95,-93.9,-0.8,-107.3,4.67,0.2,-0.02,0.02,-1.49,0.0,-179.8,227.3,-1068.0,0.34,-4.57,4.09,3.49,1.4901342221424216,4.6743234804621725,0.4724988631682132,0.28,0,2,3.0
4.747668616999363,169,4947.96,-93.4,-0.7,-107.3,5.91,-0.02,0.28,0.08,-0.98,-0.1,-178.5,90.0,-1245.0,0.32,-0.9,3.93,3.49,0.9883319280484669,5.91666291079693,0.028717362307226657,0.28,0,2,3.0
4.755812944999889,170,4947.97,-92.9,-0.8,-107.3,4.01,-0.08,0.81,0.02,-0.69,-0.13,-178.3,-6.3,-795.0,0.32,0.46,3.5,3.49,0.7024243731534378,4.091772232175197,0.3083324188582107,0.28,0,2,3.0
4.767739532999258,171,4947.98,-92.7,-0.9,-107.3,1.05,-0.45,1.1,-0.02,-0.73,-0.09,-178.5,-14.2,-256.0,0.33,0.33,3.46,3.49,0.735798885565886,1.5858751527153707,0.26945874831684724,0.28,0,2,3.0
4.775795739999921,172,4947.99,-92.7,-1.0,-107.4,-1.02,-0.52,1.01,0.0,-0.92,-0.11,-178.6,-10.9,-80.0,0.33,0.3,3.67,3.49,0.9265527507918802,1.5267285285865329,0.07713078542903606,0.28,0,2,3.0
4.787655037999684,173,4948.0,-92.9,-1.1,-107.4,-1.64,-0.5,0.7,-0.01,-1.08,-0.13,-178.7,-12.7,-36.0,0.33,0.33,3.47,3.49,1.087841900277793,1.8519179247472064,0.08247519677573933,0.28,0,2,3.0
4.795914254999843,174,4948.01,-93.1,-1.1,-107.4,-0.92,-0.11,0.57,-0.04,-1.15,-0.17,-178.8,-11.9,-8.0,0.34,0.3,3.43,3.49,1.1631852818876276,1.087841900277793,0.15466220681786247,0.28,0,2,3.0
4.807767702999627,175,4948.02,-93.1,-1.2,-107.4,0.95,0.37,0.49,-0.02,-1.12,-0.13,-179.0,-11.0,9.0,0.34,0.25,3.36,3.49,1.12769676775275,1.131149857445953,0.11679021882932528,0.28,0,2,3.0
4.815837444999488,176,4948.03,-93.0,-1.2,-107.4,2.05,0.51,0.41,-0.01,-0.97,-0.09,-179.0,-5.0,51.0,0.34,0.03,3.48,3.49,0.9742176348229383,2.1519061317817747,0.03595513581847665,0.28,0,2,3.0
4.827779186999578,177,4948.04,-92.8,-1.3,-107.3,2.17,0.49,0.28,0.0,-0.84,-0.07,-179.0,0.1,29.0,0.34,0.0,3.39,3.49,0.8429116205154606,2.2421864329265753,0.16391592712343528,0.28,0,2,0.0
4.835890554999423,178,4948.05,-92.6,-1.3,-107.3,1.61,0.5,0.06,-0.01,-0.78,-0.06,-179.0,0.0,10.0,0.34,0.0,3.49,3.49,0.7823681997627461,1.686920270789346,0.21997016091862687,0.28,0,2,0.0
4.847655180999936,179,4948.06,-92.6,-1.3,-107.2,0.62,0.47,-0.2,-0.04,-0.76,-0.04,-179.1,-15.1,-336.0,0.35,1.52,0.67,0.0,0.7621023553303061,0.8033056703397531,0.23543128524404544,0.28,0,2,0.0
4.855917724999927,180,4948.07,-92.6,-1.3,-107.2,-0.56,0.39,-0.52,-0.08,-0.83,-0.03,-179.9,-112.4,-736.0,0.38,4.06,0.13,0.0,0.834386001800126,0.857962703152066,0.15988468599874106,0.28,0,2,0.0
4.867796488999375,181,4948.08,-92.7,-1.2,-107.2,-1.52,0.03,-0.82,-0.16,-0.89,0.01,-181.3,-173.4,-606.0,0.43,5.37,0.12,0.0,0.9043229511629128,1.7273389939441532,0.08814878190323516,0.28,0,2,0.0
4.875662175999423,182,4948.09,-92.8,-1.1,-107.2,-1.86,-0.31,-0.86,-0.15,-0.91,-0.01,-183.5,-212.7,-370.0,0.49,6.02,0.04,0.0,0.92233399590387,2.072510554858527,0.06873498241903242,0.28,0,2,0.0
4.887890680000055,183,4948.1,-93.0,-1.1,-107.2,-1.84,-0.69,-0.73,-0.1,-0.96,-0.02,-185.8,-228.3,-197.0,0.55,6.3,0.0,0.0,0.9654014708917735,2.0963301266737546,0.025154157282506362,0.28,0,2,0.0
4.895785638999769,184,4948.11,-93.2,-1.1,-107.3,-1.91,-1.1,-0.57,-0.06,-0.99,-0.03,-188.1,-232.9,-77.0,0.61,6.32,-0.28,0.0,0.9922701245124737,2.276620302114518,0.001680206411429852,0.28,0,2,0.0
4.907764908999525,185,4948.12,-93.4,-1.0,-107.5,-2.01,-1.39,-0.44,-0.03,-1.01,-0.07,-190.4,-227.3,31.0,0.68,6.05,0.07,0.0,1.0128672173587216,2.483102897586002,0.02183175327252429,0.28,0,2,0.0
4.9157639919994836,186,4948.13,-93.6,-1.0,-107.6,-2.04,-1.5,-0.32,0.0,-1.02,-0.11,-192.6,-213.9,112.0,0.73,5.6,0.11,0.0,1.0259142264341596,2.5522539058643834,0.03418118710100304,0.28,0,2,0.0
4.927671180999823,187,4948.14,-93.8,-1.0,-107.8,-2.02,-1.47,-0.22,0.02,-1.02,-0.14,-194.6,-194.3,178.0,0.79,5.02,-0.02,0.0,1.0297572529484802,2.5079274311670186,0.03726372934301714,0.28,0,2,0.0
4.935884138999427,188,4948.15,-94.1,-0.9,-107.9,-1.87,-1.36,-0.15,0.04,-1.01,-0.14,-196.4,-171.4,223.0,0.83,4.33,-0.21,0.0,1.020441081101697,2.3171102692793886,0.027388606346309352,0.28,0,2,0.0
4.947699341999396,189,4948.16,-94.3,-0.9,-108.0,-1.6,-1.16,-0.11,0.05,-1.0,-0.15,-197.9,-143.0,275.0,0.87,3.5,-0.31,0.0,1.0124228365658292,1.9793180643848025,0.018982954574232713,0.28,0,2,0.0
4.955871778000073,190,4948.17,-94.4,-0.9,-108.1,-1.36,-0.92,-0.11,0.06,-0.99,-0.14,-199.1,-110.9,311.0,0.9,2.6,0.01,0.0,1.0016486409914407,1.6456305782282976,0.008044583819847295,0.28,0,2,0.0
4.9677799719993345,191,4948.18,-94.6,-0.9,-108.2,-1.29,-0.66,-0.12,0.06,-0.99,-0.13,-200.0,-77.7,318.0,0.92,1.72,-0.15,0.0,1.000299955013495,1.4539944979263162,0.0065619798850635735,0.28,0,2,0.0
4.975702482999623,192,4948.19,-94.7,-0.8,-108.3,-1.4,-0.45,-0.11,0.05,-1.01,-0.12,-200.6,-46.8,310.0,0.93,0.89,-0.15,0.0,1.0183319694480772,1.4746525014388983,0.02410211443325294,0.28,0,2,0.0
4.987725223999405,193,4948.2,-94.9,-0.8,-108.3,-1.48,-0.29,-0.08,0.03,-1.04,-0.12,-200.8,-16.1,305.0,0.93,0.06,-0.13,0.0,1.047329938462565,1.510264877430446,0.05203808177878588,0.28,0,2,0.0
4.995827068999461,194,4948.21,-95.1,-0.7,-108.3,-1.34,-0.15,-0.02,0.02,-1.07,-0.13,-200.8,7.8,208.0,0.93,-0.32,-0.05,0.0,1.0780538019969133,1.3485177047410242,0.08110670640687145,0.28,0,2,0.0
5.007679716999519,195,4948.22,-95.2,-0.7,-108.3,-0.91,-0.08,0.02,0.0,-1.07,-0.12,-200.7,14.3,103.0,0.93,-0.44,0.0,0.0,1.0767079455451232,0.9137286249209883,0.07816563295597978,0.28,0,2,0.0
5.0158718749999025,196,4948.23,-95.3,-0.7,-108.3,-0.38,-0.1,0.06,-0.01,-1.04,-0.11,-200.5,16.2,31.0,0.92,-0.41,-0.02,0.0,1.0458489374665922,0.39749213828703583,0.04636049237989992,0.28,0,2,0.0
5.027702466999472,197,4948.24,-95.3,-0.8,-108.4,-0.03,-0.15,0.07,-0.03,-0.99,-0.1,-200.4,13.3,-21.0,0.92,-0.28,0.0,0.0,0.9954898291795853,0.16822603841260722,0.003918643588964876,0.28,0,2,0.0
5.0358221259994025,198,4948.25,-95.3,-0.8,-108.4,0.02,-0.23,0.03,-0.04,-0.94,-0.09,-200.3,8.3,-24.0,0.92,-0.22,-0.08,0.0,0.9451454914456292,0.23280893453645632,0.05317772169646251,0.28,0,2,0.0
5.047761314999661,199,4948.26,-95.3,-0.8,-108.4,-0.17,-0.31,-0.01,-0.03,-0.91,-0.09,-200.2,7.7,-15.0,0.91,-0.19,-0.15,0.0,0.9149316914393119,0.3536947836765479,0.08172369126872425,0.28,0,2,0.0
5.055867708999358,200,4948.27,-95.3,-0.8,-108.4,-0.54,-0.36,-0.05,-0.02,-0.9,-0.09,-200.1,2.8,-50.0,0.91,0.01,0.0,0.0,0.9047098982546836,0.6509224224129939,0.09010657476428541,0.28,0,2,0.0
5.06768859299973,201,4948.28,-95.4,-0.8,-108.5,-0.87,-0.39,-0.06,-0.01,-0.91,-0.09,-200.2,-2.6,-37.0,0.91,0.09,-0.15,0.0,0.9144943958275523,0.9553009996854395,0.07871563564758832,0.28,0,2,0.0
5.075806883000041,202,4948.29,-95.5,-0.8,-108.5,-0.98,-0.36,-0.03,0.0,-0.93,-0.11,-200.2,-0.1,15.0,0.91,-0.05,0.56,0.0,0.9364827814754525,1.0444615837837214,0.055592704999694376,0.28,0,2,0.0
5.087948684999901,203,4948.3,-95.7,-0.8,-108.5,-1.0,-0.26,-0.04,0.01,-0.97,-0.13,-200.2,0.4,-6.0,0.91,0.01,0.08,0.0,0.9787236586493656,1.0340212763768453,0.01308479126926565,0.28,0,2,0.0
5.09569023899985,204,4948.31,-95.8,-0.8,-108.6,-1.07,-0.15,-0.07,0.02,-0.99,-0.14,-200.2,-1.1,-5.0,0.91,0.03,0.32,0.0,1.0000499987500624,1.082728036027515,0.008076717854802462,0.28,0,2,0.0
5.107886787999632,205,4948.32,-95.9,-0.7,-108.6,-1.11,-0.03,-0.13,0.02,-1.01,-0.14,-200.2,-1.0,0.0,0.91,0.02,-0.07,0.0,1.0198529305738155,1.117989266495882,0.02732205668498444,0.28,0,2,0.0
5.1159343239996815,206,4948.33,-96.0,-0.7,-108.6,-1.08,0.08,-0.18,0.02,-1.02,-0.14,-200.2,-1.5,-5.0,0.91,0.04,-0.07,0.0,1.0297572529484802,1.0978160137290767,0.03648185147845606,0.28,0,2,0.0
5.127771001999463,207,4948.34,-96.2,-0.7,-108.6,-1.02,0.22,-0.2,0.01,-1.02,-0.14,-200.2,-1.8,0.0,0.92,0.03,0.0,0.0,1.0296115772464878,1.0624499988234741,0.03560945226093437,0.28,0,2,0.0
5.135792107999805,208,4948.35,-96.3,-0.6,-108.5,-0.95,0.35,-0.19,0.01,-1.02,-0.14,-200.2,-0.8,4.0,0.92,0.03,-0.15,0.0,1.0296115772464878,1.0300970828033638,0.034897263215715735,0.28,0,2,0.0
5.147711839999829,209,4948.36,-96.4,-0.6,-108.5,-0.89,0.47,-0.15,0.0,-1.01,-0.13,-200.2,-1.3,-1.0,0.92,0.03,0.07,0.0,1.0183319694480772,1.0175952043912155,0.02314530230895906,0.28,0,2,0.0
5.155911750000087,210,4948.37,-96.5,-0.6,-108.4,-0.85,0.58,-0.05,0.0,-1.0,-0.13,-200.3,-1.8,-4.0,0.92,0.06,0.0,0.0,1.0084145972763385,1.0302426898551622,0.01296337153447591,0.28,0,2,0.0
5.16768916699948,211,4948.38,-96.6,-0.5,-108.4,-0.82,0.67,0.07,0.0,-1.0,-0.12,-200.3,-3.5,-20.0,0.92,0.14,0.28,0.0,1.0071742649611337,1.0612257064357233,0.01148857843488571,0.28,0,2,0.0
5.1758270020000055,212,4948.39,-96.7,-0.5,-108.3,-0.75,0.72,0.17,0.0,-1.01,-0.11,-200.4,-8.3,-42.0,0.92,0.29,0.0,0.0,1.0159724405711013,1.0534704552098269,0.01988101896395622,0.28,0,2,0.0
5.18776823799999,213,4948.4,-96.7,-0.6,-108.2,-0.67,0.74,0.21,0.0,-1.01,-0.1,-200.5,-11.8,-24.0,0.92,0.32,-0.1,0.0,1.0149384217774002,1.0200980345045274,0.018470060166850044,0.28,0,2,0.0
5.195609203999993,214,4948.41,-96.8,-0.6,-108.1,-0.56,0.76,0.22,0.0,-1.01,-0.1,-200.6,-11.7,-3.0,0.93,0.3,0.08,0.0,1.0149384217774002,0.9693296652842107,0.018100658963513094,0.28,0,2,0.0
5.207820992000052,215,4948.42,-96.8,-0.6,-108.1,-0.46,0.77,0.2,0.0,-1.0,-0.1,-200.7,-9.3,18.0,0.93,0.21,0.05,0.0,1.004987562112089,0.9189668111526118,0.007986803312237778,0.28,0,2,0.0
5.215791326999351,216,4948.43,-96.9,-0.6,-108.0,-0.39,0.79,0.18,0.0,-1.0,-0.1,-200.8,-8.1,2.0,0.93,0.25,0.05,0.0,1.004987562112089,0.8992218858546538,0.007827067245993025,0.28,0,2,0.0
5.227577918999486,217,4948.44,-96.9,-0.6,-107.9,-0.29,0.81,0.12,0.0,-1.0,-0.1,-200.9,-9.2,4.0,0.93,0.22,0.04,0.0,1.004987562112089,0.86867715521936,0.0076705259010732,0.28,0,2,0.0
5.237518300999909,218,4948.45,-96.9,-0.6,-107.8,-0.19,0.83,0.07,0.0,-0.99,-0.1,-200.9,-6.5,23.0,0.94,0.12,0.0,0.0,0.9950376877284598,0.8543418519538886,0.002233761512904886,0.28,0,2,0.0
5.247122679999848,219,4948.46,-96.9,-0.6,-107.7,-0.13,0.86,0.05,0.0,-0.98,-0.09,-201.0,-5.0,7.0,0.94,0.14,-0.14,0.0,0.9841239759298621,0.8712060605849801,0.0128845238452725,0.28,0,2,0.0
5.255699368000023,220,4948.47,-96.9,-0.6,-107.7,-0.09,0.86,0.04,-0.01,-0.98,-0.09,-201.0,-6.1,-6.0,0.94,0.19,0.0,0.0,0.9841747812253675,0.8656211642514293,0.012577044178771812,0.28,0,2,0.0
5.2679443669994725,221,4948.48,-96.9,-0.6,-107.6,-0.11,0.87,0.04,-0.01,-0.98,-0.09,-201.1,-6.7,2.0,0.94,0.16,0.1,0.0,0.9841747812253675,0.8778382538941898,0.012325503295196327,0.28,0,2,0.0
5.275810277999881,222,4948.49,-96.9,-0.6,-107.5,-0.15,0.87,0.07,-0.01,-0.97,-0.1,-201.2,-8.4,-27.0,0.94,0.28,0.0,0.0,0.9751922887307918,0.885607136375944,0.02088183587397663,0.28,0,2,0.0
5.287612411999362,223,4948.5,-96.9,-0.6,-107.4,-0.18,0.89,0.1,-0.02,-0.98,-0.1,-201.3,-13.7,-30.0,0.95,0.38,0.03,0.0,0.985291834940288,0.9135097153287425,0.010566643871190773,0.28,0,2,0.0
5.299882756999978,224,4948.51,-96.9,-0.6,-107.3,-0.18,0.87,0.12,-0.02,-0.98,-0.1,-201.4,-12.6,2.0,0.95,0.31,0.0,0.0,0.985291834940288,0.8964931678490361,0.010355310993766964,0.28,0,2,0.0
5.311797966000086,225,4948.52,-96.9,-0.6,-107.2,-0.21,0.84,0.11,-0.02,-0.98,-0.1,-201.6,-9.9,27.0,0.95,0.2,-0.31,0.0,0.985291834940288,0.8728115489611717,0.010148204773891667,0.28,0,2,0.0
5.319823230000111,226,4948.53,-96.9,-0.6,-107.1,-0.24,0.8,0.1,-0.02,-0.98,-0.11,-201.6,-6.4,14.0,0.95,0.19,0.0,0.0,0.9863569333664157,0.8411896337925236,0.00890144422080874,0.28,0,2,0.0
5.327822474999266,227,4948.54,-97.0,-0.6,-107.1,-0.26,0.77,0.07,-0.03,-0.99,-0.11,-201.7,-8.6,-3.0,0.96,0.22,-0.21,0.0,0.9965440281292142,0.8157205403813245,0.0012599375311499461,0.28,0,2,0.0
5.335854747999292,228,4948.55,-97.0,-0.6,-107.0,-0.26,0.75,0.04,-0.03,-0.99,-0.11,-201.8,-7.5,10.0,0.96,0.17,0.12,0.0,0.9965440281292142,0.7947955712005447,0.0012347387805269339,0.28,0,2,0.0
5.348033190999558,229,4948.56,-97.0,-0.6,-106.9,-0.23,0.7,0.03,-0.03,-1.0,-0.11,-201.9,-6.2,11.0,0.96,0.15,-0.02,0.0,1.0064790112068904,0.7374279625834648,0.010946327421039181,0.28,0,2,0.0
5.355811202000041,230,4948.57,-97.0,-0.6,-106.8,-0.21,0.65,0.05,-0.04,-1.0,-0.11,-201.9,-6.0,5.0,0.96,0.15,0.16,0.0,1.0068266980965492,0.6849087530467106,0.011068134024484033,0.28,0,2,0.0
5.367821912999716,231,4948.58,-97.0,-0.7,-106.8,-0.15,0.56,0.06,-0.04,-1.01,-0.1,-202.0,-3.7,22.0,0.96,0.05,-0.07,0.0,1.0157263410978372,0.5828378848359123,0.019568421485256615,0.28,0,2,0.0
5.3757525249993705,232,4948.59,-97.0,-0.7,-106.7,-0.09,0.46,0.04,-0.04,-1.01,-0.1,-202.0,-0.2,25.0,0.96,-0.01,0.06,0.0,1.0157263410978372,0.470425339453563,0.019177053055551507,0.28,0,2,0.0
5.388128701999449,233,4948.6,-97.0,-0.7,-106.7,-0.06,0.37,0.03,-0.04,-1.01,-0.1,-202.0,-0.2,7.0,0.96,0.0,-0.08,0.0,1.0157263410978372,0.3760319135392633,0.01879351199444046,0.28,0,2,0.0
5.395793572000002,234,4948.61,-97.0,-0.7,-106.6,0.0,0.28,0.0,-0.05,-1.01,-0.1,-202.0,0.0,1.0,0.96,0.0,0.08,0.0,1.0161692772368194,0.28,0.018851719170754122,0.28,0,2,0.0
5.407729857999584,235,4948.62,-97.0,-0.7,-106.6,0.05,0.17,-0.03,-0.05,-1.01,-0.09,-202.0,0.0,0.0,0.96,0.0,-0.01,0.0,1.0152339631828715,0.17972200755611428,0.017558077014470097,0.28,0,2,0.0
5.41571931999988,236,4948.63,-97.0,-0.7,-106.6,0.09,0.07,-0.07,-0.06,-1.0,-0.09,-202.0,0.0,1.0,0.96,0.0,-0.07,0.0,1.005832988124768,0.13379088160259653,0.00799395991723928,0.28,0,2,0.0
5.427785464999943,237,4948.64,-97.0,-0.8,-106.6,0.12,-0.01,-0.1,-0.05,-0.99,-0.09,-202.0,0.0,0.0,0.96,0.0,0.0,0.0,0.995339138183564,0.15652475842498528,0.0024498922234854614,0.28,0,2,0.0
5.435789839999416,238,4948.65,-96.9,-0.8,-106.6,0.13,-0.12,-0.12,-0.04,-0.99,-0.09,-202.0,0.0,0.0,0.96,0.0,0.0,0.0,0.9948869282486327,0.2137755832643195,0.0028440601152485145,0.28,0,2,0.0
5.447705900000074,239,4948.66,-96.9,-0.8,-106.6,0.14,-0.19,-0.13,-0.03,-0.99,-0.1,-202.0,0.0,1.0,0.96,0.0,0.0,0.0,0.9954898291795853,0.2694438717061496,0.0021963360006099775,0.28,0,2,0.0
5.455762533999405,240,4948.67,-96.9,-0.8,-106.7,0.15,-0.24,-0.13,-0.02,-0.98,-0.1,-202.0,0.0,0.0,0.96,0.0,-0.01,0.0,0.985291834940288,0.31144823004794875,0.012146443635109083,0.28,0,2,0.0
5.4677873430000545,241,4948.68,-96.9,-0.8,-106.7,0.17,-0.26,-0.13,-0.01,-0.99,-0.11,-202.0,0.0,1.0,0.96,0.0,0.01,0.0,0.9961425600786264,0.3367491648096547,0.0012698041268353055,0.28,0,2,0.0
5.47571938999954,242,4948.69,-96.8,-0.8,-106.7,0.17,-0.28,-0.13,-0.01,-0.99,-0.11,-202.0,0.0,1.0,0.96,0.0,0.01,0.0,0.9961425600786264,0.3524202037341219,0.001244408044298595,0.28,0,2,0.0
5.48783025099965,243,4948.7,-96.8,-0.7,-106.8,0.17,-0.29,-0.12,0.0,-0.99,-0.11,-202.0,0.0,-2.0,0.96,0.01,-0.07,0.0,0.9960923651951158,0.35693136595149494,0.0012687108692530646,0.28,0,2,0.0
5.495655380999779,244,4948.71,-96.8,-0.7,-106.8,0.18,-0.3,-0.11,0.0,-0.99,-0.12,-202.0,0.0,-1.0,0.96,0.0,0.0,0.0,0.9972462083156797,0.366742416417845,0.00011257039371537214,0.28,0,2,0.0
5.507787810999616,245,4948.72,-96.8,-0.7,-106.8,0.24,-0.3,-0.11,0.0,-0.99,-0.12,-202.0,-0.1,-1.0,0.96,0.0,0.01,0.0,0.9972462083156797,0.3996248240537617,0.00011031898584101807,0.28,0,2,0.0
5.515672083999561,246,4948.73,-96.8,-0.7,-106.8,0.29,-0.29,-0.11,-0.01,-0.99,-0.12,-202.0,0.0,-1.0,0.96,0.0,-0.07,0.0,0.9972963451251589,0.4246174749112429,5.89785328346526e-05,0.28,0,2,0.0
5.527717315999325,247,4948.74,-96.7,-0.7,-106.9,0.3,-0.3,-0.12,-0.01,-0.99,-0.11,-202.0,0.2,0.0,0.96,0.0,0.08,0.0,0.9961425600786264,0.440908153700972,0.0011885083077797232,0.28,0,2,0.0
5.535776451999482,248,4948.75,-96.7,-0.7,-106.9,0.28,-0.29,-0.13,-0.01,-0.99,-0.11,-202.0,0.1,0.0,0.96,0.0,0.0,0.0,0.9961425600786264,0.4235563716909474,0.0011647381416240998,0.28,0,2,0.0
5.5477781429999595,249,4948.76,-96.7,-0.7,-106.9,0.24,-0.27,-0.13,-0.01,-0.99,-0.12,-202.0,0.0,-1.0,0.96,0.0,0.0,0.0,0.9972963451251589,0.38392707640904933,1.0734033189852e-05,0.28,0,2,0.0
5.555707808000079,250,4948.77,-96.6,-0.7,-107.0,0.24,-0.26,-0.14,-0.01,-0.99,-0.12,-202.0,0.1,3.0,0.96,-0.01,0.07,0.0,0.9972963451251589,0.380525951808809,1.0519352526050518e-05,0.28,0,2,0.0
5.56767823500013,251,4948.78,-96.6,-0.7,-107.0,0.24,-0.24,-0.14,-0.01,-0.99,-0.12,-202.0,-0.2,1.0,0.96,0.0,0.07,0.0,0.9972963451251589,0.3671511950137164,1.030896547549176e-05,0.28,0,2,0.0
5.575779320000038,252,4948.79,-96.6,-0.7,-107.0,0.27,-0.22,-0.16,0.0,-0.99,-0.12,-202.0,0.2,-3.0,0.96,0.01,0.0,0.0,0.9972462083156797,0.383275357934736,5.923685945563584e-05,0.28,0,2,0.0
5.587803976000032,253,4948.8,-96.6,-0.6,-107.0,0.29,-0.2,-0.17,0.0,-0.99,-0.12,-202.0,0.0,-1.0,0.96,0.0,-0.07,0.0,0.9972462083156797,0.39115214431215894,5.805212226650536e-05,0.28,0,2,0.0
5.595648836999317,254,4948.81,-96.6,-0.6,-107.1,0.29,-0.18,-0.18,0.0,-0.98,-0.12,-202.0,0.2,1.0,0.96,0.0,0.0,0.0,0.9873196037757985,0.38587562763149474,0.009784963528904678,0.28,0,2,0.0
5.60785714099984,255,4948.82,-96.5,-0.6,-107.1,0.3,-0.15,-0.17,0.0,-0.98,-0.12,-202.0,0.0,0.0,0.96,0.01,0.0,0.0,0.9873196037757985,0.3760319135392633,0.009589264258326624,0.28,0,2,0.0
5.615779478999684,256,4948.83,-96.5,-0.6,-107.1,0.3,-0.12,-0.15,0.0,-0.98,-0.12,-202.0,0.1,2.0,0.96,-0.01,0.0,0.0,0.9873196037757985,0.3562302626111375,0.009397478973160123,0.28,0,2,0.0
5.627673963999769,257,4948.84,-96.5,-0.6,-107.1,0.27,-0.1,-0.15,0.0,-0.98,-0.12,-202.0,0.1,0.0,0.96,0.0,0.08,0.0,0.9873196037757985,0.3246536616149585,0.009209529393696902,0.28,0,2,0.0
5.635835002000022,258,4948.85,-96.5,-0.5,-107.1,0.25,-0.07,-0.15,0.0,-0.99,-0.12,-202.0,0.0,0.0,0.96,0.0,0.01,0.0,0.9972462083156797,0.299833287011299,0.0007027336432605669,0.28,0,2,0.0
5.647771133999413,259,4948.86,-96.5,-0.5,-107.1,0.26,-0.07,-0.15,0.0,-0.99,-0.12,-202.0,0.1,-1.0,0.96,0.0,-0.06,0.0,0.9972462083156797,0.3082207001484488,0.0006886789703953733,0.28,0,2,0.0
5.655756959999962,260,4948.87,-96.4,-0.5,-107.1,0.28,-0.05,-0.15,0.0,-0.99,-0.12,-202.0,0.4,4.0,0.96,-0.03,0.01,0.0,0.9972462083156797,0.32155870381627055,0.000674905390987468,0.28,0,2,0.0
5.667769579999913,261,4948.88,-96.4,-0.5,-107.1,0.3,-0.06,-0.15,0.0,-0.99,-0.12,-201.9,0.3,-1.0,0.96,0.0,-0.06,0.0,0.9972462083156797,0.3407345007480164,0.0006614072831677698,0.28,0,2,0.0
5.6756826439996075,262,4948.89,-96.4,-0.5,-107.2,0.3,-0.06,-0.16,0.0,-0.99,-0.12,-201.9,0.0,-1.0,0.96,0.0,-0.06,0.0,0.9972462083156797,0.34525353003264136,0.0006481791375043677,0.28,0,2,0.0
5.687711649999983,263,4948.9,-96.4,-0.5,-107.2,0.3,-0.05,-0.16,0.0,-0.99,-0.12,-201.9,0.3,-1.0,0.96,0.0,-0.06,0.0,0.9972462083156797,0.34365680554879163,0.0006352155547543203,0.28,0,2,0.0
5.695622416999868,264,4948.91,-96.3,-0.4,-107.2,0.3,-0.05,-0.18,0.0,-0.99,-0.11,-201.9,0.2,0.0,0.96,0.0,-0.14,0.0,0.9960923651951158,0.35341194094144585,0.000508255014493364,0.28,0,2,0.0
5.7078507549995265,265,4948.92,-96.3,-0.4,-107.2,0.32,-0.08,-0.21,-0.01,-0.98,-0.11,-201.9,0.0,1.0,0.96,0.0,0.01,0.0,0.9862048468751307,0.39102429592034305,0.010187857867788974,0.28,0,2,0.0
5.715578416999961,266,4948.93,-96.3,-0.4,-107.2,0.31,-0.12,-0.21,-0.01,-0.98,-0.11,-201.9,0.0,-2.0,0.96,0.0,0.01,0.0,0.9862048468751307,0.39319206502674997,0.009984100710433208,0.28,0,2,0.0
5.727858672999901,267,4948.94,-96.2,-0.4,-107.2,0.3,-0.15,-0.18,0.0,-0.97,-0.11,-201.9,0.4,5.0,0.96,-0.01,0.01,0.0,0.9762171889492625,0.3806573262134856,0.019572323463575403,0.28,0,2,0.0
5.735672772999351,268,4948.95,-96.2,-0.4,-107.2,0.27,-0.21,-0.21,-0.01,-0.98,-0.11,-201.9,0.0,-1.0,0.96,0.0,-0.06,0.0,0.9862048468751307,0.40137264480778956,0.009392972226953011,0.28,0,2,0.0
5.7477018780000435,269,4948.96,-96.2,-0.3,-107.3,0.26,-0.24,-0.21,-0.01,-0.97,-0.11,-201.9,0.0,1.0,0.96,0.0,0.01,0.0,0.9762684057163787,0.4114608122288197,0.018942825117990836,0.28,0,2,0.0
5.759756035999999,270,4948.97,-96.2,-0.3,-107.3,0.2,-0.3,-0.2,-0.01,-0.98,-0.11,-201.9,0.2,0.0,0.96,0.0,0.01,0.0,0.9862048468751307,0.41231056256176607,0.008826256280054179,0.28,0,2,0.0
5.767712331999974,271,4948.98,-96.2,-0.3,-107.3,0.14,-0.32,-0.23,-0.01,-0.99,-0.11,-201.9,0.0,0.0,0.96,0.0,0.09,0.0,0.9961425600786264,0.41821047332652966,0.0010892277849727794,0.28,0,2,0.0
5.775675713000055,272,4948.99,-96.2,-0.3,-107.4,0.14,-0.37,-0.24,-0.01,-0.99,-0.11,-201.9,0.0,-1.0,0.96,0.0,0.09,0.0,0.9961425600786264,0.46270941205037097,0.0010674432292733238,0.28,0,2,0.0
5.78764570399926,273,4949.0,-96.1,-0.3,-107.4,0.17,-0.41,-0.25,-0.01,-0.99,-0.11,-201.9,0.0,0.0,0.96,0.0,0.0,0.0,0.9961425600786264,0.5094114250780011,0.001046094364687833,0.28,0,2,0.0
5.795780116999595,274,4949.01,-96.1,-0.3,-107.4,0.15,-0.43,-0.26,-0.01,-0.99,-0.11,-201.9,0.1,0.0,0.96,0.0,-0.06,0.0,0.9961425600786264,0.5244044240850757,0.0010251724773940873,0.28,0,2,0.0
5.807705418999831,275,4949.02,-96.1,-0.3,-107.5,0.15,-0.45,-0.27,-0.01,-0.99,-0.11,-201.9,0.2,0.0,0.96,0.0,0.09,0.0,0.9961425600786264,0.5458021619598076,0.001004669027846239,0.28,0,2,0.0
5.815717577999749,276,4949.03,-96.1,-0.2,-107.5,0.14,-0.49,-0.3,-0.01,-0.99,-0.11,-201.9,-0.1,-3.0,0.96,0.0,-0.06,0.0,0.9961425600786264,0.5913543776789008,0.0009845756472892653,0.28,0,2,0.0
5.827794850999453,277,4949.04,-96.1,-0.2,-107.6,0.13,-0.51,-0.34,-0.01,-1.0,-0.11,-201.9,0.1,2.0,0.96,0.0,0.01,0.0,1.006081507632458,0.6265780079128217,0.01070505273709843,0.28,0,2,0.0
5.835622308999518,278,4949.05,-96.1,-0.2,-107.7,0.12,-0.52,-0.37,-0.01,-1.0,-0.1,-201.9,-0.2,-1.0,0.96,0.0,0.09,0.0,1.0050373127401788,0.6493843238021688,0.00946764068792283,0.28,0,2,0.0
5.847965103999741,279,4949.06,-96.1,-0.2,-107.7,0.14,-0.56,-0.4,0.0,-1.0,-0.11,-201.9,0.2,4.0,0.96,-0.01,0.01,0.0,1.0060318086422517,0.7022819946431775,0.010252893858195833,0.28,0,2,0.0
5.855790603999594,280,4949.07,-96.1,-0.1,-107.8,0.19,-0.63,-0.42,0.0,-1.0,-0.11,-201.9,-0.3,-1.0,0.96,0.0,0.09,0.0,1.0060318086422517,0.7806407624509497,0.010047835981031872,0.28,0,2,0.0
5.867710219999935,281,4949.08,-96.0,-0.1,-107.8,0.23,-0.67,-0.43,-0.01,-1.0,-0.1,-201.9,0.0,1.0,0.96,0.0,0.01,0.0,1.0050373127401788,0.828673639015988,0.008872273277379827,0.28,0,2,0.0
5.875686504999976,282,4949.09,-96.0,-0.1,-107.9,0.24,-0.7,-0.45,-0.01,-1.0,-0.1,-201.9,0.1,-2.0,0.96,0.0,0.09,0.0,1.0050373127401788,0.866083136886985,0.008694827811832284,0.28,0,2,0.0
5.8877103519998855,283,4949.1,-96.0,0.0,-108.0,0.28,-0.73,-0.45,0.0,-1.0,-0.1,-201.9,-0.2,0.0,0.96,0.0,-0.07,0.0,1.004987562112089,0.9021086409075129,0.008472175640067525,0.28,0,2,0.0
5.895669749999797,284,4949.11,-96.0,0.0,-108.1,0.3,-0.77,-0.45,0.0,-1.01,-0.1,-201.9,0.1,2.0,0.96,0.0,-0.07,0.0,1.0149384217774002,0.9409569596958194,0.01805457459927129,0.28,0,2,0.0
5.9076586379997025,285,4949.12,-95.9,0.0,-108.2,0.34,-0.75,-0.46,-0.01,-1.01,-0.1,-201.9,-0.1,-1.0,0.96,0.0,0.0,0.0,1.0149876846543509,0.9432391001225512,0.01774176072669742,0.28,0,2,0.0
5.915766617999907,286,4949.13,-95.9,0.0,-108.2,0.4,-0.73,-0.47,0.0,-1.01,-0.09,-201.9,0.1,0.0,0.96,0.0,-0.07,0.0,1.0140019723846694,0.955928867646542,0.016420927487875603,0.28,0,2,0.0
5.927702230999785,287,4949.14,-95.8,0.0,-108.3,0.45,-0.74,-0.49,0.0,-1.0,-0.09,-201.9,0.0,-2.0,0.96,0.0,0.0,0.0,1.004041831797859,0.9950879358127099,0.0063315711630439475,0.28,0,2,0.0
5.93557928700011,288,4949.15,-95.8,0.0,-108.4,0.45,-0.77,-0.5,0.0,-0.99,-0.09,-201.9,0.0,1.0,0.96,0.0,-0.07,0.0,0.9940824915468535,1.0224480426897007,0.003555213706202376,0.28,0,2,0.0
5.947787526999491,289,4949.16,-95.7,0.1,-108.5,0.41,-0.77,-0.5,-0.01,-0.99,-0.08,-201.9,-0.1,-2.0,0.96,0.0,0.0,0.0,0.9932774033471213,1.0054849576199536,0.004273095867815768,0.28,0,2,0.0
5.955675583999437,290,4949.17,-95.7,0.1,-108.6,0.42,-0.77,-0.48,-0.01,-0.99,-0.08,-201.9,0.0,0.0,0.96,0.0,0.01,0.0,0.9932774033471213,0.9998499887483122,0.004187633950459402,0.28,0,2,0.0
5.967706075000024,291,4949.18,-95.6,0.1,-108.6,0.42,-0.82,-0.47,0.0,-0.99,-0.07,-201.9,-0.2,0.0,0.96,0.0,0.0,0.0,0.9924716620639604,1.0342630226397924,0.004893507728947921,0.28,0,2,0.0
5.975712376000047,292,4949.19,-95.6,0.2,-108.7,0.4,-0.87,-0.45,0.0,-1.0,-0.07,-201.9,0.1,0.0,0.96,0.0,-0.15,0.0,1.0024470060806208,1.0580170130957254,0.004980199561958165,0.28,0,2,0.0
5.9876670069998,293,4949.2,-95.5,0.2,-108.8,0.39,-0.88,-0.48,-0.01,-1.0,-0.07,-201.9,0.0,0.0,0.96,0.0,0.0,0.0,1.002496882788171,1.0755928597754822,0.004929474744118312,0.28,0,2,0.0
5.995638506999967,294,4949.21,-95.5,0.2,-108.9,0.4,-0.93,-0.52,-0.01,-1.0,-0.07,-201.9,0.3,0.0,0.96,0.0,0.0,0.0,1.002496882788171,1.138112472473613,0.004830885249235917,0.28,0,2,0.0
6.007735135000075,295,4949.22,-95.4,0.3,-109.0,0.41,-0.99,-0.55,-0.01,-1.0,-0.07,-201.9,-0.3,0.0,0.96,0.0,0.01,0.0,1.002496882788171,1.2044500819876263,0.004734267544251214,0.28,0,2,0.0
6.015765919999467,296,4949.23,-95.4,0.3,-109.1,0.41,-1.08,-0.57,-0.02,-1.0,-0.06,-201.9,0.1,-3.0,0.96,0.01,0.0,0.0,1.0019980039900278,1.2881770064707723,0.004150680971185761,0.28,0,2,0.0
6.027742315999603,297,4949.24,-95.3,0.3,-109.2,0.41,-1.12,-0.56,-0.03,-0.99,-0.06,-201.9,-0.1,2.0,0.96,0.0,-0.07,0.0,0.9922701245124737,1.3176114753598651,0.005465654536241038,0.28,0,2,0.0
6.035574615999394,298,4949.25,-95.2,0.3,-109.4,0.4,-1.19,-0.54,-0.02,-1.0,-0.06,-201.9,0.0,-3.0,0.96,0.01,-0.07,0.0,1.0019980039900278,1.3666382110858748,0.004176980442486822,0.28,0,2,0.0
6.048080904999551,299,4949.26,-95.2,0.4,-109.5,0.38,-1.28,-0.52,0.0,-1.01,-0.05,-201.9,0.0,3.0,0.96,0.0,-0.07,0.0,1.011236866416568,1.4328991590478377,0.013147526011646593,0.28,0,2,0.0
6.0556335989995205,300,4949.27,-95.1,0.4,-109.6,0.44,-1.38,-0.58,0.0,-1.02,-0.04,-201.9,0.0,-3.0,0.96,0.0,0.0,0.0,1.0207840124139875,1.5602563891873669,0.022240778568884734,0.28,0,2,0.0
6.067767621999337,301,4949.28,-95.0,0.5,-109.8,0.51,-1.46,-0.64,0.0,-1.02,-0.04,-201.9,0.0,0.0,0.96,0.0,0.08,0.0,1.0207840124139875,1.6737084572887835,0.02179596299750708,0.28,0,2,0.0
6.075773951999508,302,4949.29,-95.0,0.5,-109.9,0.56,-1.55,-0.66,0.0,-1.02,-0.03,-201.9,0.0,-1.0,0.96,0.0,0.08,0.0,1.0204410811016968,1.7753027910753705,0.021023971051512103,0.28,0,2,0.0
6.087694170999384,303,4949.3,-94.9,0.5,-110.1,0.63,-1.67,-0.68,0.0,-1.02,-0.02,-201.9,0.1,2.0,0.96,0.0,0.0,0.0,1.020196059588548,1.910026177831079,0.02036337054759596,0.28,0,2,0.0
6.095667101999425,304,4949.31,-94.8,0.6,-110.3,0.73,-1.84,-0.7,0.0,-1.01,0.0,-201.9,-0.3,2.0,0.96,-0.01,0.08,0.0,1.01,2.0996428267684006,0.009963964739867048,0.28,0,2,0.0
6.107744748999721,305,4949.32,-94.7,0.6,-110.5,0.76,-2.04,-0.71,-0.01,-0.99,0.0,-201.9,-0.2,-1.0,0.96,0.01,-0.07,0.0,0.9900505037623081,2.2898253208487325,0.009785820867868389,0.28,0,2,0.0
6.11575619299947,306,4949.33,-94.5,0.7,-110.7,0.81,-2.23,-0.7,-0.01,-0.98,0.0,-201.9,-0.1,3.0,0.96,-0.01,0.0,0.0,0.9800510190801293,2.4736612540928076,0.01938959943904628,0.28,0,2,0.0
6.127741153999523,307,4949.34,-94.4,0.7,-110.9,0.82,-2.4,-0.67,0.0,-0.97,-0.01,-201.9,-0.3,-1.0,0.96,0.0,-0.07,0.0,0.970051545022222,2.623223208192547,0.028801292027014425,0.28,0,2,0.0
6.135705689999668,308,4949.35,-94.3,0.7,-111.2,0.84,-2.53,-0.64,0.0,-0.96,-0.02,-201.9,-0.4,0.0,0.96,0.0,0.0,0.0,0.9602083107326242,2.741550656106868,0.03787163579027997,0.28,0,2,0.0
6.148187885999505,309,4949.36,-94.2,0.8,-111.5,0.9,-2.66,-0.63,0.0,-0.97,-0.02,-201.9,-0.1,1.0,0.96,0.0,-0.15,0.0,0.9702061636580134,2.877933286231632,0.027316307207593038,0.28,0,2,0.0
6.15563630699944,310,4949.37,-94.1,0.8,-111.7,1.01,-2.78,-0.61,0.02,-0.98,-0.03,-201.9,-0.5,-2.0,0.96,0.01,-0.07,0.0,0.9806630410084801,3.020033112401253,0.016522241259983805,0.28,0,2,0.0
6.167795837000085,311,4949.38,-94.0,0.9,-112.0,1.13,-2.88,-0.57,0.03,-0.98,-0.05,-202.0,-0.6,-1.0,0.96,0.02,-0.06,0.0,0.9817331613019904,3.1458226269133482,0.015143078547144029,0.28,0,2,0.0
6.175715897999908,312,4949.39,-93.8,0.9,-112.3,1.19,-3.02,-0.58,0.04,-1.01,-0.03,-202.0,-0.5,1.0,0.96,0.0,-0.08,0.0,1.011236866416568,3.2974080730173507,0.014073414036084975,0.28,0,2,0.0
6.1876713639994705,313,4949.4,-93.7,1.0,-112.6,1.27,-3.12,-0.6,0.04,-1.0,-0.03,-202.0,-0.3,2.0,0.96,0.0,-0.06,0.0,1.0012492197250393,3.421593196158772,0.00400405199766507,0.28,0,2,0.0
6.195643540999299,314,4949.41,-93.5,1.0,-113.0,1.34,-3.22,-0.58,0.05,-1.0,-0.04,-202.0,-0.2,0.0,0.96,0.0,-0.06,0.0,1.0020479030465559,3.5355904740226918,0.004706680612797998,0.28,0,2,0.0
6.207917269000063,315,4949.42,-93.4,1.1,-113.3,1.4,-3.29,-0.57,0.05,-1.0,-0.03,-202.0,0.0,1.0,0.96,0.0,0.0,0.0,1.0016985574512922,3.6206353033687333,0.004270188317183621,0.28,0,2,0.0
6.215720115999829,316,4949.43,-93.3,1.1,-113.6,1.36,-3.36,-0.56,0.04,-1.0,-0.03,-202.0,0.0,0.0,0.96,0.0,-0.14,0.0,1.0012492197250393,3.6678058836312477,0.0037444335791121386,0.28,0,2,0.0
6.227637700999367,317,4949.44,-93.1,1.2,-114.0,1.23,-3.42,-0.52,0.04,-1.0,-0.03,-202.0,0.0,1.0,0.96,0.0,-0.06,0.0,1.0012492197250393,3.6714710948065488,0.003669544907529909,0.28,0,2,0.0
6.235765310999341,318,4949.45,-93.0,1.2,-114.3,1.23,-3.5,-0.49,0.04,-1.01,-0.03,-202.0,0.0,0.0,0.96,0.0,0.0,0.0,1.011236866416568,3.742058257162761,0.013384047767077467,0.28,0,2,0.0
6.2477209109993055,319,4949.46,-92.9,1.3,-114.7,1.33,-3.54,-0.44,0.04,-1.0,-0.04,-202.0,0.0,0.0,0.96,0.0,-0.06,0.0,1.001598722043913,3.807111766155546,0.003670985326534093,0.28,0,2,0.0
6.2557659369995235,320,4949.47,-92.7,1.3,-115.0,1.39,-3.56,-0.38,0.05,-0.99,-0.05,-202.0,0.1,1.0,0.96,0.0,-0.06,0.0,0.9925220400575495,3.8405858928033365,0.005297582726632943,0.28,0,2,0.0
6.267725828999573,321,4949.48,-92.6,1.4,-115.4,1.38,-3.54,-0.35,0.06,-0.98,-0.07,-202.0,0.0,4.0,0.96,-0.02,-0.05,0.0,0.9843271813782245,3.8155602471983063,0.013222592577838754,0.28,0,2,0.0
6.2756743399995685,322,4949.49,-92.5,1.4,-115.7,1.26,-3.46,-0.32,0.06,-0.98,-0.08,-202.0,0.3,0.0,0.96,0.0,-0.07,0.0,0.9850888284819801,3.69616016968962,0.012211726564601455,0.28,0,2,0.0
6.287757289999718,323,4949.5,-92.4,1.4,-116.1,1.15,-3.34,-0.32,0.06,-1.0,-0.09,-202.0,1.5,15.0,0.96,-0.07,-0.06,0.0,1.005832988124768,3.5469000549775855,0.00836178441662283,0.28,0,2,0.0
6.295776995999404,324,4949.51,-92.4,1.5,-116.4,1.08,-3.2,-0.39,0.06,-1.02,-0.09,-201.9,2.9,6.0,0.96,-0.07,-0.06,0.0,1.0257192598367255,3.3997794046084815,0.02768309500600863,0.28,0,2,0.0
6.307869397999639,325,4949.52,-92.3,1.5,-116.7,1.0,-3.04,-0.45,0.06,-1.03,-0.09,-201.9,4.3,19.0,0.96,-0.16,-0.05,0.0,1.0356640381899913,3.2317332810737955,0.03687531589208892,0.28,0,2,0.0
6.315772099999776,326,4949.53,-92.2,1.6,-117.0,0.95,-2.91,-0.54,0.07,-1.04,-0.09,-201.8,8.9,45.0,0.96,-0.33,-0.13,0.0,1.0462313319720453,3.1084079526342747,0.04649375748066009,0.28,0,2,0.0
6.327658653000071,327,4949.54,-92.2,1.7,-117.3,0.95,-2.78,-0.6,0.08,-1.03,-0.1,-201.7,17.1,69.0,0.95,-0.54,-0.21,0.0,1.0379306335203715,2.998482949759761,0.03742919784840648,0.28,0,2,0.0
6.335755696999513,328,4949.55,-92.1,1.7,-117.6,0.97,-2.61,-0.63,0.09,-1.02,-0.1,-201.4,29.1,125.0,0.94,-0.99,-0.17,0.0,1.0288342918079665,2.854802970434212,0.027766199013281367,0.28,0,2,0.0
6.347743206999439,329,4949.56,-92.1,1.8,-117.8,1.01,-2.44,-0.64,0.1,-1.0,-0.11,-201.0,45.0,154.0,0.93,-1.45,-0.15,0.0,1.0109896141899777,2.7172228469523807,0.00972309096738666,0.28,0,2,0.0
6.355731654999545,330,4949.57,-92.0,1.9,-118.1,1.03,-2.25,-0.66,0.11,-0.99,-0.1,-200.4,64.7,184.0,0.91,-1.99,0.0,0.0,1.0010993956645864,2.561054470330532,0.00016378500684455233,0.28,0,2,0.0
6.3677247019995775,331,4949.58,-92.0,2.0,-118.3,0.97,-2.1,-0.68,0.11,-0.99,-0.1,-199.7,84.2,190.0,0.89,-2.53,-0.06,0.0,1.0010993956645864,2.411078596810979,0.00016050930670763464,0.28,0,2,0.0
6.375696147999406,332,4949.59,-91.9,2.1,-118.5,1.0,-1.96,-0.68,0.11,-0.98,-0.11,-198.7,104.2,197.0,0.86,-3.07,0.0,0.0,0.9922701245124737,2.303041467277565,0.008809984849643904,0.28,0,2,0.0
6.387748193999869,333,4949.6,-91.8,2.2,-118.7,1.08,-1.82,-0.63,0.11,-0.97,-0.11,-197.5,124.5,191.0,0.83,-3.57,-0.11,0.0,0.9823950325607311,2.2080987296767325,0.018311375265358754,0.28,0,2,0.0
6.395869019999736,334,4949.61,-91.7,2.2,-118.9,1.21,-1.69,-0.56,0.11,-0.96,-0.11,-196.1,143.4,192.0,0.78,-4.14,-0.01,0.0,0.9725224933131367,2.1526263029146513,0.02762023622269405,0.28,0,2,0.0
6.407602408999992,335,4949.62,-91.5,2.3,-119.0,1.42,-1.56,-0.46,0.11,-0.95,-0.11,-194.6,162.2,182.0,0.74,-4.6,-0.08,0.0,0.9626525853079084,2.159073875530895,0.0367403413433639,0.28,0,2,0.0
6.415741388999777,336,4949.63,-91.4,2.3,-119.2,1.55,-1.44,-0.35,0.11,-0.95,-0.11,-192.8,176.8,147.0,0.69,-4.96,-0.1,0.0,0.9626525853079084,2.1444346574330493,0.03600553451649657,0.28,0,2,0.0
6.427690367999276,337,4949.64,-91.2,2.3,-119.3,1.63,-1.34,-0.26,0.11,-0.94,-0.11,-191.0,186.3,97.0,0.64,-5.13,0.0,0.0,0.9527853903162034,2.1260526804385633,0.044955274918037635,0.28,0,2,0.0
6.435780866999266,338,4949.65,-91.1,2.3,-119.5,1.66,-1.22,-0.16,0.1,-0.94,-0.11,-189.1,189.7,42.0,0.59,-5.15,0.09,0.0,0.9516827202382104,2.0663010429267077,0.04513678609610994,0.28,0,2,0.0
6.447827250000046,339,4949.66,-90.9,2.4,-119.6,1.62,-1.12,-0.07,0.09,-0.95,-0.11,-187.2,186.8,-19.0,0.54,-5.0,0.07,0.0,0.9605727458136629,1.9707105317625928,0.03552182531024428,0.28,0,2,0.0
6.455672824999965,340,4949.67,-90.8,2.4,-119.7,1.67,-1.02,0.01,0.08,-0.95,-0.11,-185.4,179.8,-62.0,0.49,-4.77,0.11,0.0,0.9596874491208062,1.9568852802348942,0.035678979563039004,0.28,0,2,0.0
6.467845319999469,341,4949.68,-90.6,2.3,-119.8,1.69,-0.93,0.12,0.07,-0.94,-0.12,-183.7,169.2,-102.0,0.44,-4.44,-0.12,0.0,0.9502105029939418,1.9327182929749487,0.04425280717610525,0.28,0,2,0.0
6.475721263999731,342,4949.69,-90.4,2.3,-119.9,1.7,-0.81,0.28,0.07,-0.93,-0.12,-182.1,154.6,-140.0,0.4,-3.99,0.05,0.0,0.9403190947758108,1.903811965504997,0.05306133108635158,0.28,0,2,0.0
6.487729731999934,343,4949.7,-90.3,2.3,-119.9,1.67,-0.7,0.45,0.07,-0.92,-0.13,-180.7,137.4,-168.0,0.37,-3.48,-0.15,0.0,0.9317725044236925,1.8658510122729521,0.06037576300970038,0.28,0,2,0.0
6.495681530999718,344,4949.71,-90.1,2.2,-120.0,1.61,-0.58,0.63,0.09,-0.92,-0.14,-179.4,117.7,-176.0,0.34,-3.02,0.23,0.0,0.9349331526906082,1.823567931281969,0.056070812447929,0.28,0,2,0.0
6.508253742999841,345,4949.72,-89.9,2.2,-120.0,1.56,-0.4,0.8,0.1,-0.92,-0.15,-178.4,97.3,-205.0,0.31,-2.38,0.07,0.0,0.9374966666607407,1.7982213434391219,0.05243715250824055,0.28,0,2,0.0
6.51565274999939,346,4949.73,-89.8,2.1,-120.1,1.49,-0.21,0.94,0.11,-0.93,-0.14,-177.6,78.9,-170.0,0.29,-1.98,0.05,0.0,0.9468896451012653,1.7742040468897595,0.04218329058636172,0.28,0,2,0.0
6.527847338999891,347,4949.74,-89.6,2.0,-120.1,1.45,-0.06,1.03,0.13,-0.95,-0.13,-176.8,68.6,-120.0,0.27,-1.73,-0.09,0.0,0.9676259607927021,1.7796066981218068,0.021018035397026402,0.28,0,2,0.0
6.535760090999247,348,4949.75,-89.5,1.9,-120.1,1.47,0.1,1.04,0.14,-0.95,-0.14,-176.2,57.4,-118.0,0.26,-1.41,0.28,0.0,0.9704122835166504,1.8034688796871432,0.017867078419616544,0.28,0,2,0.0
6.5477694399996835,349,4949.76,-89.4,1.8,-120.1,1.46,0.32,1.11,0.15,-0.94,-0.14,-175.7,47.1,-101.0,0.24,-1.18,0.09,0.0,0.9621330469326993,1.8617464918726179,0.02562338870349634,0.28,0,2,0.0
6.5557239549998485,350,4949.77,-89.2,1.6,-120.0,1.36,0.52,1.14,0.15,-0.94,-0.12,-175.3,40.0,-61.0,0.23,-1.07,0.01,0.0,0.9594269122762816,1.84921605011421,0.027762932892715697,0.28,0,2,0.0
6.5677577689994,351,4949.78,-89.1,1.5,-120.0,1.14,0.73,1.15,0.12,-0.93,-0.11,-174.9,38.9,-18.0,0.22,-1.09,-0.35,0.0,0.9441398201537736,1.776231966833161,0.04218902451491924,0.28,0,2,0.0
6.575729622999461,352,4949.79,-89.0,1.4,-119.9,0.87,0.87,1.17,0.11,-0.9,-0.1,-174.5,43.7,32.0,0.21,-1.27,0.07,0.0,0.9121951545584969,1.6978515836197225,0.07265101630799209,0.28,0,2,0.0
6.587719288999324,353,4949.8,-88.9,1.3,-119.8,0.54,1.01,1.26,0.1,-0.89,-0.11,-174.0,50.0,48.0,0.2,-1.42,0.32,0.0,0.9023303164584464,1.7027330971118169,0.08086553731988166,0.28,0,2,0.0
6.595673615000123,354,4949.81,-88.9,1.1,-119.7,0.27,1.12,1.34,0.09,-0.89,-0.11,-173.5,52.5,16.0,0.18,-1.41,0.12,0.0,0.9012768719988326,1.767172883449721,0.08028060214390564,0.28,0,2,0.0
6.607813231999899,355,4949.82,-88.9,1.0,-119.6,0.07,1.16,1.46,0.09,-0.89,-0.11,-173.0,50.0,-25.0,0.17,-1.26,0.06,0.0,0.9012768719988326,1.8660385848100782,0.07867499010102752,0.28,0,2,0.0
6.61566984899946,356,4949.83,-88.8,0.8,-119.4,-0.05,1.28,1.58,0.09,-0.92,-0.12,-172.5,40.2,-97.0,0.16,-0.88,0.01,0.0,0.932148056909416,2.0340353979220716,0.04684772908663515,0.28,0,2,0.0
6.627781761999358,357,4949.84,-88.9,0.7,-119.3,-0.14,1.39,1.66,0.1,-0.92,-0.13,-172.3,15.4,-244.0,0.16,0.05,0.28,0.0,0.9345052166788584,2.1696313050838847,0.04360075793084894,0.28,0,2,0.0
6.635781223999402,358,4949.85,-88.9,0.5,-119.2,-0.28,1.6,1.79,0.07,-0.94,-0.14,-172.3,-10.5,-183.0,0.16,0.37,0.01,0.0,0.9529428104561154,2.4171263930543643,0.02465990087052017,0.28,0,2,0.0
6.6478195019999475,359,4949.86,-88.9,0.3,-119.0,-0.73,1.84,1.76,0.02,-1.03,-0.13,-172.5,-12.1,-51.0,0.16,0.3,0.03,0.0,1.0383640979926068,2.648792177578301,0.059546158932651805,0.28,0,2,0.0
6.655739967000045,360,4949.87,-89.1,0.2,-118.8,-1.16,2.11,1.56,0.01,-1.06,-0.12,-172.6,-9.9,-9.0,0.16,0.27,-0.06,0.0,1.0668176976409793,2.869024224366187,0.08623976340940387,0.28,0,2,0.0
6.66783138899973,361,4949.88,-89.2,0.0,-118.6,-1.28,2.22,1.39,0.04,-1.06,-0.1,-172.7,-16.5,-89.0,0.17,0.65,0.09,0.0,1.0654576481493763,2.9152872928752664,0.08318211963944477,0.28,0,2,0.0
6.675691219999862,362,4949.89,-89.4,0.0,-118.4,-1.37,2.32,1.28,0.04,-1.08,-0.1,-173.0,-31.6,-113.0,0.18,0.99,0.0,0.0,1.0853570840972109,2.9829012722515644,0.10101992447553376,0.28,0,2,0.0
6.687779902999864,363,4949.9,-89.6,-0.1,-118.1,-1.94,2.52,1.04,0.0,-1.15,-0.07,-173.4,-39.5,-73.0,0.19,1.12,0.08,0.0,1.1521284650593437,3.3459826658247946,0.16443547932891334,0.28,0,2,0.0
6.695683858999473,364,4949.91,-89.9,-0.2,-117.9,-2.47,2.56,0.68,-0.02,-1.18,-0.02,-173.8,-44.3,-54.0,0.2,1.24,-0.17,0.0,1.18033893437436,3.621726107811026,0.18879302967105105,0.28,0,2,0.0
6.707856864999485,365,4949.92,-90.1,-0.3,-117.6,-2.56,2.35,0.3,-0.06,-1.24,0.01,-174.2,-46.1,-18.0,0.21,1.23,0.0,0.0,1.241491039033307,3.4879936926548476,0.24494623164339802,0.28,0,2,0.0
6.715638077999756,366,4949.93,-90.4,-0.3,-117.4,-2.09,2.04,-0.07,-0.06,-1.25,0.02,-174.7,-45.0,-1.0,0.23,1.21,0.0,0.0,1.2515989773086267,2.9214037721615953,0.24995308652034343,0.28,0,2,0.0
6.727822775999812,367,4949.94,-90.5,-0.3,-117.2,-1.48,1.78,-0.32,-0.06,-1.21,0.01,-175.2,-46.9,-27.0,0.24,1.33,0.0,0.0,1.2115279608824552,2.3369210512980536,0.20568442869228853,0.28,0,2,0.0
6.735799508999662,368,4949.95,-90.6,-0.3,-117.0,-0.97,1.51,-0.45,-0.08,-1.13,0.02,-175.7,-52.7,-50.0,0.25,1.51,-0.01,0.0,1.1330048543585325,1.8502702505309867,0.12461809572499849,0.28,0,2,0.0
6.747834717999467,369,4949.96,-90.7,-0.3,-116.9,-0.66,1.34,-0.42,-0.06,-1.04,0.0,-176.2,-60.3,-70.0,0.27,1.73,0.22,0.0,1.0417293314484335,1.5516442891333053,0.03267572135860153,0.28,0,2,0.0
6.755705351999495,370,4949.97,-90.7,-0.3,-116.8,-0.42,1.27,-0.36,-0.02,-0.99,0.0,-176.9,-67.9,-69.0,0.29,1.91,0.1,0.0,0.9902019995940222,1.3852436608770313,0.018474578285893606,0.28,0,2,0.0
6.768043433999992,371,4949.98,-90.8,-0.2,-116.6,-0.38,1.32,-0.29,0.01,-0.95,-0.01,-177.6,-71.9,-46.0,0.31,2.0,-0.14,0.0,0.9501052573267869,1.4038874598770374,0.05739989414206648,0.28,0,2,0.0
6.775733919999766,372,4949.99,-90.8,-0.2,-116.5,-0.52,1.5,-0.23,0.05,-0.92,-0.02,-178.4,-75.8,-43.0,0.33,2.11,-0.01,0.0,0.9215747392371386,1.6041508657230468,0.08421180398708039,0.28,0,2,0.0
6.787842109999474,373,4950.0,-90.9,-0.1,-116.3,-0.72,1.78,-0.18,0.09,-0.9,-0.03,-179.1,-78.9,-28.0,0.35,2.15,0.17,0.0,0.9049861877399014,1.9285227507084275,0.09878434837463124,0.28,0,2,0.0
6.795738300999801,374,4950.01,-91.0,-0.1,-116.1,-0.88,2.15,-0.13,0.13,-0.9,-0.03,-179.7,-78.5,-3.0,0.37,2.11,0.1,0.0,0.9098351499035416,2.3267574003320584,0.09205667848677124,0.28,0,2,0.0
6.807818429999315,375,4950.02,-91.1,0.0,-115.9,-0.98,2.52,-0.09,0.15,-0.91,-0.02,-180.7,-77.2,0.0,0.39,2.1,0.11,0.0,0.9224966124599049,2.705346558206545,0.07780731161179977,0.28,0,2,0.0
6.8156530859996565,376,4950.03,-91.2,0.0,-115.6,-1.01,2.84,-0.08,0.14,-0.93,-0.01,-181.5,-75.9,15.0,0.41,2.02,-0.01,0.0,0.9405317644821998,3.015310929240963,0.05857671639771478,0.28,0,2,0.0
6.828167687000132,377,4950.04,-91.3,0.0,-115.3,-0.96,3.13,-0.07,0.12,-0.94,0.0,-182.2,-71.8,44.0,0.43,1.85,0.07,0.0,0.9476286192385707,3.2746602877245143,0.050450264408516965,0.28,0,2,0.0
6.83566243399946,378,4950.05,-91.4,0.0,-115.0,-0.86,3.33,-0.13,0.09,-0.96,0.01,-182.9,-64.0,62.0,0.45,1.66,0.17,0.0,0.9642613753542137,3.4417146889305044,0.03314115812701646,0.28,0,2,0.0
6.847850518000087,379,4950.06,-91.4,0.0,-114.7,-0.81,3.45,-0.18,0.05,-0.95,0.03,-183.5,-56.9,75.0,0.47,1.43,-0.03,0.0,0.9517877914745492,3.548379912016187,0.044702447166547365,0.28,0,2,0.0
6.85570327699952,380,4950.07,-91.5,0.0,-114.3,-0.79,3.5,-0.24,0.01,-0.98,0.05,-184.0,-47.2,93.0,0.48,1.14,0.17,0.0,0.9813256340277675,3.596067296366963,0.014861312521062486,0.28,0,2,0.0
6.8681382629993095,381,4950.08,-91.5,0.1,-114.0,-0.85,3.46,-0.35,-0.02,-1.0,0.06,-184.4,-37.6,89.0,0.49,0.91,0.0,0.0,1.0019980039900278,3.5800279328519213,0.005694836292373884,0.28,0,2,0.0
6.875657529999444,382,4950.09,-91.5,0.1,-113.6,-0.92,3.29,-0.44,-0.06,-1.02,0.08,-184.7,-29.3,79.0,0.5,0.72,-0.09,0.0,1.0248902380255165,3.444430286709255,0.028015328921305316,0.28,0,2,0.0
6.887978232000023,383,4950.1,-91.6,0.2,-113.3,-0.95,3.05,-0.44,-0.1,-1.02,0.07,-184.9,-21.7,87.0,0.5,0.46,0.1,0.0,1.027277956543408,3.2246860312284666,0.0297949864904129,0.28,0,2,0.0
6.895695243999398,384,4950.11,-91.7,0.2,-113.0,-0.83,2.83,-0.35,-0.1,-1.02,0.04,-185.1,-14.7,52.0,0.51,0.38,0.01,0.0,1.0256705123966467,2.969898988181248,0.027623791496778627,0.28,0,2,0.0
6.9078854889994545,385,4950.12,-91.8,0.2,-112.8,-0.68,2.7,-0.19,-0.09,-1.01,0.03,-185.2,-13.8,22.0,0.51,0.37,-0.14,0.0,1.0144456614328832,2.7907884190672716,0.016070961722354782,0.28,0,2,0.0
6.915768627999569,386,4950.13,-91.9,0.2,-112.5,-0.66,2.58,-0.02,-0.06,-1.0,0.03,-185.4,-17.0,-22.0,0.51,0.51,-0.08,0.0,1.0022474744293446,2.6631560224665773,0.003795319224439875,0.28,0,2,0.0
6.927847819999442,387,4950.14,-91.9,0.2,-112.2,-0.74,2.54,0.11,-0.02,-0.99,0.02,-185.6,-23.9,-61.0,0.52,0.75,0.08,0.0,0.9904039579888602,2.647885949205517,0.007887233271723693,0.28,0,2,0.0
6.935737031999452,388,4950.15,-91.9,0.2,-112.0,-0.87,2.54,0.21,0.0,-1.0,0.02,-185.9,-33.6,-98.0,0.53,1.07,0.01,0.0,1.000199980003999,2.6930651681680486,0.0018706129685467365,0.28,0,2,0.0
6.947860428999775,389,4950.16,-92.0,0.2,-111.7,-0.93,2.6,0.32,0.0,-1.0,0.02,-186.3,-45.4,-103.0,0.54,1.35,0.0,0.0,1.000199980003999,2.7798021512330697,0.0018332007091758085,0.28,0,2,0.0
6.955700498999249,390,4950.17,-92.0,0.2,-111.5,-0.9,2.67,0.44,0.01,-1.01,0.02,-186.9,-56.0,-111.0,0.56,1.67,-0.17,0.0,1.010247494428964,2.85175384631984,0.011643100831458142,0.28,0,2,0.0
6.967876877999515,391,4950.18,-92.1,0.1,-111.2,-0.77,2.77,0.54,0.01,-1.0,0.03,-187.5,-66.7,-100.0,0.58,1.91,0.01,0.0,1.000499875062461,2.9253034030677916,0.0018575718356559356,0.28,0,2,0.0
6.975638365000123,392,4950.19,-92.1,0.1,-110.9,-0.64,2.81,0.62,0.0,-1.0,0.03,-188.2,-72.8,-65.0,0.6,2.03,0.05,0.0,1.0004498987955368,2.9478975558862284,0.0017714436573571524,0.28,0,2,0.0
6.987846320999779,393,4950.2,-92.1,0.0,-110.6,-0.52,2.83,0.68,-0.01,-0.99,0.04,-189.0,-77.9,-54.0,0.62,2.16,0.05,0.0,0.9908582138732059,2.956636602628061,0.007663836439674276,0.28,0,2,0.0
6.995650294999905,394,4950.21,-92.1,0.0,-110.3,-0.47,2.87,0.73,-0.03,-0.97,0.04,-189.8,-79.7,-24.0,0.64,2.18,0.01,0.0,0.9712878049270464,2.998449599376318,0.026689560478117214,0.28,0,2,0.0
7.0081939329993475,395,4950.22,-92.1,0.0,-110.0,-0.51,2.86,0.76,-0.03,-0.96,0.04,-190.6,-78.1,15.0,0.66,2.06,0.25,0.0,0.9613012014972206,3.0028819490616008,0.03594264062978403,0.28,0,2,0.0
7.015771991999827,396,4950.23,-92.1,-0.1,-109.7,-0.51,2.88,0.79,-0.04,-0.97,0.04,-191.3,-73.2,41.0,0.68,1.9,0.03,0.0,0.9716480844420988,3.029620438272755,0.025083842531207767,0.28,0,2,0.0
7.027713219999896,397,4950.24,-92.1,-0.2,-109.5,-0.49,2.91,0.77,-0.06,-0.97,0.04,-192.0,-67.3,50.0,0.7,1.77,-0.08,0.0,0.9726767191621274,3.049770483167545,0.023574103654955603,0.28,0,2,0.0
7.03570997999941,398,4950.25,-92.2,-0.3,-109.2,-0.52,2.92,0.76,-0.07,-0.97,0.03,-192.6,-62.2,54.0,0.72,1.6,-0.01,0.0,0.9729850975220535,3.0617641973215375,0.022800410789128867,0.28,0,2,0.0
7.047885221999422,399,4950.26,-92.2,-0.4,-108.9,-0.57,2.92,0.76,-0.09,-0.97,0.03,-193.2,-54.3,78.0,0.73,1.36,-0.04,0.0,0.9746281342132496,3.0706513966909363,0.020734226615974127,0.28,0,2,0.0
7.05574912999964,400,4950.27,-92.3,-0.5,-108.6,-0.61,2.9,0.74,-0.09,-0.98,0.02,-193.7,-46.5,71.0,0.74,1.19,-0.16,0.0,0.9843271813782244,3.0544557616701535,0.010814475861979367,0.28,0,2,0.0
7.067848191999474,401,4950.28,-92.3,-0.5,-108.3,-0.58,2.85,0.7,-0.09,-0.98,0.02,-194.1,-40.7,65.0,0.75,1.02,-0.01,0.0,0.9843271813782244,2.991471209956733,0.010598186344739746,0.28,0,2,0.0
7.0757669730001,402,4950.29,-92.4,-0.6,-108.0,-0.52,2.77,0.67,-0.08,-0.98,0.02,-194.5,-35.8,49.0,0.76,0.92,-0.06,0.0,0.9834632682515396,2.8969294088741617,0.011232857481995984,0.28,0,2,0.0
7.087790001999565,403,4950.3,-92.4,-0.7,-107.7,-0.4,2.67,0.6,-0.08,-0.97,0.02,-194.8,-31.7,45.0,0.77,0.8,0.16,0.0,0.973498844375277,2.7656644771193775,0.020773335731093412,0.28,0,2,0.0
7.095492057999763,404,4950.31,-92.4,-0.7,-107.5,-0.45,2.57,0.56,-0.08,-0.98,0.0,-195.1,-28.8,22.0,0.78,0.77,-0.05,0.0,0.9832598842625483,2.668520189168521,0.010792049926945713,0.28,0,2,0.0
7.107561478999742,405,4950.32,-92.5,-0.8,-107.2,-0.64,2.44,0.52,-0.08,-0.99,0.0,-195.4,-26.1,35.0,0.79,0.66,-0.05,0.0,0.9932270636667125,2.5755776051208397,0.0008083731123258442,0.28,0,2,0.0
7.119267461999698,406,4950.33,-92.5,-0.9,-107.0,-0.82,2.31,0.54,-0.08,-1.01,0.0,-195.6,-23.6,21.0,0.79,0.62,0.07,0.0,1.01316336293808,2.51,0.018745367635860877,0.28,0,2,0.0
7.127429303000099,407,4950.34,-92.6,-1.0,-106.7,-0.82,2.2,0.57,-0.08,-1.04,-0.01,-195.9,-22.9,7.0,0.8,0.63,-0.18,0.0,1.0431203190428227,2.4160504961610387,0.04772827726579143,0.28,0,2,0.0
7.135651069999767,408,4950.35,-92.7,-1.1,-106.5,-0.64,2.11,0.64,-0.07,-1.07,-0.02,-196.1,-26.4,-28.0,0.81,0.78,0.07,0.0,1.0724737759031686,2.295931183637698,0.07554009944361462,0.28,0,2,0.0
7.147807669000031,409,4950.36,-92.7,-1.2,-106.3,-0.43,2.09,0.7,-0.06,-1.07,-0.02,-196.4,-28.8,-24.0,0.82,0.82,-0.11,0.0,1.0718675291284834,2.245662485771181,0.0734351756155508,0.28,0,2,0.0
7.155551290999938,410,4950.37,-92.7,-1.2,-106.1,-0.21,2.06,0.76,-0.06,-1.06,-0.01,-196.7,-32.0,-23.0,0.82,0.89,-0.02,0.0,1.0617438485811916,2.205742505370924,0.062045265166893904,0.28,0,2,0.0
7.167826664999666,411,4950.38,-92.7,-1.3,-105.9,-0.03,1.99,0.75,-0.06,-1.05,-0.01,-197.1,-34.6,-27.0,0.83,0.97,0.0,0.0,1.0517604289951206,2.1268521340234257,0.051020608669206435,0.28,0,2,0.0
7.175742875999276,412,4950.39,-92.7,-1.4,-105.7,0.12,1.9,0.69,-0.06,-1.03,0.0,-197.4,-37.1,-32.0,0.84,1.06,0.08,0.0,1.031746092796091,2.024969135567256,0.030386147020773357,0.28,0,2,0.0
7.187941002000116,413,4950.4,-92.7,-1.5,-105.5,0.21,1.8,0.61,-0.07,-1.01,0.0,-197.8,-40.6,-26.0,0.85,1.12,-0.07,0.0,1.0124228365658292,1.912119243143586,0.010841632974701199,0.28,0,2,0.0
7.195666668999365,414,4950.41,-92.6,-1.6,-105.3,0.25,1.63,0.52,-0.07,-1.0,0.0,-198.2,-39.2,9.0,0.86,1.02,0.0,0.0,1.0024470060806208,1.7291038141187474,0.0008484864397029224,0.28,0,2,0.0
7.2078225259992905,415,4950.42,-92.6,-1.7,-105.2,0.24,1.48,0.54,-0.08,-0.99,0.0,-198.6,-36.8,22.0,0.87,0.96,-0.23,0.0,0.9932270636667125,1.593612248948909,0.008204026854721103,0.28,0,2,0.0
7.215814743999545,416,4950.43,-92.5,-1.7,-105.0,0.29,1.33,0.56,-0.09,-0.99,-0.01,-198.9,-34.4,24.0,0.88,0.9,0.0,0.0,0.9941327879111522,1.4719374986730926,0.007152336558075789,0.28,0,2,0.0
7.227961867999511,417,4950.44,-92.5,-1.8,-104.9,0.35,1.23,0.61,-0.09,-0.99,-0.02,-199.3,-31.2,36.0,0.89,0.78,-0.02,0.0,0.9942836617384396,1.4168627315304754,0.006861433476172518,0.28,0,2,0.0
7.235902161000013,418,4950.45,-92.4,-1.9,-104.8,0.48,1.15,0.67,-0.1,-0.99,-0.02,-199.5,-25.0,42.0,0.9,0.64,-0.13,0.0,0.995238664843765,1.4148498153514386,0.005788301763430148,0.28,0,2,0.0
7.247483226999975,419,4950.46,-92.4,-2.0,-104.7,0.62,1.1,0.69,-0.09,-1.0,-0.02,-199.8,-23.1,37.0,0.91,0.56,-0.12,0.0,1.0042410069301093,1.438923208513922,0.0031497595164557968,0.28,0,2,0.0
7.257742768999378,420,4950.47,-92.3,-2.1,-104.6,0.78,1.03,0.67,-0.09,-1.0,-0.02,-200.0,-18.3,43.0,0.91,0.43,-0.75,0.0,1.0042410069301093,1.455403724057349,0.0030867643261267563,0.28,0,2,0.0
7.267226109999683,421,4950.48,-92.2,-2.2,-104.5,0.91,0.97,0.64,-0.09,-0.98,-0.03,-200.1,-13.1,52.0,0.91,0.28,0.08,0.0,0.9845811292118085,1.47600813005891,0.016241651124330625,0.28,0,2,0.0
7.2798323379993235,422,4950.49,-92.1,-2.3,-104.4,0.97,0.9,0.58,-0.08,-0.98,-0.03,-200.2,-7.8,61.0,0.92,0.12,-0.01,0.0,0.983717439105356,1.444749113168096,0.01676323440616745,0.28,0,2,0.0
7.291872079999848,423,4950.5,-92.0,-2.4,-104.3,1.02,0.83,0.48,-0.08,-0.98,-0.04,-200.2,-0.1,60.0,0.92,-0.04,0.14,0.0,0.9840731680114034,1.399892853042689,0.016079355390117733,0.28,0,2,0.0
7.3038604639996265,424,4950.51,-91.9,-2.4,-104.2,1.04,0.78,0.39,-0.08,-0.97,-0.05,-200.2,0.0,10.0,0.92,0.01,-0.09,0.0,0.9745768312452333,1.3572398461583717,0.0250641783131621,0.28,0,2,0.0
7.31180086599943,425,4950.52,-91.8,-2.5,-104.1,1.09,0.72,0.3,-0.09,-0.97,-0.05,-200.2,0.2,8.0,0.92,0.0,0.08,0.0,0.9754486147409304,1.3403357788255896,0.023708546921115792,0.28,0,2,0.0
7.319858156999544,426,4950.53,-91.8,-2.6,-104.0,1.12,0.65,0.23,-0.09,-0.98,-0.05,-200.2,0.0,-2.0,0.92,0.0,-0.09,0.0,0.985393322486001,1.3152186130069785,0.013488562392524273,0.28,0,2,0.0
7.327733801999784,427,4950.54,-91.7,-2.6,-104.0,1.2,0.55,0.13,-0.1,-0.99,-0.05,-200.2,0.2,2.0,0.92,0.0,-0.07,0.0,0.9962931295557548,1.3264237633576985,0.002536980216315099,0.28,0,2,0.0
7.335714973999529,428,4950.55,-91.5,-2.6,-103.9,1.28,0.42,0.01,-0.1,-0.99,-0.05,-200.2,0.0,-2.0,0.92,0.0,0.14,0.0,0.9962931295557548,1.3471822445385777,0.002486240611988766,0.28,0,2,0.0
7.3477414549997775,429,4950.56,-91.4,-2.7,-103.9,1.32,0.31,-0.1,-0.11,-0.99,-0.06,-200.2,0.0,0.0,0.92,0.0,0.15,0.0,0.9978977903573091,1.3595955280891447,0.0008639482142257515,0.28,0,2,0.0
7.3557463629995254,430,4950.57,-91.3,-2.7,-103.9,1.35,0.19,-0.23,-0.11,-1.0,-0.06,-200.2,0.2,-1.0,0.92,0.0,-0.16,0.0,1.0078194282707593,1.3825700705570043,0.008876535905239957,0.28,0,2,0.0
7.367867471999489,431,4950.58,-91.2,-2.7,-103.8,1.34,0.09,-0.36,-0.11,-1.01,-0.06,-200.2,-0.2,-4.0,0.92,0.01,-0.08,0.0,1.017742600071354,1.3904315876734101,0.018423713551718013,0.28,0,2,0.0
7.3757532009994975,432,4950.59,-91.1,-2.7,-103.8,1.35,-0.03,-0.48,-0.11,-1.0,-0.06,-200.2,0.2,1.0,0.92,0.0,0.14,0.0,1.0078194282707593,1.4331085094995426,0.008330530916100809,0.28,0,2,0.0
7.387871526999334,433,4950.6,-91.0,-2.7,-103.9,1.39,-0.19,-0.58,-0.1,-1.0,-0.06,-200.2,-0.2,-2.0,0.92,0.0,0.22,0.0,1.0067770358922576,1.518090906368917,0.0071423757668471755,0.28,0,2,0.0
7.395823869999731,434,4950.61,-90.9,-2.6,-103.9,1.44,-0.33,-0.66,-0.1,-0.99,-0.07,-200.2,0.2,-9.0,0.92,0.03,0.0,0.0,0.9974968671630001,1.6180543872194162,0.0020950371031621673,0.28,0,2,0.0
7.407832075999977,435,4950.62,-90.8,-2.6,-103.9,1.5,-0.47,-0.74,-0.09,-0.99,-0.08,-200.2,0.0,4.0,0.92,-0.01,-0.08,0.0,0.9972963451251589,1.73738308959193,0.0022496479581833873,0.28,0,2,0.0
7.415873281999666,436,4950.63,-90.7,-2.5,-104.0,1.49,-0.6,-0.78,-0.09,-0.98,-0.08,-200.2,-0.1,-4.0,0.92,0.01,0.07,0.0,0.9873702446397703,1.7856371411907852,0.011932233474700515,0.28,0,2,0.0
7.427908804999788,437,4950.64,-90.5,-2.5,-104.0,1.45,-0.76,-0.82,-0.09,-0.98,-0.08,-200.2,0.4,2.0,0.91,0.0,0.0,0.0,0.9873702446397703,1.8309833423600554,0.011693588805206545,0.28,0,2,0.0
7.435894940999788,438,4950.65,-90.4,-2.4,-104.1,1.46,-0.89,-0.85,-0.09,-0.98,-0.08,-200.2,-0.2,0.0,0.92,0.0,0.07,0.0,0.9873702446397703,1.909502553022645,0.011459717029102423,0.28,0,2,0.0
7.447900678999758,439,4950.66,-90.3,-2.4,-104.2,1.46,-1.0,-0.89,-0.09,-0.98,-0.07,-200.2,0.0,-8.0,0.92,0.03,0.06,0.0,0.986610358753647,1.9808331580423424,0.011975210856921215,0.28,0,2,0.0
7.455877372000032,440,4950.67,-90.2,-2.3,-104.3,1.45,-1.1,-0.94,-0.1,-0.97,-0.07,-200.2,0.1,5.0,0.92,-0.01,0.07,0.0,0.9776502442080194,2.048438429633656,0.02051661889449785,0.28,0,2,0.0
7.468007269999362,441,4950.68,-90.1,-2.3,-104.4,1.37,-1.21,-0.98,-0.1,-0.96,-0.06,-200.2,0.0,-1.0,0.92,0.0,-0.09,0.0,0.9670573922989266,2.0739816778361377,0.030487281387518772,0.28,0,2,0.0
7.475800246999825,442,4950.69,-90.0,-2.2,-104.6,1.2,-1.31,-1.01,-0.1,-0.95,-0.05,-200.2,0.0,0.0,0.92,0.0,-0.01,0.0,0.9565563234854495,2.0435752983435673,0.040168583196976027,0.28,0,2,0.0
7.487894526999298,443,4950.7,-89.9,-2.1,-104.7,0.97,-1.41,-1.0,-0.09,-0.94,-0.06,-200.2,0.0,0.0,0.92,0.0,0.0,0.0,0.9462029380635002,1.9821705274773913,0.04951152924654678,0.28,0,2,0.0
7.495764063000024,444,4950.71,-89.9,-2.1,-104.9,0.77,-1.51,-0.98,-0.09,-0.94,-0.07,-200.2,-0.1,0.0,0.92,0.0,0.06,0.0,0.9468896451012652,1.9579070458017154,0.04784832576460618,0.28,0,2,0.0
7.5078389099999185,445,4950.72,-89.9,-2.0,-105.0,0.65,-1.57,-0.92,-0.08,-0.94,-0.07,-200.2,0.0,0.0,0.92,0.0,-0.16,0.0,0.9459915433025815,1.9323043238579165,0.047771499012024043,0.28,0,2,0.0
7.515821874999347,446,4950.73,-89.8,-2.0,-105.2,0.61,-1.62,-0.86,-0.07,-0.94,-0.08,-200.2,-0.1,0.0,0.92,0.0,0.06,0.0,0.9459915433025815,1.9328993765843063,0.04681606903178359,0.28,0,2,0.0
7.527893279999262,447,4950.74,-89.8,-1.9,-105.3,0.58,-1.65,-0.8,-0.06,-0.94,-0.08,-200.2,0.0,3.0,0.92,0.0,-0.08,0.0,0.9453041838477179,1.9232524535276172,0.04655335991691434,0.28,0,2,0.0
7.53588949799996,448,4950.75,-89.8,-1.8,-105.5,0.52,-1.65,-0.78,-0.05,-0.94,-0.09,-200.2,-0.3,-1.0,0.92,0.0,0.22,0.0,0.945621488757526,1.8977091452590937,0.04531133390696407,0.28,0,2,0.0
7.54788433900012,449,4950.76,-89.8,-1.8,-105.7,0.41,-1.64,-0.77,-0.05,-0.94,-0.1,-200.2,-0.7,-5.0,0.92,0.03,0.05,0.0,0.9466255859631092,1.8575790696495262,0.04342109196735333,0.28,0,2,0.0
7.555843129000095,450,4950.77,-89.8,-1.7,-105.8,0.25,-1.62,-0.74,-0.05,-0.95,-0.09,-200.2,-2.1,-11.0,0.92,0.07,-0.14,0.0,0.9555626614722866,1.7984715733088472,0.03379433612901239,0.28,0,2,0.0
7.567803404999722,451,4950.78,-89.9,-1.6,-106.0,0.14,-1.62,-0.69,-0.04,-0.97,-0.09,-200.3,-4.6,-28.0,0.92,0.17,0.0,0.0,0.9749871794028884,1.7663804799646083,0.014082421834442416,0.28,0,2,0.0
7.575856712000132,452,4950.79,-89.9,-1.6,-106.1,0.03,-1.59,-0.6,-0.04,-0.98,-0.09,-200.4,-11.7,-64.0,0.92,0.41,0.03,0.0,0.9849365461794988,1.6997058569058354,0.004050393956675391,0.28,0,2,0.0
7.587858554999912,453,4950.8,-90.0,-1.5,-106.3,-0.13,-1.59,-0.44,-0.03,-1.0,-0.07,-200.6,-19.2,-66.0,0.93,0.6,-0.08,0.0,1.0028958071504734,1.6548715962273328,0.013630689674013263,0.28,0,2,0.0
7.595764814999711,454,4950.81,-90.0,-1.5,-106.5,-0.18,-1.59,-0.27,-0.03,-1.0,-0.08,-200.8,-25.8,-70.0,0.93,0.79,0.03,0.0,1.0036433629531956,1.6227754003558226,0.014090680567200642,0.28,0,2,0.0
7.608133189999535,455,4950.82,-90.1,-1.5,-106.6,-0.23,-1.51,-0.08,-0.03,-0.99,-0.09,-201.1,-32.2,-66.0,0.94,0.96,-0.02,0.0,0.9945350672550466,1.5295097253695382,0.004882737171670648,0.28,0,2,0.0
7.6158045579995814,456,4950.83,-90.2,-1.5,-106.7,-0.35,-1.43,0.06,-0.04,-0.98,-0.1,-201.5,-41.4,-85.0,0.95,1.22,-0.2,0.0,0.985900603509299,1.4734313692873515,0.003676692042595464,0.28,0,2,0.0
7.627987510999446,457,4950.84,-90.3,-1.5,-106.9,-0.41,-1.39,0.08,-0.06,-0.97,-0.09,-202.0,-50.2,-80.0,0.97,1.45,0.17,0.0,0.976012295004525,1.4514131045295133,0.013293700536421982,0.28,0,2,0.0
7.635724525999649,458,4950.85,-90.4,-1.6,-107.0,-0.61,-1.39,0.12,-0.07,-0.95,-0.08,-202.5,-57.7,-78.0,0.98,1.67,0.08,0.0,0.955928867646542,1.522694979304785,0.03270958533651691,0.28,0,2,0.0
7.6481646619995445,459,4950.86,-90.5,-1.6,-107.2,-0.74,-1.4,0.14,-0.07,-0.96,-0.06,-203.1,-66.6,-83.0,1.0,1.9,0.08,0.0,0.9644169222903547,1.5897169559390123,0.023737100078850104,0.28,0,2,0.0
7.655714750999323,460,4950.87,-90.6,-1.7,-107.3,-0.85,-1.44,0.21,-0.06,-0.96,-0.05,-203.9,-73.5,-75.0,1.02,2.09,0.0,0.0,0.96317184344228,1.685289292673516,0.024482535348386292,0.28,0,2,0.0
7.6680766379995475,461,4950.88,-90.7,-1.7,-107.5,-0.9,-1.48,0.25,-0.05,-0.98,-0.05,-204.7,-82.6,-83.0,1.05,2.34,0.06,0.0,0.98254770876533,1.7501142819827509,0.005004536624829581,0.28,0,2,0.0
7.675707661999695,462,4950.89,-90.8,-1.7,-107.6,-1.0,-1.51,0.36,-0.03,-1.0,-0.05,-205.5,-89.7,-72.0,1.07,2.52,-0.08,0.0,1.0016985574512922,1.8465372999211254,0.013863385819909979,0.28,0,2,0.0
7.6881083009993745,463,4950.9,-90.9,-1.8,-107.8,-1.04,-1.49,0.49,-0.02,-1.0,-0.04,-206.5,-96.2,-68.0,1.1,2.7,0.16,0.0,1.000999500499376,1.8819670560347226,0.012901042290633824,0.28,0,2,0.0
7.695690335999643,464,4950.91,-91.0,-1.8,-107.9,-1.09,-1.43,0.69,-0.01,-1.0,-0.03,-207.5,-103.4,-69.0,1.13,2.89,0.18,0.0,1.000499875062461,1.9259023858960245,0.012153388516644492,0.28,0,2,0.0
7.7079394859993045,465,4950.92,-91.1,-1.9,-108.0,-1.08,-1.35,0.89,0.0,-1.01,-0.03,-208.6,-109.2,-51.0,1.16,3.0,0.0,0.0,1.0104454463255301,1.9444793647657976,0.021656980584119356,0.28,0,2,0.0
7.71784436300004,466,4950.93,-91.3,-2.0,-108.2,-0.99,-1.21,1.04,0.01,-1.03,-0.03,-209.7,-111.8,-31.0,1.19,3.05,-0.01,0.0,1.0304853225543777,1.8777113729218344,0.04086291967670763,0.28,0,2,0.0
7.728123228999721,467,4950.94,-91.3,-2.1,-108.3,-0.79,-1.13,1.09,0.02,-1.05,-0.02,-210.8,-114.2,-28.0,1.22,3.13,0.06,0.0,1.050380883299006,1.757583568425695,0.0595433108129092,0.28,0,2,0.0
7.735689484999966,468,4950.95,-91.4,-2.1,-108.4,-0.56,-1.05,1.0,0.02,-1.05,-0.01,-212.0,-116.7,-32.0,1.25,3.21,0.0,0.0,1.0502380682492898,1.5543809056984714,0.05821248584792904,0.28,0,2,0.0
7.748163897999802,469,4950.96,-91.4,-2.2,-108.5,-0.5,-1.02,0.93,-0.01,-1.04,0.0,-213.2,-120.9,-39.0,1.28,3.34,0.0,0.0,1.0400480758118829,1.4680940024398983,0.04706204354231169,0.28,0,2,0.0
7.755703486999664,470,4950.97,-91.5,-2.3,-108.6,-0.88,-1.04,1.04,-0.02,-1.06,0.01,-214.4,-124.5,-31.0,1.32,3.41,0.09,0.0,1.0602358228243376,1.713942822850284,0.06590479474367106,0.28,0,2,0.0
7.768139198999961,471,4950.98,-91.5,-2.4,-108.7,-1.09,-1.09,1.11,0.0,-1.12,0.02,-215.7,-127.0,-33.0,1.35,3.5,-0.15,0.0,1.1201785571952358,1.8995525788985155,0.12333057853227791,0.28,0,2,0.0
7.7756934649996765,472,4950.99,-91.6,-2.5,-108.8,-0.85,-1.1,1.08,-0.02,-1.16,0.03,-217.0,-130.4,-27.0,1.39,3.56,0.06,0.0,1.1605602095539893,1.7603692794411065,0.16043798627321082,0.28,0,2,0.0
7.788180502999239,473,4951.0,-91.6,-2.6,-108.9,-0.61,-1.32,1.01,-0.06,-1.15,0.08,-218.3,-132.3,-21.0,1.42,3.61,-0.15,0.0,1.1543396380615194,1.7704801608603242,0.15113306648512603,0.28,0,2,0.0
7.795683100000133,474,4951.01,-91.6,-2.7,-109.1,-0.52,-1.68,0.82,-0.09,-1.13,0.09,-219.2,-132.9,-12.0,1.45,3.62,-0.08,0.0,1.137145549171257,1.9404123273160268,0.1312601980429664,0.28,0,2,0.0
7.807913777999602,475,4951.02,-91.7,-2.8,-109.3,-0.68,-2.1,0.57,-0.12,-1.09,0.09,-220.8,-132.1,-1.0,1.49,3.6,0.19,0.0,1.1002726934719411,2.279758759167294,0.09249959549677755,0.28,0,2,0.0
7.815740090999498,476,4951.03,-91.8,-2.8,-109.5,-0.95,-2.5,0.29,-0.14,-1.08,0.09,-222.1,-132.5,3.0,1.53,3.57,-0.04,0.0,1.092748827498799,2.6900929351975926,0.08327621493316273,0.28,0,2,0.0
7.827879864999886,477,4951.04,-91.8,-2.8,-109.8,-1.12,-2.89,0.02,-0.15,-1.09,0.1,-223.4,-132.1,-1.0,1.56,3.6,-0.09,0.0,1.1048076755707303,3.0994999596709145,0.09342836174499203,0.28,0,2,0.0
7.835743199999342,478,4951.05,-91.9,-2.8,-110.1,-1.01,-3.24,-0.21,-0.13,-1.09,0.1,-224.8,-133.5,-7.0,1.6,3.63,-0.08,0.0,1.1022703842524302,3.4002646955788607,0.08907324901815805,0.28,0,2,0.0
7.847826571000041,479,4951.06,-92.0,-2.8,-110.4,-0.79,-3.5,-0.33,-0.09,-1.07,0.09,-226.1,-135.4,-20.0,1.64,3.73,0.08,0.0,1.0775435026020992,3.6031930284124387,0.06305944002047048,0.28,0,2,0.0
7.8557606899994425,480,4951.07,-92.0,-2.8,-110.8,-0.57,-3.73,-0.36,-0.03,-1.03,0.1,-227.5,-138.9,-26.0,1.67,3.79,0.0,0.0,1.0352777405121776,3.7904353311987795,0.020377804371937813,0.28,0,2,0.0
7.867879587999596,481,4951.08,-92.0,-2.8,-111.2,-0.39,-3.94,-0.32,0.0,-0.99,0.09,-228.9,-142.7,-42.0,1.71,3.95,0.06,0.0,0.9940824915468535,3.9721656561628946,0.02040109570151849,0.28,0,2,0.0
7.8757096859999365,482,4951.09,-92.1,-2.8,-111.6,-0.17,-4.03,-0.27,0.03,-0.96,0.08,-230.4,-146.8,-37.0,1.75,4.02,0.08,0.0,0.9637945839233586,4.042610542706285,0.049675223258513146,0.28,0,2,0.0
7.88785611000003,483,4951.1,-92.0,-2.8,-112.0,-0.02,-4.0,-0.21,0.04,-0.94,0.07,-231.9,-151.4,-50.0,1.79,4.18,-0.14,0.0,0.9434511116109833,4.005558637693374,0.0686183216594708,0.28,0,2,0.0
7.895745359000102,484,4951.11,-92.0,-2.8,-112.4,0.04,-3.91,-0.17,0.04,-0.92,0.06,-233.4,-157.2,-54.0,1.84,4.34,-0.1,0.0,0.9228217596047463,3.913898312424583,0.08746272019239365,0.28,0,2,0.0
7.907801546999508,485,4951.12,-92.0,-2.8,-112.8,0.05,-3.84,-0.13,0.04,-0.91,0.06,-235.1,-163.4,-54.0,1.88,4.49,-0.14,0.0,0.9128526715741156,3.84252521136817,0.09548317205856383,0.28,0,2,0.0
7.915671322999515,486,4951.13,-92.0,-2.8,-113.1,0.09,-3.76,-0.11,0.05,-0.89,0.06,-236.8,-166.2,-28.0,1.93,4.53,0.0,0.0,0.893420393767682,3.762685211388271,0.11261714086769758,0.28,0,2,0.0
7.927822933999778,487,4951.14,-91.9,-2.8,-113.5,0.07,-3.64,-0.08,0.05,-0.87,0.05,-238.4,-165.6,2.0,1.97,4.47,0.07,0.0,0.8728688332160794,3.641551866992972,0.13050532739091425,0.28,0,2,0.0
7.935731311999916,488,4951.15,-91.9,-2.8,-113.9,-0.01,-3.48,0.0,0.06,-0.86,0.04,-240.1,-161.6,30.0,2.02,4.34,0.1,0.0,0.8630179604156567,3.480014367786432,0.13754907618751022,0.28,0,2,0.0
7.947862732999965,489,4951.16,-91.9,-2.8,-114.2,-0.15,-3.26,0.01,0.07,-0.89,0.03,-241.6,-155.8,57.0,2.06,4.14,0.14,0.0,0.8932524839036273,3.263464416842935,0.10516826164554882,0.28,0,2,0.0
7.955795484999726,490,4951.17,-91.9,-2.8,-114.5,-0.3,-3.05,0.0,0.07,-0.93,0.04,-243.1,-145.6,100.0,2.1,3.8,-0.06,0.0,0.9334880824091972,3.0647185841443907,0.06363400987717938,0.28,0,2,0.0
7.967814827999973,491,4951.18,-91.9,-2.8,-114.8,-0.42,-2.88,-0.11,0.08,-0.97,0.03,-244.5,-130.7,151.0,2.14,3.31,0.01,0.0,0.973755616158387,2.912541845192958,0.0228991466054298,0.28,0,2,0.0
7.975691793999431,492,4951.19,-92.0,-2.8,-115.1,-0.48,-2.73,-0.23,0.09,-0.99,0.03,-245.6,-110.8,186.0,2.16,2.76,0.01,0.0,0.9945350672550466,2.7814025239076776,0.0020773015985948717,0.28,0,2,0.0
7.987886373999572,493,4951.2,-92.0,-2.8,-115.4,-0.61,-2.64,-0.3,0.1,-1.0,0.02,-246.6,-87.9,212.0,2.19,2.14,0.0,0.0,1.005186549850325,2.7261144510089816,0.008402697376749813,0.28,0,2,0.0
7.995700138999382,494,4951.21,-92.1,-2.7,-115.6,-0.64,-2.52,-0.35,0.1,-1.0,0.01,-247.3,-66.7,205.0,2.2,1.58,0.0,0.0,1.0050373127401788,2.623451924468981,0.008088391061271571,0.28,0,2,0.0
8.00782597199941,495,4951.22,-92.1,-2.7,-115.9,-0.64,-2.4,-0.31,0.09,-0.99,0.0,-247.9,-44.7,216.0,2.21,0.94,-0.02,0.0,0.9940824915468535,2.50313803055285,0.0028091015294127164,0.28,0,2,0.0
8.015670285999477,496,4951.23,-92.2,-2.7,-116.1,-0.58,-2.19,-0.33,0.07,-1.01,-0.02,-248.1,-20.5,230.0,2.22,0.31,-0.03,0.0,1.0126203632161461,2.2894104044491455,0.015414194737082387,0.28,0,2,0.0
8.028084583999771,497,4951.24,-92.2,-2.6,-116.3,-0.51,-2.01,-0.43,0.04,-1.0,-0.02,-248.2,2.4,210.0,2.22,-0.25,0.0,0.0,1.000999500499376,2.1178054679313676,0.0037174653799059154,0.28,0,2,0.0
8.035800501999802,498,4951.25,-92.3,-2.5,-116.5,-0.84,-1.98,-0.54,0.0,-1.01,-0.01,-248.1,15.7,136.0,2.21,-0.51,-0.1,0.0,1.0100495037373167,2.2175662335091593,0.012512119245489783,0.28,0,2,0.0
8.047887209999317,499,4951.26,-92.3,-2.4,-116.7,-1.17,-2.04,-0.72,-0.01,-1.01,-0.01,-247.8,28.5,144.0,2.2,-0.94,-0.1,0.0,1.010099005048515,2.459451158287149,0.012310388145554296,0.28,0,2,0.0
8.055703985999571,500,4951.27,-92.4,-2.3,-116.9,-1.43,-2.16,-0.89,-0.01,-1.04,-0.01,-247.4,43.0,150.0,2.19,-1.38,0.03,0.0,1.040096149401583,2.739087439276081,0.04146138184864989,0.28,0,2,0.0
8.067834413000128,501,4951.28,-92.6,-2.2,-117.2,-1.38,-2.3,-1.01,0.0,-1.06,-0.01,-246.9,59.4,160.0,2.18,-1.81,0.0,0.0,1.0600471687618434,2.8660949042207235,0.060184153184732025,0.28,0,2,0.0
8.07570190199931,502,4951.29,-92.7,-2.1,-117.4,-1.23,-2.42,-1.03,0.0,-1.05,-0.03,-246.2,77.7,183.0,2.15,-2.35,0.07,0.0,1.0504284840006957,2.903480669816832,0.049554159055112734,0.28,0,2,0.0
8.087763376999646,503,4951.3,-92.8,-2.0,-117.7,-1.05,-2.52,-0.98,0.0,-1.04,-0.04,-245.2,98.3,206.0,2.13,-2.96,-0.09,0.0,1.0407689465006151,2.9005689097140928,0.03909672912393147,0.28,0,2,0.0
8.09584447799989,504,4951.31,-92.9,-1.9,-117.9,-0.98,-2.61,-0.9,0.01,-1.02,-0.05,-244.1,120.0,206.0,2.09,-3.5,-0.01,0.0,1.0212737145349429,2.9295904150580503,0.019209467215093978,0.28,0,2,0.0
8.107880541999293,505,4951.32,-92.9,-1.8,-118.2,-0.89,-2.63,-0.8,0.02,-1.02,-0.06,-242.8,141.5,215.0,2.05,-4.11,-0.01,0.0,1.0219589032832974,2.8894636180440134,0.01949676284417956,0.28,0,2,0.0
8.11584630499965,506,4951.33,-93.0,-1.7,-118.5,-0.81,-2.61,-0.73,0.02,-1.02,-0.07,-241.2,162.0,201.0,2.01,-4.64,-0.19,0.0,1.0225947388873071,2.828621572427107,0.019729946479225546,0.28,0,2,0.0
8.127904697999838,507,4951.34,-93.1,-1.6,-118.7,-0.73,-2.57,-0.7,0.03,-1.01,-0.07,-239.4,183.0,210.0,1.96,-5.23,-0.05,0.0,1.0128672173587216,2.7618472079389185,0.009802376451627293,0.28,0,2,0.0
8.135809560999405,508,4951.35,-93.2,-1.5,-119.0,-0.7,-2.53,-0.67,0.03,-1.0,-0.07,-237.5,204.3,215.0,1.9,-5.82,0.07,0.0,1.0028958071504734,2.7092065259038485,0.00016565308148841495,0.28,0,2,0.0
8.147815624000032,509,4951.36,-93.3,-1.4,-119.2,-0.58,-2.47,-0.7,0.03,-0.99,-0.08,-235.3,224.9,196.0,1.84,-6.33,0.11,0.0,0.9936800289831732,2.631976443663583,0.009193802623812863,0.28,0,2,0.0
8.155841474999761,510,4951.37,-93.3,-1.3,-119.5,-0.5,-2.4,-0.74,0.04,-0.98,-0.08,-232.9,240.6,158.0,1.77,-6.69,0.01,0.0,0.9840731680114034,2.5607811308270763,0.01842465032367091,0.28,0,2,0.0
8.167901678999442,511,4951.38,-93.4,-1.2,-119.7,-0.43,-2.34,-0.77,0.05,-0.98,-0.08,-230.4,252.1,124.0,1.7,-6.98,-0.08,0.0,0.9845303448853163,2.500679907545146,0.017608123980762946,0.28,0,2,0.0
8.175834398999541,512,4951.39,-93.4,-1.1,-120.0,-0.38,-2.32,-0.78,0.05,-0.97,-0.09,-227.8,261.9,98.0,1.63,-7.2,0.0,0.0,0.9754486147409304,2.4769335881286763,0.026156057042645897,0.28,0,2,0.0
8.18783061799968,513,4951.4,-93.5,-1.0,-120.2,-0.27,-2.27,-0.78,0.05,-0.98,-0.1,-225.2,268.4,70.0,1.56,-7.36,0.0,0.0,0.9863569333664157,2.415408868080102,0.014942783648817404,0.28,0,2,0.0
8.195833759999914,514,4951.41,-93.5,-0.9,-120.4,-0.17,-2.19,-0.76,0.05,-0.98,-0.11,-222.4,272.7,49.0,1.49,-7.46,-0.01,0.0,0.9874208829065749,2.324349371329534,0.013601257426484992,0.28,0,2,0.0
8.207625972999267,515,4951.42,-93.6,-0.8,-120.6,-0.1,-2.08,-0.72,0.06,-0.97,-0.12,-219.7,278.0,56.0,1.41,-7.62,0.08,0.0,0.9792343948207701,2.203361068912674,0.021351990602043958,0.28,0,2,0.0
8.219293621999896,516,4951.43,-93.6,-0.7,-120.8,0.0,-1.96,-0.69,0.07,-0.97,-0.13,-216.9,280.0,10.0,1.33,-7.57,0.17,0.0,0.981172767661231,2.0779076014106113,0.01902534540635137,0.28,0,2,0.0
8.22753238399946,517,4951.44,-93.6,-0.7,-121.0,0.08,-1.82,-0.66,0.08,-0.97,-0.14,-214.1,276.3,-26.0,1.26,-7.45,0.03,0.0,0.9833107342035883,1.9376274151652584,0.01654963128671416,0.28,0,2,0.0
8.235736375999295,518,4951.45,-93.6,-0.6,-121.2,0.13,-1.68,-0.61,0.08,-0.97,-0.14,-211.4,272.4,-25.0,1.18,-7.38,-0.11,0.0,0.9833107342035883,1.7920379460268132,0.016218638660979834,0.28,0,2,0.0
8.247844908999468,519,4951.46,-93.5,-0.6,-121.4,0.26,-1.53,-0.52,0.09,-0.97,-0.15,-208.7,270.3,-27.0,1.11,-7.3,0.17,0.0,0.9856469956328178,1.6367345539213132,0.013604729687115347,0.28,0,2,0.0
8.255771965999884,520,4951.47,-93.5,-0.5,-121.5,0.46,-1.36,-0.44,0.09,-0.97,-0.15,-206.0,263.3,-72.0,1.04,-7.03,0.06,0.0,0.9856469956328178,1.5015991475756771,0.013332635093373013,0.28,0,2,0.0
8.268199187999926,521,4951.48,-93.4,-0.5,-121.6,0.66,-1.19,-0.38,0.09,-0.98,-0.15,-203.4,253.3,-78.0,0.97,-6.81,0.23,0.0,0.9954898291795853,1.412834031300209,0.003420005515673341,0.28,0,2,0.0
8.277962524999566,522,4951.49,-93.4,-0.5,-121.8,0.8,-1.03,-0.33,0.09,-0.98,-0.15,-201.0,248.1,-50.0,0.9,-6.71,-0.08,0.0,0.9954898291795853,1.3452880732393342,0.0033516054053598365,0.28,0,2,0.0
8.287900592999904,523,4951.5,-93.3,-0.5,-121.9,0.92,-0.85,-0.26,0.08,-0.97,-0.16,-198.7,244.2,-59.0,0.84,-6.53,-0.01,0.0,0.9863569333664157,1.2792575972023774,0.012234811194158812,0.28,0,2,0.0
8.295776330999615,524,4951.51,-93.2,-0.4,-121.9,1.04,-0.66,-0.18,0.08,-0.98,-0.16,-196.1,235.9,-66.0,0.77,-6.34,-0.09,0.0,0.9961927524329817,1.244829305567635,0.0023510122850409765,0.28,0,2,0.0
8.30791138999939,525,4951.52,-93.1,-0.4,-122.0,1.17,-0.47,-0.1,0.07,-0.97,-0.16,-193.8,232.5,-31.0,0.71,-6.31,-0.12,0.0,0.9855962662266938,1.2648320046551635,0.012688548521502252,0.28,0,2,0.0
8.317987888999596,526,4951.53,-92.9,-0.4,-122.0,1.43,-0.28,0.0,0.08,-0.95,-0.17,-191.4,234.4,11.0,0.65,-6.42,0.02,0.0,0.9684007434941384,1.4571547618561316,0.029286389828976578,0.28,0,2,0.0
8.327701579999484,527,4951.54,-92.8,-0.4,-122.0,1.67,-0.07,0.13,0.09,-0.93,-0.18,-189.1,239.0,39.0,0.58,-6.56,-0.03,0.0,0.9515250916292224,1.6765142409177443,0.04523880086001475,0.28,0,2,0.0
8.335698787999718,528,4951.55,-92.6,-0.5,-122.0,1.82,0.15,0.28,0.1,-0.91,-0.18,-186.6,243.5,42.0,0.52,-6.68,0.11,0.0,0.9330058949438638,1.847511840286822,0.062482837594465934,0.28,0,2,0.0
8.347921881999355,529,4951.56,-92.4,-0.5,-122.0,1.88,0.4,0.43,0.11,-0.9,-0.18,-184.2,249.4,59.0,0.45,-6.87,-0.09,0.0,0.9243916918709298,1.9695938667654302,0.06967509985405185,0.28,0,2,0.0
8.355723179000051,530,4951.57,-92.2,-0.5,-122.0,1.87,0.62,0.5,0.12,-0.91,-0.19,-181.6,255.5,53.0,0.38,-6.99,-0.08,0.0,0.9373366524360391,2.0325599622151374,0.055595536503163734,0.28,0,2,0.0
8.3678171319998,531,4951.58,-92.0,-0.6,-121.9,1.82,0.84,0.55,0.12,-0.9,-0.19,-179.0,257.0,10.0,0.31,-6.95,0.03,0.0,0.9276313923105449,2.0785812469085734,0.06399478069608477,0.28,0,2,0.0
8.3756221929998,532,4951.59,-91.9,-0.6,-121.8,1.73,1.04,0.58,0.12,-0.9,-0.19,-176.5,252.9,-27.0,0.24,-6.82,0.09,0.0,0.9276313923105449,2.1002142747824566,0.06271488508216305,0.28,0,2,0.0
8.387895197999569,533,4951.6,-91.7,-0.7,-121.7,1.61,1.21,0.63,0.11,-0.9,-0.18,-174.0,249.8,-22.0,0.17,-6.77,0.0,0.0,0.9243916918709298,2.1102369535196757,0.06463549381134259,0.28,0,2,0.0
8.395757523999237,534,4951.61,-91.5,-0.8,-121.5,1.46,1.31,0.7,0.1,-0.9,-0.18,-171.5,246.3,-44.0,0.1,-6.61,0.02,0.0,0.9232551110067033,2.082714574779751,0.06445663318205774,0.28,0,2,0.0
8.407880458999898,535,4951.62,-91.4,-0.8,-121.4,1.28,1.41,0.74,0.07,-0.89,-0.17,-169.1,236.8,-90.0,0.04,-6.28,0.01,0.0,0.9087904048789248,2.0430614283471753,0.07734291252363956,0.28,0,2,0.0
8.415768203999505,536,4951.63,-91.3,-0.9,-121.2,1.07,1.44,0.81,0.05,-0.86,-0.15,-166.8,224.3,-112.0,-0.01,-5.95,0.37,0.0,0.8744140895479668,1.9684003657792792,0.10948484329750563,0.28,0,2,0.0
8.427839602999484,537,4951.64,-91.2,-1.0,-121.1,0.77,1.47,0.89,0.05,-0.87,-0.14,-164.7,211.1,-133.0,-0.07,-5.54,0.21,0.0,0.8826097665446491,1.8830560267819967,0.09926338297480697,0.28,0,2,0.0
8.437973592999697,538,4951.65,-91.1,-1.1,-121.0,0.36,1.47,0.91,0.05,-0.87,-0.14,-162.7,191.2,-202.0,-0.12,-4.87,0.27,0.0,0.8826097665446491,1.7659558318372517,0.09727811531531083,0.28,0,2,0.0
8.447917910999422,539,4951.66,-91.1,-1.2,-120.8,-0.05,1.42,0.85,0.05,-0.89,-0.13,-161.0,159.0,-322.0,-0.16,-3.79,0.14,0.0,0.9008329478876758,1.6557173671855954,0.07747383529283847,0.28,0,2,0.0
8.455745032999403,540,4951.67,-91.2,-1.2,-120.7,-0.33,1.35,0.8,0.03,-0.9,-0.14,-159.7,113.5,-426.0,-0.19,-2.47,0.35,0.0,0.9113177272499422,1.6035585427417363,0.06564927481196059,0.28,0,2,0.0
8.468052844999875,541,4951.68,-91.2,-1.3,-120.5,-0.49,1.3,0.78,0.02,-0.92,-0.15,-158.9,62.8,-486.0,-0.2,-1.06,-0.01,0.0,0.9323625904121207,1.593267083699403,0.043712323416786436,0.28,0,2,0.0
8.475661648999449,542,4951.69,-91.3,-1.4,-120.4,-0.58,1.26,0.76,0.02,-0.93,-0.16,-158.7,10.4,-496.0,-0.2,0.28,0.05,0.0,0.9438749917229505,1.5816447135814036,0.031555923663837415,0.28,0,2,0.0
8.487927813999704,543,4951.7,-91.3,-1.5,-120.3,-0.77,1.27,0.76,0.0,-0.94,-0.16,-158.8,-21.2,-314.0,-0.2,0.82,0.17,0.0,0.9535197952848173,1.6683524807426038,0.021472897699931215,0.28,0,2,0.0
8.49560657299935,544,4951.71,-91.4,-1.5,-120.1,-0.9,1.31,0.77,0.02,-0.95,-0.19,-159.2,-42.0,-250.0,-0.19,1.4,-0.14,0.0,0.9690201236300513,1.7660690813215663,0.00585311796760335,0.28,0,2,0.0
8.507977125999787,545,4951.72,-91.6,-1.6,-120.0,-1.49,1.52,0.71,-0.04,-1.04,-0.19,-159.7,-60.7,-195.0,-0.17,1.83,0.05,0.0,1.0579697538209683,2.2437914341578185,0.08143458197884734,0.28,0,2,0.0
8.515708859999904,546,4951.73,-91.7,-1.7,-119.8,-2.06,1.62,0.42,-0.06,-1.09,-0.17,-160.4,-73.6,-152.0,-0.15,2.18,-0.01,0.0,1.1048076755707303,2.654128858966723,0.12570705365403723,0.28,0,2,0.0
8.528134800999396,547,4951.74,-92.0,-1.7,-119.7,-2.16,1.67,0.17,-0.01,-1.08,-0.17,-161.3,-92.4,-191.0,-0.12,2.76,-0.15,0.0,1.0933434958877288,2.735580377177757,0.11195801649161496,0.28,0,2,0.0
8.535766057999354,548,4951.75,-92.3,-1.7,-119.5,-2.09,1.58,0.01,-0.03,-1.09,-0.16,-162.3,-108.2,-164.0,-0.09,3.15,0.17,0.0,1.1020889256316844,2.6200381676609217,0.11828937731085909,0.28,0,2,0.0
8.548300452999683,549,4951.76,-92.5,-1.7,-119.4,-1.94,1.32,-0.1,0.04,-0.98,-0.17,-163.5,-125.1,-161.0,-0.06,3.57,-0.02,0.0,0.9954396013822235,2.348616614094348,0.011407252000170343,0.28,0,2,0.0
8.55562148899935,550,4951.77,-92.7,-1.7,-119.2,-2.15,1.43,-0.23,0.04,-1.06,-0.14,-164.9,-138.1,-129.0,-0.02,3.87,-0.07,0.0,1.0699532700076206,2.592354142473593,0.08420250221305614,0.28,0,2,0.0
8.568180340999788,551,4951.78,-93.0,-1.6,-119.1,-2.54,1.33,-0.63,0.01,-1.06,-0.09,-166.3,-147.6,-100.0,0.01,4.1,0.06,0.0,1.0638608931622593,2.9355408360300492,0.07654792286034084,0.28,0,2,0.0
8.57571400300003,552,4951.79,-93.3,-1.5,-119.0,-2.92,1.25,-1.0,-0.02,-1.14,-0.04,-167.8,-151.5,-45.0,0.05,4.13,-0.16,0.0,1.1408768557561328,3.3299999999999996,0.15049260774513007,0.28,0,2,0.0
8.5878395310001,553,4951.8,-93.6,-1.3,-118.9,-3.19,1.08,-1.53,-0.02,-1.26,0.02,-169.3,-152.3,-19.0,0.09,4.14,-0.2,0.0,1.260317420335052,3.699108000586087,0.26453450887756824,0.28,0,2,0.0
8.595780804999777,554,4951.81,-93.9,-1.1,-118.8,-3.44,0.76,-2.25,-0.06,-1.38,0.1,-170.9,-153.6,-21.0,0.14,4.21,0.08,0.0,1.384918770181125,4.180155499499989,0.38135314154916844,0.28,1,3,3.0
8.607934570999532,555,4951.82,-94.2,-0.9,-118.7,-3.35,0.34,-2.87,-0.13,-1.42,0.09,-172.4,-156.6,-18.0,0.18,4.25,-0.07,0.0,1.428775699681374,4.424364361125788,0.41670586962842915,0.28,0,3,3.0
8.617949974999647,556,4951.83,-94.5,-0.6,-118.7,-2.35,0.06,-3.14,-0.11,-1.39,0.04,-173.8,-118.5,639.0,0.21,1.39,2.79,3.49,1.3949193525075203,3.9224609622021736,0.37519253200548386,0.28,0,3,3.0
8.627900969999246,557,4951.84,-94.6,-0.3,-118.8,-0.58,0.07,-2.88,0.03,-1.22,0.0,-174.0,34.3,1137.0,0.19,-2.35,3.25,3.49,1.2203687967167958,2.9386561554560955,0.19662913669046422,0.28,0,3,3.0
8.635812835999786,558,4951.85,-94.6,0.0,-118.7,0.33,0.64,-2.15,0.26,-1.08,-0.06,-173.0,120.9,794.0,0.16,-3.89,3.25,3.49,1.1124747188138706,2.2673773395709853,0.08696035761178833,0.28,0,3,3.0
8.647873593999975,559,4951.86,-94.6,0.1,-118.7,0.06,1.44,-1.43,0.4,-1.05,-0.16,-171.5,150.1,335.0,0.12,-3.99,3.44,3.49,1.134944932584837,2.030295544988463,0.10724195995509977,0.28,0,3,3.0
8.655750506999539,560,4951.87,-94.6,0.2,-118.5,-0.4,2.62,-0.92,0.44,-1.09,-0.17,-170.1,131.3,-81.0,0.08,-3.13,3.65,3.49,1.1876868274086398,2.8054946087989547,0.15678417768332453,0.28,0,3,3.0
8.668224925999311,561,4951.88,-94.6,0.3,-118.1,-0.58,3.78,-0.4,0.39,-1.12,-0.12,-169.1,91.6,-290.0,0.06,-2.01,3.68,3.49,1.192015100575492,3.845100778913343,0.15789020183317315,0.28,0,3,3.0
8.675736569000037,562,4951.89,-94.7,0.3,-117.7,-0.27,4.67,0.17,0.31,-1.16,-0.04,-168.5,44.8,-449.0,0.05,-0.53,3.86,3.49,1.2013742131409346,4.68088666814312,0.16390432811064337,0.28,0,3,3.0
8.687850337999407,563,4951.9,-94.7,0.3,-117.2,0.47,5.13,0.6,0.19,-1.14,0.01,-168.4,-0.3,-339.0,0.05,0.14,3.43,3.49,1.1557681428383462,5.18630889940042,0.11593229265189375,0.28,0,3,3.0
8.695703549999962,564,4951.91,-94.6,0.3,-116.7,1.25,5.36,0.87,0.09,-1.03,0.05,-168.4,0.6,-87.0,0.05,0.0,3.56,3.49,1.035132841716463,5.572162955262526,0.004608948300589777,0.28,0,3,3.0
8.707950749999327,565,4951.92,-94.4,0.3,-116.1,1.54,5.6,0.94,0.02,-0.96,0.06,-168.4,-0.7,-26.0,0.05,-0.02,3.19,3.49,0.9620810776644555,5.88346836483379,0.07610749810554518,0.28,0,3,3.0
8.715472586000033,566,4951.93,-94.2,0.2,-115.6,1.55,5.76,0.83,-0.05,-0.91,0.08,-168.4,-0.1,-15.0,0.05,0.02,3.63,3.49,0.9148770409186143,6.022374946812927,0.12084530415435857,0.28,0,3,3.0
8.72786197699952,567,4951.94,-94.1,0.2,-115.0,1.5,5.86,0.6,-0.11,-0.89,0.1,-168.4,-0.6,-3.0,0.05,0.0,3.85,3.49,0.9023303164584464,6.0786182640465265,0.13072418804223584,0.28,0,3,3.0
8.735763855999721,568,4951.95,-93.9,0.2,-114.4,1.47,5.83,0.33,-0.16,-0.88,0.11,-168.4,-0.3,-2.0,0.05,0.0,3.39,3.49,0.9011659114724657,6.021519741726336,0.12925082116765219,0.28,0,3,3.0
8.747901905999242,569,4951.96,-93.8,0.2,-113.8,1.46,5.68,0.13,-0.18,-0.86,0.11,-168.4,-0.9,-4.0,0.05,0.03,3.71,3.49,0.8854942122905152,5.866080463137204,0.14202406994261074,0.28,0,3,3.0
8.755757962999269,570,4951.97,-93.6,0.2,-113.2,1.54,5.42,0.0,-0.17,-0.84,0.1,-168.4,-0.5,2.0,0.05,0.0,3.49,3.49,0.8628441342444184,5.634536360695527,0.16138066502893333,0.28,0,3,3.0
8.76811908899981,571,4951.98,-93.5,0.3,-112.7,1.46,5.07,-0.09,-0.15,-0.85,0.1,-168.4,0.0,4.0,0.05,0.0,3.34,3.49,0.8689073598491382,5.276798271679523,0.15221109063572913,0.28,0,3,3.0
8.775636811999902,572,4951.99,-93.3,0.3,-112.2,1.19,4.67,-0.17,-0.13,-0.85,0.09,-168.4,-0.2,4.0,0.05,0.0,3.76,3.49,0.8645808232895291,4.822229774699666,0.15340687465143144,0.28,0,3,3.0
8.787951677999445,573,4952.0,-93.2,0.4,-111.8,0.84,4.28,-0.22,-0.12,-0.86,0.1,-168.4,0.0,4.0,0.05,-0.02,3.76,3.49,0.8740709353364863,4.367195896682447,0.1410384273523847,0.28,0,3,0.0
8.795776477999425,574,4952.01,-93.2,0.4,-111.8,0.84,4.28,-0.22,-0.12,-0.86,0.1,-168.4,0.1,2.0,0.05,0.0,3.52,3.49,0.8740709353364863,4.367195896682447,0.1382176588053371,0.28,0,3,0.0
8.807881287999408,575,4952.02,-93.2,0.4,-111.0,0.14,3.39,0.01,-0.1,-0.94,0.07,-168.4,-10.6,-265.0,0.06,1.6,0.36,0.0,0.9478923989567593,3.392904360573696,0.06310827128136276,0.28,0,3,0.0
8.81575487400005,576,4952.03,-93.2,0.4,-110.7,-0.13,3.12,0.2,-0.15,-1.0,0.05,-169.3,-121.6,-806.0,0.09,4.43,0.17,0.0,1.0124228365658292,3.12910530343739,0.0013937230011531465,0.28,0,3,0.0
8.827975298999263,577,4952.04,-93.2,0.4,-110.4,-0.25,2.51,0.44,-0.22,-0.99,0.1,-171.1,-198.1,-686.0,0.15,6.06,0.07,0.0,1.0190682018393078,2.5605077621440633,0.00787830650913901,0.28,0,3,0.0
8.835737103999236,578,4952.05,-93.2,0.4,-110.2,-0.14,2.0,0.75,-0.16,-0.94,0.05,-173.4,-244.9,-483.0,0.22,7.04,0.11,0.0,0.9548298277703728,2.140584032454694,0.05523286620860013,0.28,0,3,0.0
8.847963757999423,579,4952.06,-93.2,0.3,-110.0,-0.24,1.57,1.0,-0.09,-0.92,0.02,-176.1,-269.4,-288.0,0.29,7.51,-0.06,0.0,0.9246080250571049,1.876832437912346,0.08374557554343065,0.28,0,3,0.0
8.855787982000038,580,4952.07,-93.2,0.2,-109.9,-0.7,1.36,1.17,-0.04,-0.92,-0.01,-178.9,-281.9,-154.0,0.37,7.72,0.0,0.0,0.9209234495874237,1.9257466084612482,0.08568154799284966,0.28,0,3,0.0
8.867986337999355,581,4952.08,-93.3,0.0,-109.7,-1.13,1.36,1.25,0.0,-0.96,-0.05,-181.7,-282.4,-23.0,0.45,7.58,0.06,0.0,0.9613012014972206,2.165409891914231,0.04439772016139165,0.28,0,3,0.0
8.878044264999517,582,4952.09,-93.5,0.0,-109.6,-1.32,1.45,1.28,0.01,-1.02,-0.08,-184.4,-269.5,98.0,0.52,7.11,-0.01,0.0,1.0231813133555558,2.341644721130855,0.017132743863004674,0.28,0,3,0.0
8.88775613999951,583,4952.1,-93.6,-0.1,-109.4,-1.19,1.57,1.38,0.03,-1.06,-0.08,-187.0,-249.9,174.0,0.59,6.51,-0.3,0.0,1.063437821407533,2.40528584579879,0.05624146687668219,0.28,0,3,0.0
8.895778133000022,584,4952.11,-93.7,-0.2,-109.3,-0.82,1.7,1.48,0.05,-1.07,-0.1,-189.3,-226.0,225.0,0.65,5.82,-0.05,0.0,1.0758252646224664,2.398499530956802,0.0672563318897832,0.28,0,3,0.0
8.908008900999448,585,4952.12,-93.8,-0.3,-109.1,-0.31,1.92,1.55,0.07,-1.06,-0.11,-191.4,-198.3,268.0,0.7,5.02,-0.07,0.0,1.067988763985839,2.486966023089178,0.05823143462809255,0.28,0,3,0.0
8.91568768399975,586,4952.13,-93.8,-0.4,-108.8,0.1,2.2,1.59,0.07,-1.02,-0.12,-193.2,-168.5,295.0,0.74,4.18,-0.11,0.0,1.029417310909429,2.7162658190979765,0.0192667819206489,0.28,0,3,0.0
8.92794835099994,587,4952.14,-93.8,-0.5,-108.6,0.39,2.52,1.56,0.05,-0.99,-0.13,-194.6,-135.5,313.0,0.78,3.31,-0.18,0.0,0.999749968742185,2.989331028842406,0.010192549041663113,0.28,0,3,0.0
8.937944059000074,588,4952.15,-93.8,-0.6,-108.3,0.54,2.88,1.52,0.02,-0.96,-0.13,-195.8,-103.6,323.0,0.81,2.4,-0.01,0.0,0.9689685237405805,3.300969554539999,0.04015451416240223,0.28,0,3,0.0
8.947941151000123,589,4952.16,-93.8,-0.7,-108.0,0.58,3.17,1.52,-0.01,-0.95,-0.12,-196.6,-67.6,347.0,0.82,1.4,-0.13,0.0,0.957601169589929,3.5631025806170666,0.05049143094679265,0.28,0,3,0.0
8.955745216999276,590,4952.17,-93.8,-0.9,-107.7,0.71,3.41,1.47,-0.05,-0.98,-0.12,-197.0,-31.6,352.0,0.83,0.43,-0.22,0.0,0.9885848471426213,3.780621642005452,0.0191175983262184,0.28,0,3,0.0
8.967986390000078,591,4952.18,-93.7,-1.0,-107.3,0.87,3.5,1.4,-0.08,-0.98,-0.11,-197.1,0.8,303.0,0.83,-0.29,-0.14,0.0,0.9893937537704591,3.8687077946001556,0.017942517864413032,0.28,0,3,0.0
8.975711615999899,592,4952.19,-93.7,-1.2,-106.9,1.0,3.51,1.28,-0.1,-0.99,-0.11,-197.0,13.6,142.0,0.82,-0.4,-0.09,0.0,1.0010993956645864,3.8676220084180923,0.006112138450879989,0.28,0,3,0.0
8.987949749999643,593,4952.2,-93.6,-1.3,-106.6,1.13,3.43,1.14,-0.11,-0.97,-0.11,-196.8,15.1,46.0,0.82,-0.39,-0.01,0.0,0.9823950325607311,3.7870040929473525,0.02432017152364052,0.28,0,3,0.0
8.997842246999426,594,4952.21,-93.5,-1.4,-106.2,1.16,3.32,0.96,-0.12,-0.95,-0.11,-196.7,14.7,5.0,0.82,-0.35,0.12,0.0,0.9638464608017192,3.6454903648206227,0.04201136841699937,0.28,0,3,0.0
9.007698875999267,595,4952.22,-93.4,-1.5,-105.9,1.07,3.16,0.75,-0.12,-0.94,-0.11,-196.6,7.8,-59.0,0.81,-0.09,0.04,0.0,0.9539916142189091,3.4195028878478815,0.050828890699813334,0.28,0,3,0.0
9.015669477999836,596,4952.23,-93.3,-1.5,-105.6,0.98,2.95,0.54,-0.12,-0.94,-0.11,-196.5,-0.9,-64.0,0.82,0.08,-0.06,0.0,0.9539916142189091,3.155075276439534,0.049812312885817,0.28,0,3,0.0
9.027866587000062,597,4952.24,-93.2,-1.5,-105.3,0.95,2.73,0.35,-0.1,-0.95,-0.11,-196.6,-1.7,-8.0,0.82,0.0,-0.01,0.0,0.9615612304996495,2.911683361905961,0.04139784267297508,0.28,0,3,0.0
9.035710225999537,598,4952.25,-93.2,-1.6,-105.1,0.97,2.48,0.17,-0.1,-0.96,-0.1,-196.6,-0.8,-8.0,0.82,0.03,0.1,0.0,0.9703607576566563,2.668370289146542,0.03194634920564898,0.28,0,3,0.0
9.047936005999873,599,4952.26,-93.1,-1.6,-104.8,1.14,2.21,0.0,-0.11,-0.98,-0.09,-196.6,-1.6,-3.0,0.82,0.04,-0.11,0.0,0.9902524930541705,2.4867046467162117,0.011813521531972127,0.28,0,3,0.0
9.057958349999353,600,4952.27,-93.0,-1.7,-104.6,1.33,1.92,-0.15,-0.12,-0.97,-0.08,-196.6,-2.4,-7.0,0.82,0.08,0.06,0.0,0.9806630410084801,2.3404700382615453,0.020974914106109188,0.28,0,3,0.0
9.068087461999312,601,4952.28,-92.9,-1.7,-104.4,1.5,1.58,-0.29,-0.12,-0.96,-0.09,-196.6,-3.5,-11.0,0.82,0.11,-0.08,0.0,0.9716480844420988,2.1978398485785995,0.02939007325904075,0.28,0,3,0.0
9.075795922999532,602,4952.29,-92.7,-1.6,-104.3,1.56,1.24,-0.4,-0.12,-0.94,-0.1,-196.7,-4.4,-2.0,0.82,0.1,0.0,0.0,0.9528903399657276,2.032535362546,0.04718486138070377,0.28,0,3,0.0
9.088014703999761,603,4952.3,-92.6,-1.6,-104.2,1.49,0.93,-0.54,-0.12,-0.93,-0.11,-196.7,-4.2,-4.0,0.82,0.13,0.09,0.0,0.9441398201537736,1.837552720332127,0.0548166735688046,0.28,0,3,0.0
9.097875123999984,604,4952.31,-92.4,-1.5,-104.1,1.32,0.62,-0.72,-0.13,-0.93,-0.11,-196.8,-7.2,-37.0,0.82,0.28,0.05,0.0,0.9454628496138809,1.626407083112958,0.05242377122652331,0.28,0,3,0.0
9.108270086999255,605,4952.32,-92.3,-1.4,-104.1,1.1,0.29,-0.89,-0.13,-0.93,-0.11,-196.9,-15.4,-69.0,0.83,0.52,0.18,0.0,0.9454628496138809,1.4443683740652868,0.05137529580199285,0.28,0,3,0.0
9.115786871999262,606,4952.33,-92.2,-1.3,-104.1,0.92,-0.08,-1.01,-0.14,-0.92,-0.12,-197.1,-23.7,-70.0,0.83,0.71,-0.08,0.0,0.938296328459192,1.3685393673548452,0.057370980617548195,0.28,0,3,0.0
9.127888381999583,607,4952.34,-92.1,-1.2,-104.1,0.82,-0.37,-1.0,-0.13,-0.91,-0.14,-197.4,-31.2,-80.0,0.84,0.96,0.16,0.0,0.9298386956886662,1.3451022265984098,0.0645120411203125,0.28,0,3,0.0
9.135768579999421,608,4952.35,-92.0,-1.1,-104.2,0.81,-0.58,-0.95,-0.11,-0.91,-0.14,-197.8,-39.4,-83.0,0.85,1.17,0.0,0.0,0.9272540105062905,1.3765899897936205,0.06575479177663435,0.28,0,3,0.0
9.147940617999666,609,4952.36,-92.0,-1.1,-104.2,0.72,-0.74,-0.89,-0.1,-0.91,-0.14,-198.2,-47.2,-72.0,0.87,1.36,0.08,0.0,0.9261209424259879,1.3631214179228495,0.06555010265979833,0.28,0,3,0.0
9.15805052199994,610,4952.37,-91.9,-1.0,-104.3,0.5,-0.89,-0.82,-0.09,-0.9,-0.12,-198.8,-55.2,-81.0,0.88,1.6,-0.09,0.0,0.9124143795447329,1.3093891705677116,0.07767153223023215,0.28,0,3,0.0
9.16799553599958,611,4952.38,-91.9,-0.9,-104.4,0.26,-0.93,-0.75,-0.07,-0.9,-0.12,-199.4,-65.1,-96.0,0.9,1.89,0.07,0.0,0.910659101969557,1.2227019260637484,0.07783827360929985,0.28,0,3,0.0
9.175903403999655,612,4952.39,-91.9,-0.8,-104.5,0.0,-0.86,-0.69,-0.04,-0.9,-0.13,-200.1,-74.9,-98.0,0.92,2.16,-0.08,0.0,0.9102197536858888,1.1025878649794763,0.07671206945510867,0.28,0,3,0.0
9.188117513999714,613,4952.4,-91.9,-0.8,-104.6,-0.17,-0.69,-0.61,-0.02,-0.9,-0.13,-200.9,-84.1,-85.0,0.94,2.38,0.08,0.0,0.9095603333479314,0.9365361712181756,0.07582405999720476,0.28,0,3,0.0
9.195742973999586,614,4952.41,-92.0,-0.7,-104.6,-0.24,-0.37,-0.52,-0.01,-0.91,-0.14,-201.8,-92.8,-88.0,0.97,2.63,-0.06,0.0,0.9207605551933684,0.6818357573492314,0.06333136138873241,0.28,0,3,0.0
9.208244274999743,615,4952.42,-92.1,-0.7,-104.7,-0.22,-0.05,-0.43,0.0,-0.92,-0.13,-202.8,-100.5,-76.0,1.0,2.81,0.0,0.0,0.9291393867445293,0.4855924216871593,0.05385347924082007,0.28,0,3,0.0
9.21786422399964,616,4952.43,-92.2,-0.6,-104.7,-0.03,0.13,-0.42,0.0,-0.93,-0.12,-203.7,-105.2,-54.0,1.03,2.92,0.17,0.0,0.937709976485267,0.4406812907306141,0.04437723171008079,0.28,0,3,0.0
9.228147998999702,617,4952.44,-92.2,-0.6,-104.7,0.16,0.01,-0.52,-0.02,-0.91,-0.13,-204.9,-109.9,-46.0,1.06,3.04,-0.06,0.0,0.9194563611178075,0.5441507144165116,0.06137823013598953,0.28,0,3,0.0
9.235743338999782,618,4952.45,-92.2,-0.5,-104.7,0.23,-0.3,-0.67,-0.05,-0.9,-0.13,-206.1,-114.9,-47.0,1.09,3.16,-0.04,0.0,0.9107140056021978,0.7692853826766761,0.06871817393856716,0.28,0,3,0.0
9.247890378999728,619,4952.46,-92.2,-0.5,-104.7,-0.09,-0.76,-0.69,-0.09,-0.89,-0.12,-207.3,-120.4,-59.0,1.12,3.34,0.1,0.0,0.9025519375637061,1.0304368005850721,0.07534263713751777,0.28,0,3,0.0
9.25576687299963,620,4952.47,-92.3,-0.4,-104.8,-1.08,-1.28,-0.5,-0.1,-0.92,-0.13,-208.5,-128.6,-79.0,1.16,3.61,-0.04,0.0,0.9345052166788584,1.7477986154016716,0.0425215708619181,0.28,0,3,0.0
9.267575574999682,621,4952.48,-92.4,-0.4,-105.0,-1.73,-1.62,-0.07,-0.11,-0.97,-0.14,-209.9,-138.3,-90.0,1.19,3.87,0.19,0.0,0.9862048468751307,2.371117879819559,0.008994498147667063,0.28,0,3,0.0
9.277425516999756,622,4952.49,-92.6,-0.4,-105.2,-1.88,-1.71,0.52,-0.08,-1.07,-0.16,-211.3,-149.3,-102.0,1.24,4.18,-0.08,0.0,1.084850220076486,2.594012336131037,0.10548707392204193,0.28,0,3,0.0
9.287703762000092,623,4952.5,-92.8,-0.5,-105.3,-1.1,-1.7,0.94,-0.07,-1.13,-0.18,-212.9,-160.5,-110.0,1.28,4.5,-0.02,0.0,1.1463856244737194,2.2323978140107554,0.16368202875288984,0.28,0,3,0.0
9.295869345000028,624,4952.51,-92.8,-0.6,-105.5,-0.27,-1.76,1.05,-0.1,-1.13,-0.15,-214.6,-173.7,-132.0,1.33,4.9,0.18,0.0,1.1442901729893513,2.0671236053995417,0.15835484572315128,0.28,0,3,0.0
9.30793518199971,625,4952.52,-92.9,-0.8,-105.7,-0.19,-2.01,1.04,-0.11,-1.09,-0.08,-216.4,-189.5,-146.0,1.38,5.33,0.16,0.0,1.098453458276681,2.2710790386950426,0.1102677683902713,0.28,0,3,0.0
9.319889286000034,626,4952.53,-92.9,-0.9,-105.9,-0.81,-2.28,1.1,-0.08,-1.1,-0.05,-218.4,-203.7,-142.0,1.44,5.7,0.06,0.0,1.1040380428228005,2.657912714894904,0.11353530587766303,0.28,0,3,0.0
9.32789464599955,627,4952.54,-93.0,-1.1,-106.1,-1.47,-2.24,1.19,-0.02,-1.19,-0.05,-220.6,-216.1,-125.0,1.49,6.01,0.09,0.0,1.191217864204529,2.9316548227920696,0.1967008247142037,0.28,0,3,0.0
9.335844455999904,628,4952.55,-93.2,-1.2,-106.3,-1.91,-2.08,1.38,0.02,-1.3,-0.01,-222.8,-228.3,-123.0,1.56,6.36,-0.06,0.0,1.3001922934704697,3.143071745919905,0.29956174890054155,0.28,1,4,3.0
9.347813409000082,629,4952.56,-93.3,-1.3,-106.5,-1.68,-1.74,1.77,0.04,-1.37,0.0,-225.2,-239.8,-114.0,1.62,6.64,0.1,0.0,1.3705838172107536,2.9971486449624085,0.362554207188009,0.28,0,4,3.0
9.355882273999669,630,4952.57,-93.4,-1.5,-106.6,-1.05,-1.15,2.45,0.09,-1.41,0.0,-227.5,-215.7,509.0,1.68,4.2,2.76,3.49,1.412869420717994,2.9030156733989574,0.3967430144813444,0.28,0,4,3.0
9.367882269999427,631,4952.58,-93.5,-1.8,-106.7,0.0,-0.64,3.07,0.18,-1.44,0.04,-228.7,-67.2,1149.0,1.69,0.16,3.17,3.49,1.4517575555167603,3.136000637755037,0.42691852629450855,0.28,0,4,3.0
