host_time_s,seq,device_time_s,roll,pitch,yaw,gyro_x,gyro_y,gyro_z,accel_x,accel_y,accel_z,belt_length,belt_velocity,belt_acceleration,motor_pos,motor_vel,motor_iq_meas,motor_iq_set,acc_mag,gyro_mag,acc_residual,threshold,heel_strike,hs_count,torque_cmd_nm
3.0692319729987503,1,114.98,103.2,4.5,-6.6,0.09,0.05,-0.02,0.08,0.96,-0.22,-38.4,0.0,0.0,-3.47,0.0,0.11,0.0,0.98812954616285,0.10488088481701516,0.0,0.35,0,0,0.0
3.078628678998939,2,114.99,103.2,4.5,-6.6,0.08,0.07,-0.01,0.07,0.96,-0.22,-38.4,0.0,-3.0,-3.47,0.01,0.07,0.0,0.9873702446397704,0.10677078252031312,0.0007441154926179916,0.35,0,0,0.0
3.106475495000268,5,115.02,103.2,4.5,-6.6,0.04,0.07,0.01,0.07,0.96,-0.22,-38.4,0.2,5.0,-3.47,-0.01,0.02,0.0,0.9873702446397704,0.08124038404635961,0.0007292331827656318,0.35,0,0,0.0
3.117135820999465,6,115.03,103.2,4.5,-6.6,0.04,0.06,0.03,0.07,0.96,-0.22,-38.4,0.2,0.0,-3.47,0.0,-0.07,0.0,0.9873702446397704,0.07810249675906654,0.0007146485191102947,0.35,0,0,0.0
3.126525338999272,7,115.04,103.2,4.5,-6.6,0.06,0.05,0.04,0.07,0.96,-0.22,-38.4,0.0,-4.0,-3.47,0.01,-0.03,0.0,0.9873702446397704,0.08774964387392122,0.0007003555487280488,0.35,0,0,0.0
3.1347045469992736,8,115.05,103.2,4.5,-6.6,0.07,0.02,0.04,0.07,0.96,-0.22,-38.4,-0.3,6.0,-3.47,-0.02,0.03,0.0,0.9873702446397704,0.08306623862918075,0.0006863484377535034,0.35,0,0,0.0
3.1476176619999023,9,115.06,103.2,4.5,-6.6,0.1,0.01,0.04,0.07,0.96,-0.22,-38.4,0.4,0.0,-3.47,0.0,0.22,0.0,0.9873702446397704,0.10816653826391968,0.00067262146899838,0.35,0,0,0.0
3.157250802998533,10,115.07,103.2,4.5,-6.6,0.12,0.0,0.03,0.07,0.96,-0.22,-38.4,-0.3,0.0,-3.47,0.0,0.07,0.0,0.9873702446397704,0.12369316876852982,0.0006591690396183791,0.35,0,0,0.0
3.1665517740002542,11,115.08,103.2,4.5,-6.6,0.16,0.0,0.02,0.07,0.96,-0.22,-38.4,0.1,-1.0,-3.47,0.0,-0.2,0.0,0.9873702446397704,0.161245154965971,0.0006459856588260093,0.35,0,0,0.0
3.177110829999947,12,115.09,103.3,4.5,-6.6,0.17,0.0,0.02,0.07,0.96,-0.23,-38.4,0.0,1.0,-3.47,0.0,-0.25,0.0,0.9896464014990405,0.17117242768623692,0.0015975677764351603,0.35,0,0,0.0
3.186621490000107,13,115.1,103.3,4.5,-6.6,0.18,0.01,0.01,0.07,0.96,-0.23,-38.4,-0.1,0.0,-3.47,0.0,-0.01,0.0,0.9896464014990405,0.18055470085267789,0.0015656164209064682,0.35,0,0,0.0
3.1973603909991652,14,115.11,103.3,4.5,-6.6,0.17,0.01,0.0,0.07,0.97,-0.22,-38.4,0.0,1.0,-3.47,0.0,0.07,0.0,0.9970957827611147,0.17029386365926402,0.008834697729320995,0.35,0,0,0.0
3.2066526009984955,15,115.12,103.3,4.5,-6.6,0.16,0.0,0.0,0.07,0.97,-0.22,-38.4,0.0,-1.0,-3.47,0.0,-0.01,0.0,0.9970957827611147,0.16,0.00865800377473458,0.35,0,0,0.0
3.217258013999526,16,115.13,103.3,4.5,-6.6,0.15,0.0,0.01,0.07,0.97,-0.23,-38.4,0.0,6.0,-3.47,-0.02,-0.07,0.0,0.9993497886125758,0.15033296378372907,0.01069376943367184,0.35,0,0,0.0
3.2266652899998007,17,115.14,103.3,4.5,-6.6,0.13,0.0,0.02,0.07,0.97,-0.22,-38.4,0.1,-5.0,-3.47,0.01,-0.26,0.0,0.9970957827611147,0.13152946437965907,0.008270968310566396,0.35,0,0,0.0
3.237341338999613,18,115.15,103.4,4.5,-6.6,0.13,0.0,0.0,0.07,0.96,-0.23,-38.4,-0.1,1.0,-3.47,0.0,-0.07,0.0,0.9896464014990405,0.13,0.0008051553075223428,0.35,0,0,0.0
3.246604185000251,19,115.16,103.4,4.5,-6.6,0.12,0.01,0.0,0.07,0.96,-0.23,-38.4,-0.1,3.0,-3.47,-0.01,-0.2,0.0,0.9896464014990405,0.12041594578792295,0.0007890522013719314,0.35,0,0,0.0
3.2571528919997945,20,115.17,103.4,4.5,-6.6,0.12,0.03,0.0,0.07,0.96,-0.23,-38.4,0.3,0.0,-3.47,0.0,0.16,0.0,0.9896464014990405,0.12369316876852982,0.0007732711573444906,0.35,0,0,0.0
3.2666111509988696,21,115.18,103.4,4.5,-6.6,0.13,0.04,0.0,0.08,0.96,-0.23,-38.4,0.0,4.0,-3.47,-0.02,-0.29,0.0,0.9904039579888602,0.13601470508735444,0.001500211094220938,0.35,0,0,0.0
3.2772837020002044,22,115.19,103.4,4.5,-6.6,0.12,0.04,0.0,0.07,0.97,-0.23,-38.4,-0.1,-1.0,-3.47,0.0,-0.02,0.0,0.9993497886125758,0.12649110640673517,0.010237120883577866,0.35,0,0,0.0
3.28655044199877,23,115.2,103.4,4.5,-6.6,0.11,0.05,0.0,0.07,0.97,-0.23,-38.4,0.0,-3.0,-3.47,0.01,0.07,0.0,0.9993497886125758,0.12083045973594572,0.010032378465906322,0.35,0,0,0.0
3.297298317998866,24,115.21,103.4,4.5,-6.6,0.1,0.05,0.0,0.07,0.97,-0.23,-38.4,0.1,0.0,-3.47,0.0,0.19,0.0,0.9993497886125758,0.1118033988749895,0.009831730896588176,0.35,0,0,0.0
3.3066752319991792,25,115.22,103.4,4.5,-6.6,0.09,0.05,0.0,0.07,0.97,-0.23,-38.4,0.0,-2.0,-3.47,0.01,0.07,0.0,0.9993497886125758,0.10295630140987,0.009635096278656441,0.35,0,0,0.0
3.3172570949991496,26,115.23,103.4,4.5,-6.7,0.05,0.03,0.01,0.07,0.97,-0.23,-38.4,0.0,6.0,-3.47,-0.01,0.07,0.0,0.9993497886125758,0.05916079783099616,0.009442394353083361,0.35,0,0,0.0
3.3266341109992936,27,115.24,103.4,4.5,-6.7,0.0,0.0,0.0,0.07,0.97,-0.23,-38.4,-0.4,-5.0,-3.47,0.01,-0.02,0.0,0.9993497886125758,0.0,0.009253546466021723,0.35,0,0,0.0
3.3373227289994247,28,115.25,103.4,4.5,-6.7,-0.05,0.0,0.02,0.07,0.97,-0.22,-38.4,0.3,2.0,-3.47,0.0,0.01,0.0,0.9970957827611147,0.05385164807134505,0.006859549802269327,0.35,0,0,0.0
3.346476521999648,29,115.26,103.4,4.5,-6.7,-0.11,-0.02,0.03,0.07,0.97,-0.22,-38.4,-0.2,1.0,-3.47,0.0,-0.26,0.0,0.9970957827611147,0.11575836902790225,0.00672235880622396,0.35,0,0,0.0
3.3573481799994624,30,115.27,103.4,4.5,-6.6,-0.12,-0.04,0.03,0.07,0.97,-0.22,-38.4,0.2,0.0,-3.47,0.0,0.16,0.0,0.9970957827611147,0.13,0.00658791163009953,0.35,0,0,0.0
3.366575281999758,31,115.28,103.4,4.5,-6.6,-0.15,-0.06,0.03,0.07,0.96,-0.22,-38.4,-0.1,-1.0,-3.47,0.0,0.16,0.0,0.9873702446397704,0.16431676725154984,0.0030748739614198106,0.35,0,0,0.0
3.3771471949985425,32,115.29,103.4,4.5,-6.6,-0.18,-0.06,0.01,0.07,0.96,-0.22,-38.4,0.1,-1.0,-3.47,0.01,-0.25,0.0,0.9873702446397704,0.19,0.0030133764821914655,0.35,0,0,0.0
3.3865822480001952,33,115.3,103.3,4.5,-6.6,-0.2,-0.06,0.0,0.07,0.96,-0.22,-38.4,-0.3,-1.0,-3.47,0.0,-0.11,0.0,0.9873702446397704,0.208806130178211,0.002953108952547634,0.35,0,0,0.0
3.3972600259985484,34,115.31,103.3,4.5,-6.6,-0.21,-0.05,-0.01,0.07,0.96,-0.22,-38.4,0.1,0.0,-3.47,0.0,-0.17,0.0,0.9873702446397704,0.21610182784974308,0.0028940467734966946,0.35,0,0,0.0
3.406638218999433,35,115.32,103.3,4.5,-6.6,-0.23,-0.04,-0.03,0.08,0.96,-0.22,-38.4,-0.2,0.0,-3.47,0.0,0.16,0.0,0.98812954616285,0.2353720459187964,0.0020920503454088246,0.35,0,0,0.0
3.41720479399919,36,115.33,103.3,4.5,-6.6,-0.24,-0.04,-0.04,0.08,0.96,-0.22,-38.4,0.2,0.0,-3.47,0.0,-0.07,0.0,0.98812954616285,0.24657656011875903,0.0020502093385006415,0.35,0,0,0.0
3.426573610999185,37,115.34,103.2,4.5,-6.6,-0.22,-0.02,-0.04,0.08,0.96,-0.22,-38.4,0.0,0.0,-3.47,0.0,-0.3,0.0,0.98812954616285,0.22449944320643647,0.002009205151730642,0.35,0,0,0.0
3.437180023998735,38,115.35,103.2,4.5,-6.6,-0.23,0.0,-0.03,0.08,0.96,-0.22,-38.4,0.0,-5.0,-3.47,0.02,0.03,0.0,0.98812954616285,0.23194827009486405,0.001969021048696007,0.35,0,0,0.0
3.4465642939994723,39,115.36,103.2,4.5,-6.6,-0.23,0.01,-0.01,0.08,0.95,-0.22,-38.4,-0.2,4.0,-3.47,-0.02,-0.15,0.0,0.978417088975862,0.23043437243605827,0.011447848670970262,0.35,0,0,0.0
3.4571348529989336,40,115.37,103.2,4.5,-6.6,-0.18,0.03,0.0,0.08,0.95,-0.22,-38.4,0.0,-5.0,-3.47,0.01,-0.02,0.0,0.978417088975862,0.18248287590894657,0.011218891697550859,0.35,0,0,0.0
3.4665574849987024,41,115.38,103.2,4.5,-6.6,-0.1,0.07,0.0,0.08,0.94,-0.22,-38.4,0.0,3.0,-3.47,-0.01,-0.13,0.0,0.9687104830649867,0.12206555615733704,0.02050698765625758,0.35,0,0,0.0
3.477231442999255,42,115.39,103.2,4.5,-6.6,-0.01,0.09,0.0,0.08,0.94,-0.22,-38.4,0.0,0.0,-3.47,0.0,-0.2,0.0,0.9687104830649867,0.09055385138137416,0.020096847903132375,0.35,0,0,0.0
3.4866685019987926,43,115.4,103.2,4.5,-6.6,0.03,0.09,-0.02,0.07,0.95,-0.23,-38.4,0.0,0.0,-3.47,0.0,-0.26,0.0,0.9799489782636644,0.09695359714832658,0.008681185650365575,0.35,0,0,0.0
3.4971260579986847,44,115.41,103.2,4.5,-6.7,0.02,0.1,-0.03,0.07,0.96,-0.23,-38.4,0.0,-3.0,-3.47,0.01,0.01,0.0,0.9896464014990405,0.1063014581273465,0.0009959128333102418,0.35,0,0,0.0
3.5065900509998755,45,115.42,103.2,4.5,-6.7,-0.01,0.08,-0.02,0.07,0.97,-0.23,-38.4,0.6,2.0,-3.47,0.0,-0.02,0.0,0.9993497886125758,0.08306623862918075,0.010485313947908637,0.35,0,0,0.0
3.5172334069993667,46,115.43,103.2,4.5,-6.7,-0.07,0.05,0.0,0.06,0.96,-0.23,-38.4,-0.4,0.0,-3.47,0.0,0.03,0.0,0.9889893831583836,0.08602325267042628,0.0001224103238420815,0.35,0,0,0.0
3.5266487289991346,47,115.44,103.2,4.5,-6.7,-0.07,0.02,0.0,0.06,0.96,-0.23,-38.4,-0.2,1.0,-3.47,0.0,-0.03,0.0,0.9889893831583836,0.07280109889280519,0.00011996211736520213,0.35,0,0,0.0
3.537241541000185,48,115.45,103.2,4.5,-6.7,-0.09,-0.02,0.0,0.06,0.95,-0.23,-38.4,0.1,3.0,-3.47,0.0,-0.02,0.0,0.9792854537876073,0.09219544457292887,0.009392287908342789,0.35,0,0,0.0
3.546661440999742,49,115.46,103.1,4.5,-6.7,-0.11,-0.07,-0.03,0.06,0.95,-0.23,-38.4,-0.1,-3.0,-3.47,0.0,-0.05,0.0,0.9792854537876073,0.13379088160259653,0.009204442150175907,0.35,0,0,0.0
3.5572389619992464,50,115.47,103.1,4.5,-6.7,-0.12,-0.11,-0.07,0.06,0.95,-0.23,-38.4,0.0,-5.0,-3.47,0.02,-0.07,0.0,0.9792854537876073,0.1772004514666935,0.009020353307172435,0.35,0,0,0.0
3.5664820309993956,51,115.48,103.1,4.5,-6.6,-0.12,-0.15,-0.11,0.06,0.95,-0.23,-38.4,0.0,4.0,-3.47,-0.01,0.03,0.0,0.9792854537876073,0.22135943621178655,0.008839946241029017,0.35,0,0,0.0
3.577074969000023,52,115.49,103.1,4.4,-6.6,-0.1,-0.16,-0.14,0.06,0.96,-0.24,-38.4,-0.5,-6.0,-3.47,0.02,-0.35,0.0,0.9913626985114984,0.23494680248941463,0.003172552513204807,0.35,0,0,0.0
3.586651013998562,53,115.5,103.1,4.4,-6.6,-0.08,-0.19,-0.16,0.06,0.96,-0.24,-38.4,0.8,6.0,-3.47,-0.01,-0.2,0.0,0.9913626985114984,0.2609597670139978,0.0031091014629407443,0.35,0,0,0.0
3.5972354779987654,54,115.51,103.1,4.4,-6.6,-0.11,-0.21,-0.14,0.07,0.97,-0.24,-38.4,-0.4,-6.0,-3.47,0.02,0.12,0.0,1.0016985574512924,0.2753179979587241,0.013176061194680067,0.35,0,0,0.0
3.6066374689999066,55,115.52,103.1,4.4,-6.6,-0.13,-0.24,-0.11,0.07,0.97,-0.24,-38.4,0.0,0.0,-3.47,0.0,-0.11,0.0,1.0016985574512924,0.2942787793912432,0.012912539970786452,0.35,0,0,0.0
3.6172338369997306,56,115.53,103.1,4.3,-6.6,-0.15,-0.24,-0.08,0.06,0.97,-0.24,-38.4,-0.1,3.0,-3.47,-0.01,-0.02,0.0,1.001049449328054,0.29410882339705485,0.01201816321059701,0.35,0,0,0.0
3.626640647999011,57,115.54,103.1,4.3,-6.5,-0.16,-0.22,-0.07,0.07,0.97,-0.24,-38.4,0.1,-2.0,-3.47,0.0,-0.02,0.0,1.0016985574512924,0.28089143810376277,0.01241392590715873,0.35,0,0,0.0
3.6372224850001658,58,115.55,103.1,4.3,-6.5,-0.18,-0.21,-0.05,0.07,0.96,-0.25,-38.4,0.0,2.0,-3.47,0.0,0.16,0.0,0.9944847912361455,0.2810693864511039,0.005096156498171633,0.35,0,0,0.0
3.6466267359992344,59,115.56,103.1,4.3,-6.5,-0.2,-0.17,-0.05,0.08,0.96,-0.24,-38.4,-0.1,-5.0,-3.47,0.03,-0.11,0.0,0.9927738916792684,0.2672077843177478,0.0033175518024686212,0.35,0,0,0.0
3.657071449999421,60,115.57,103.1,4.3,-6.5,-0.21,-0.14,-0.05,0.08,0.96,-0.24,-38.4,0.2,6.0,-3.47,-0.02,0.01,0.0,0.9927738916792684,0.25729360660537215,0.003251200766419271,0.35,0,0,0.0
3.6664142119989265,61,115.58,103.1,4.3,-6.5,-0.21,-0.11,-0.05,0.08,0.96,-0.24,-38.4,-0.5,-8.0,-3.47,0.02,-0.17,0.0,0.9927738916792684,0.24228082879171434,0.0031861767510908967,0.35,0,0,0.0
3.677259083999161,62,115.59,103.1,4.3,-6.5,-0.17,-0.05,-0.07,0.09,0.96,-0.24,-38.4,0.4,-2.0,-3.47,0.01,0.02,0.0,0.9936297097007516,0.19052558883257653,0.0039611548771225635,0.35,0,0,0.0
3.6865523579999717,63,115.6,103.1,4.3,-6.5,-0.15,0.01,-0.09,0.08,0.96,-0.24,-38.4,0.0,6.0,-3.47,-0.02,0.21,0.0,0.9927738916792684,0.1752141546793523,0.0030432301185265853,0.35,0,0,0.0
3.6970486939990224,64,115.61,103.1,4.3,-6.5,-0.17,0.05,-0.11,0.08,0.97,-0.24,-38.4,-0.2,-8.0,-3.47,0.03,0.07,0.0,1.0024470060806208,0.20856653614614212,0.012462017629481292,0.35,0,0,0.0
3.7068585439992603,65,115.62,103.1,4.3,-6.5,-0.26,0.11,-0.1,0.08,0.97,-0.24,-38.4,0.0,8.0,-3.47,-0.02,-0.02,0.0,1.0024470060806208,0.29949958263743875,0.012212777276891629,0.35,0,0,0.0
3.716818625000087,66,115.63,103.0,4.3,-6.5,-0.38,0.15,-0.09,0.08,0.97,-0.24,-38.4,0.0,-10.0,-3.47,0.03,0.06,0.0,1.0024470060806208,0.4183300132670378,0.011968521731353765,0.35,0,0,0.0
3.7266977170002065,67,115.64,103.0,4.3,-6.5,-0.4,0.2,-0.08,0.08,0.96,-0.24,-38.4,-0.1,14.0,-3.47,-0.05,-0.02,0.0,0.9927738916792684,0.4543126676640219,0.002249499183401449,0.35,0,0,0.0
3.7372038339999563,68,115.65,103.0,4.3,-6.5,-0.36,0.24,-0.1,0.08,0.96,-0.23,-38.4,0.1,-12.0,-3.47,0.04,0.1,0.0,0.9904039579888602,0.4440720662234903,0.00011802581686670699,0.35,0,0,0.0
3.7466401609999593,69,115.66,102.9,4.3,-6.6,-0.29,0.28,-0.11,0.08,0.96,-0.23,-38.4,0.1,10.0,-3.47,-0.02,0.16,0.0,0.9904039579888602,0.41785164831552357,0.0001156653005294217,0.35,0,0,0.0
3.7570895239987294,70,115.67,102.9,4.3,-6.6,-0.24,0.31,-0.11,0.08,0.96,-0.23,-38.4,-0.1,-9.0,-3.47,0.02,-0.16,0.0,0.9904039579888602,0.40718546143004664,0.00011335199451878442,0.35,0,0,0.0
3.7665539889985666,71,115.68,102.9,4.3,-6.6,-0.21,0.3,-0.09,0.09,0.97,-0.22,-38.4,0.0,3.0,-3.47,0.0,-0.11,0.0,0.9986991538997116,0.377094152699296,0.008018207038006042,0.35,0,0,0.0
3.7771760420000646,72,115.69,102.9,4.3,-6.7,-0.23,0.3,-0.05,0.09,0.97,-0.22,-38.4,-0.1,-4.0,-3.47,0.0,0.07,0.0,0.9986991538997116,0.3813135192987524,0.007857842897245892,0.35,0,0,0.0
3.7865786099991965,73,115.7,102.9,4.3,-6.7,-0.21,0.31,-0.04,0.08,0.96,-0.22,-38.4,0.1,2.0,-3.47,0.0,0.12,0.0,0.98812954616285,0.3765634076752546,0.0026575295428235,0.35,0,0,0.0
3.797282899999118,74,115.71,102.8,4.3,-6.7,-0.16,0.29,-0.04,0.08,0.95,-0.22,-38.4,0.0,-2.0,-3.47,0.0,0.1,0.0,0.978417088975862,0.3336165463522455,0.01212258699521529,0.35,0,0,0.0
3.8066437339984986,75,115.72,102.8,4.3,-6.7,-0.11,0.27,-0.06,0.08,0.95,-0.22,-38.4,-0.1,1.0,-3.47,0.0,-0.11,0.0,0.978417088975862,0.29765752132274437,0.011880135255310953,0.35,0,0,0.0
3.817053548998956,76,115.73,102.8,4.4,-6.8,-0.13,0.27,-0.06,0.08,0.96,-0.23,-38.4,0.2,0.0,-3.47,0.0,0.03,0.0,0.9904039579888602,0.30561413579872254,0.00010459908253346306,0.35,0,0,0.0
3.826618982999207,77,115.74,102.8,4.4,-6.8,-0.15,0.27,-0.08,0.08,0.96,-0.23,-38.4,-0.1,1.0,-3.47,0.0,-0.05,0.0,0.9904039579888602,0.3190611226708764,0.00010250710088277604,0.35,0,0,0.0
3.837236147999647,78,115.75,102.8,4.4,-6.8,-0.18,0.27,-0.08,0.08,0.97,-0.23,-38.4,0.0,-3.0,-3.47,0.01,0.16,0.0,1.0000999950004998,0.33421549934136807,0.009602573230272027,0.35,0,0,0.0
3.846562365999489,79,115.76,102.8,4.4,-6.9,-0.24,0.24,-0.06,0.08,0.97,-0.22,-38.4,-0.2,0.0,-3.47,0.0,-0.25,0.0,0.9978476837674174,0.34467375879228174,0.007203256757245757,0.35,0,0,0.0
3.856864819999828,80,115.77,102.7,4.4,-6.9,-0.3,0.19,-0.03,0.08,0.97,-0.22,-38.4,0.4,-1.0,-3.47,0.0,-0.01,0.0,0.9978476837674174,0.3563705936241092,0.007059191622100891,0.35,0,0,0.0
3.86732067399862,81,115.78,102.7,4.4,-6.9,-0.28,0.14,-0.03,0.08,0.96,-0.21,-38.4,-0.4,-2.0,-3.47,0.01,0.01,0.0,0.9859513172565875,0.31448370387032776,0.00474043139095448,0.35,0,0,0.0
3.876968411999769,82,115.79,102.7,4.4,-6.9,-0.25,0.09,-0.02,0.09,0.96,-0.21,-38.4,0.1,7.0,-3.47,-0.02,-0.01,0.0,0.9868130522039116,0.2664582518894845,0.0038011225147577266,0.35,0,0,0.0
3.886560978999114,83,115.8,102.7,4.4,-6.9,-0.24,0.03,-0.01,0.09,0.96,-0.21,-38.4,0.0,-11.0,-3.47,0.03,-0.03,0.0,0.9868130522039116,0.2420743687382041,0.003725100064462583,0.35,0,0,0.0
3.8972653939999873,84,115.81,102.6,4.4,-6.9,-0.22,0.02,-0.02,0.09,0.96,-0.23,-38.4,-0.1,11.0,-3.47,-0.03,0.16,0.0,0.9912618221237011,0.22181073012818833,0.0007091964582203181,0.35,0,0,0.0
3.906586533999871,85,115.82,102.6,4.4,-6.9,-0.25,0.03,-0.04,0.09,0.96,-0.23,-38.4,0.0,-2.0,-3.47,0.0,0.03,0.0,0.9912618221237011,0.25495097567963926,0.000695012529055905,0.35,0,0,0.0
3.917151253999691,86,115.83,102.6,4.4,-6.9,-0.25,0.05,-0.06,0.09,0.96,-0.22,-38.4,0.0,2.0,-3.47,0.0,0.18,0.0,0.9889893831583836,0.2619160170741759,0.0015458779075363527,0.35,0,0,0.0
3.9265902859988273,87,115.84,102.6,4.4,-6.9,-0.29,0.08,-0.09,0.09,0.97,-0.23,-38.4,0.0,0.0,-3.47,-0.02,-0.16,0.0,1.000949549178179,0.31400636936215165,0.010206002350013899,0.35,0,0,0.0
3.9372460989998217,88,115.85,102.6,4.4,-7.0,-0.34,0.12,-0.1,0.08,0.97,-0.22,-38.4,0.3,-10.0,-3.47,0.03,0.07,0.0,0.9978476837674174,0.37416573867739417,0.006962054200467249,0.35,0,0,0.0
3.9464692659985303,89,115.86,102.5,4.4,-7.0,-0.33,0.11,-0.09,0.08,0.97,-0.21,-38.4,-0.5,3.0,-3.47,0.0,0.07,0.0,0.9956907150315303,0.35930488446443365,0.004708983755288498,0.35,0,0,0.0
3.956679486998837,90,115.87,102.5,4.4,-7.0,-0.33,0.09,-0.06,0.08,0.97,-0.21,-38.4,0.3,-4.0,-3.47,0.02,-0.1,0.0,0.9956907150315303,0.3472751070837068,0.004614804080182777,0.35,0,0,0.0
3.966774729999088,91,115.88,102.5,4.4,-7.0,-0.34,0.1,-0.02,0.08,0.97,-0.21,-38.4,-0.1,0.0,-3.47,0.0,-0.2,0.0,0.9956907150315303,0.354964786985977,0.004522507998579117,0.35,0,0,0.0
3.976886532000208,92,115.89,102.4,4.4,-7.0,-0.37,0.12,0.01,0.08,0.97,-0.21,-38.4,0.1,0.0,-3.47,0.0,-0.19,0.0,0.9956907150315303,0.38910152916687435,0.0044320578386075615,0.35,0,0,0.0
3.987243730998671,93,115.9,102.4,4.4,-7.0,-0.39,0.14,0.01,0.08,0.97,-0.21,-38.4,-0.1,0.0,-3.47,0.0,-0.01,0.0,0.9956907150315303,0.4144876355212541,0.004343416681835355,0.35,0,0,0.0
3.994695634999516,94,115.91,102.3,4.4,-7.0,-0.39,0.16,-0.01,0.09,0.96,-0.21,-38.4,0.2,-3.0,-3.47,0.01,0.07,0.0,0.9868130522039116,0.42166337284616034,0.004443561222867709,0.35,0,0,0.0
4.007233219999762,95,115.92,102.3,4.4,-7.0,-0.4,0.18,-0.04,0.09,0.95,-0.21,-38.4,-0.4,0.0,-3.47,0.0,-0.12,0.0,0.9770875088752287,0.4404543109109048,0.013885722460519667,0.35,0,0,0.0
4.017368995999277,96,115.93,102.3,4.5,-7.1,-0.37,0.2,-0.05,0.1,0.95,-0.21,-38.4,0.4,0.0,-3.47,0.0,-0.01,0.0,0.9780593029055038,0.4235563716909474,0.012655649861639584,0.35,0,0,0.0
4.026456239998879,97,115.94,102.2,4.5,-7.1,-0.31,0.23,-0.06,0.09,0.94,-0.21,-38.4,-0.1,1.0,-3.47,0.0,-0.1,0.0,0.9673675619949224,0.3906404996924922,0.022880442956776603,0.35,0,0,0.0
4.037034784998468,98,115.95,102.2,4.5,-7.1,-0.22,0.24,-0.07,0.08,0.94,-0.2,-38.4,0.1,-3.0,-3.47,0.0,0.2,0.0,0.9643650760992954,0.3330165161069342,0.0253652702753554,0.35,0,0,0.0
4.047027931999764,99,115.96,102.2,4.5,-7.1,-0.12,0.22,-0.08,0.08,0.94,-0.2,-38.4,-0.2,-1.0,-3.47,0.0,0.02,0.0,0.9643650760992954,0.2630589287593181,0.02485796486984826,0.35,0,0,0.0
4.056973148999532,100,115.97,102.2,4.5,-7.2,-0.05,0.21,-0.09,0.08,0.95,-0.2,-38.4,0.0,1.0,-3.47,0.0,0.07,0.0,0.9741149829460586,0.23388031127053,0.014805896862623458,0.35,0,0,0.0
4.067009641999903,101,115.98,102.2,4.5,-7.2,-0.05,0.19,-0.09,0.07,0.96,-0.21,-38.4,-0.2,3.0,-3.47,-0.01,-0.01,0.0,0.985190336940025,0.2161018278497431,0.003655932011283891,0.35,0,0,0.0
4.077186734999486,102,115.99,102.2,4.5,-7.2,-0.08,0.16,-0.11,0.08,0.97,-0.21,-38.4,0.2,0.0,-3.47,0.0,0.17,0.0,0.9956907150315303,0.21,0.006707557158616928,0.35,0,0,0.0
4.0866159580000385,103,116.0,102.2,4.5,-7.2,-0.15,0.14,-0.11,0.07,0.97,-0.21,-38.4,-0.2,-3.0,-3.47,0.0,0.13,0.0,0.9949371839468057,0.23280893453645632,0.005834945552414594,0.35,0,0,0.0
4.097164881999561,104,116.01,102.1,4.4,-7.2,-0.22,0.11,-0.11,0.08,0.97,-0.2,-38.4,0.0,1.0,-3.47,0.0,-0.06,0.0,0.9936297097007516,0.2694438717061496,0.004436921880233258,0.35,0,0,0.0
4.106531247000021,105,116.02,102.1,4.4,-7.2,-0.27,0.06,-0.12,0.08,0.97,-0.2,-38.4,0.2,7.0,-3.47,-0.03,-0.19,0.0,0.9936297097007516,0.3014962686336267,0.00434818344262855,0.35,0,0,0.0
4.1170225699988805,106,116.03,102.1,4.4,-7.3,-0.28,0.03,-0.15,0.08,0.97,-0.2,-38.4,-0.6,-8.0,-3.47,0.02,0.13,0.0,0.9936297097007516,0.31906112267087633,0.004261219773776026,0.35,0,0,0.0
4.1268657429991435,107,116.04,102.0,4.4,-7.3,-0.26,0.01,-0.18,0.08,0.97,-0.2,-38.4,0.3,6.0,-3.47,-0.01,0.22,0.0,0.9936297097007516,0.3163858403911275,0.00417599537830049,0.35,0,0,0.0
4.137028059998556,108,116.05,102.0,4.4,-7.3,-0.26,0.0,-0.19,0.08,0.97,-0.2,-38.4,0.0,2.0,-3.47,-0.01,0.13,0.0,0.9936297097007516,0.3220248437620924,0.004092475470734436,0.35,0,0,0.0
4.147014991998731,109,116.06,102.0,4.4,-7.3,-0.24,0.01,-0.2,0.08,0.96,-0.2,-38.4,0.0,-4.0,-3.47,0.01,0.17,0.0,0.9838699100999074,0.3125699921617557,0.005553977647507535,0.35,0,0,0.0
4.156903788998534,110,116.07,102.0,4.4,-7.3,-0.24,0.03,-0.2,0.09,0.96,-0.2,-38.4,-0.1,0.0,-3.47,0.0,-0.13,0.0,0.984733466477097,0.3138470965295043,0.0045966128449115295,0.35,0,0,0.0
4.167377349000162,111,116.08,101.9,4.4,-7.3,-0.21,0.06,-0.22,0.09,0.95,-0.2,-38.4,0.0,-4.0,-3.47,0.01,0.1,0.0,0.9749871794028884,0.31,0.014056041920737838,0.35,0,0,0.0
4.177147212998534,112,116.09,101.9,4.4,-7.3,-0.19,0.11,-0.23,0.09,0.95,-0.2,-38.4,-0.1,2.0,-3.47,0.0,-0.19,0.0,0.9749871794028884,0.3179622619116929,0.013774921082323033,0.35,0,0,0.0
4.186570875999678,113,116.1,101.9,4.4,-7.3,-0.15,0.14,-0.25,0.09,0.95,-0.2,-38.4,0.6,2.0,-3.47,0.0,0.28,0.0,0.9749871794028884,0.3234192325759246,0.013499422660676608,0.35,0,0,0.0
4.1970991769994725,114,116.11,101.9,4.3,-7.3,-0.11,0.19,-0.28,0.09,0.94,-0.2,-38.4,-0.1,0.0,-3.47,0.0,-0.01,0.0,0.9652460826131334,0.35580893749314396,0.02277570906142301,0.35,0,0,0.0
4.206633092999255,115,116.12,101.9,4.3,-7.4,-0.06,0.23,-0.27,0.09,0.94,-0.19,-38.4,0.4,-7.0,-3.47,0.02,-0.06,0.0,0.9632237538599222,0.359722114972099,0.02430207705834153,0.35,0,0,0.0
4.217106299998704,116,116.13,101.9,4.3,-7.4,0.0,0.25,-0.26,0.09,0.94,-0.19,-38.4,-0.6,4.0,-3.47,0.0,-0.19,0.0,0.9632237538599222,0.3606937759374287,0.023816035517174705,0.35,0,0,0.0
4.226542578999215,117,116.14,101.9,4.3,-7.4,0.05,0.29,-0.24,0.09,0.95,-0.19,-38.4,0.1,0.0,-3.47,0.0,0.13,0.0,0.9729850975220535,0.3797367509209505,0.013773598017942534,0.35,0,0,0.0
4.2347067359987705,118,116.15,101.9,4.3,-7.5,0.09,0.34,-0.29,0.08,0.96,-0.2,-38.4,-0.1,0.0,-3.47,0.0,-0.16,0.0,0.9838699100999074,0.45585085280165927,0.0028310097312869154,0.35,0,0,0.0
4.247130538999045,119,116.16,101.9,4.3,-7.5,0.1,0.38,-0.35,0.09,0.96,-0.19,-38.4,0.3,-1.0,-3.47,0.02,-0.06,0.0,0.9827512401416749,0.5262128846769147,0.003870686095729048,0.35,0,0,0.0
4.257056492999254,120,116.17,101.9,4.3,-7.6,0.07,0.39,-0.39,0.09,0.96,-0.19,-38.4,0.0,7.0,-3.47,-0.01,0.08,0.0,0.9827512401416749,0.5559676249567056,0.003793272373814438,0.35,0,0,0.0
4.267209595998793,121,116.18,101.9,4.3,-7.6,0.02,0.41,-0.43,0.09,0.97,-0.2,-38.4,-0.6,-4.0,-3.47,0.01,-0.01,0.0,0.9944847912361455,0.5944745579080739,0.007781473146243001,0.35,0,0,0.0
4.277142179998918,122,116.19,101.9,4.2,-7.7,0.01,0.45,-0.46,0.09,0.97,-0.2,-38.4,0.2,0.0,-3.47,0.0,-0.25,0.0,0.9944847912361455,0.6435837163881635,0.00762584368331809,0.35,0,0,0.0
4.28659819999848,123,116.2,101.9,4.2,-7.7,0.0,0.48,-0.46,0.09,0.97,-0.19,-38.4,0.0,1.0,-3.47,0.0,-0.01,0.0,0.9925220400575495,0.6648308055437865,0.005549830654627663,0.35,0,0,0.0
4.297113413000261,124,116.21,101.9,4.2,-7.8,-0.01,0.5,-0.45,0.1,0.97,-0.19,-38.4,0.0,-3.0,-3.47,0.01,0.02,0.0,0.9934787365615834,0.6727555276621664,0.006376396615488278,0.35,0,0,0.0
4.306607683998664,125,116.22,101.8,4.2,-7.8,-0.02,0.56,-0.43,0.1,0.98,-0.2,-38.4,0.2,1.0,-3.47,0.0,0.07,0.0,1.005186549850325,0.706328535456412,0.017722525706145298,0.35,0,0,0.0
4.317290902999957,126,116.23,101.8,4.2,-7.9,-0.02,0.63,-0.46,0.1,0.98,-0.19,-38.4,-0.3,5.0,-3.47,-0.02,0.08,0.0,1.0032447358446492,0.7803204469959761,0.015465097466460187,0.35,0,0,0.0
4.326613602999714,127,116.24,101.8,4.1,-8.0,-0.01,0.72,-0.49,0.1,0.97,-0.19,-38.4,-0.1,-4.0,-3.47,0.01,0.07,0.0,0.9934787365615834,0.870976463516667,0.00558511621972646,0.35,0,0,0.0
4.337355079998815,128,116.25,101.8,4.1,-8.1,-0.05,0.81,-0.51,0.11,0.97,-0.19,-38.4,0.0,0.0,-3.47,0.0,0.11,0.0,0.9945350672550466,0.9584883932526257,0.006508617974925857,0.35,0,0,0.0
4.3465345069998875,129,116.26,101.8,4.1,-8.2,-0.09,0.89,-0.5,0.11,0.97,-0.2,-38.4,0.0,-1.0,-3.47,0.0,0.17,0.0,0.9964938534682489,1.024792661956554,0.008298056104365625,0.35,0,0,0.0
4.354640253999605,130,116.27,101.8,4.1,-8.3,-0.03,1.01,-0.49,0.12,0.98,-0.19,-38.4,0.2,-3.0,-3.47,0.0,0.08,0.0,1.0054352291420865,1.1229870880824944,0.01689464314263911,0.35,0,0,0.0
4.36706757399952,131,116.28,101.8,4.1,-8.4,0.0,1.16,-0.48,0.12,0.97,-0.2,-38.4,-0.1,4.0,-3.47,-0.01,0.02,0.0,0.9976472322419383,1.2553883861180173,0.008924513317641103,0.35,0,0,0.0
4.376884330999019,132,116.29,101.8,4.1,-8.5,0.03,1.31,-0.49,0.12,0.96,-0.19,-38.4,0.1,0.0,-3.47,0.0,-0.19,0.0,0.9859513172565875,1.3989639023220006,0.002715973634355495,0.35,0,0,0.0
4.3870283870001,133,116.3,101.7,4.2,-8.7,0.07,1.44,-0.5,0.11,0.97,-0.19,-38.4,0.4,-2.0,-3.47,0.01,-0.3,0.0,0.9945350672550466,1.5259423318068084,0.005750420836821535,0.35,0,0,0.0
4.396975775998726,134,116.31,101.7,4.2,-8.8,0.12,1.57,-0.51,0.11,0.97,-0.18,-38.4,-0.3,0.0,-3.47,0.0,-0.01,0.0,0.9926731586982696,1.6551132891738862,0.0038107420344436482,0.35,0,0,0.0
4.4068941499990615,135,116.32,101.7,4.2,-9.0,0.18,1.69,-0.52,0.11,0.97,-0.17,-38.4,0.8,5.0,-3.47,-0.02,0.04,0.0,0.9909086738948246,1.7773294573601146,0.002005332086378764,0.35,0,0,0.0
4.417134169998462,136,116.33,101.7,4.2,-9.2,0.24,1.8,-0.5,0.1,0.98,-0.17,-38.4,2.0,12.0,-3.47,-0.07,-0.1,0.0,0.9996499387285531,1.8835073665903195,0.010531664981705102,0.35,0,0,0.0
4.426446143999783,137,116.34,101.7,4.2,-9.4,0.31,1.86,-0.5,0.08,0.99,-0.16,-38.3,2.7,5.0,-3.48,-0.06,0.17,0.0,1.0060318086422517,1.95082034026714,0.016575264197495665,0.35,0,0,0.0
4.437077448999844,138,116.35,101.7,4.2,-9.6,0.31,1.91,-0.51,0.07,0.98,-0.17,-38.3,2.6,1.0,-3.48,-0.06,0.08,0.0,0.9970957827611147,2.0010747112489327,0.007486453550031413,0.35,0,0,0.0
4.446460874998593,139,116.36,101.7,4.2,-9.8,0.19,1.98,-0.55,0.07,0.98,-0.17,-38.3,3.0,6.0,-3.48,-0.09,0.04,0.0,0.9970957827611147,2.063734479045209,0.007336724479030776,0.35,0,0,0.0
4.457015345999025,140,116.37,101.7,4.1,-10.0,-0.02,2.07,-0.58,0.06,0.97,-0.18,-38.2,5.7,29.0,-3.48,-0.22,-0.19,0.0,0.9883825170448939,2.1498139454380696,0.0013490104124461721,0.35,0,0,0.0
4.466920476999803,141,116.38,101.7,4.1,-10.2,-0.14,2.24,-0.63,0.05,0.95,-0.19,-38.1,14.9,85.0,-3.48,-0.54,-0.1,0.0,0.9701030873056739,2.33111561274854,0.019235871348632916,0.35,0,0,0.0
4.47711655799867,142,116.39,101.6,4.1,-10.5,-0.13,2.4,-0.7,0.05,0.94,-0.18,-37.9,28.2,121.0,-3.49,-0.93,-0.01,0.0,0.9583840566286566,2.503377718203947,0.030335803985137244,0.35,0,0,0.0
4.48660690899851,143,116.4,101.6,4.1,-10.7,-0.07,2.51,-0.76,0.06,0.94,-0.17,-37.5,43.5,143.0,-3.5,-1.37,0.0,0.0,0.9571311299921239,2.6234709832586294,0.030956956009236536,0.35,0,0,0.0
4.497176798999135,144,116.41,101.6,4.0,-11.0,-0.06,2.62,-0.81,0.07,0.94,-0.19,-37.0,57.6,142.0,-3.52,-1.76,0.05,0.0,0.9615612304996495,2.74300929637506,0.02599631839167671,0.35,0,0,0.0
4.506566475,145,116.42,101.5,4.0,-11.3,-0.04,2.75,-0.84,0.06,0.97,-0.19,-36.3,74.0,164.0,-3.54,-2.23,-0.16,0.0,0.9902524930541705,2.875708608325955,0.0026410452795874173,0.35,0,0,0.0
4.514706660998854,146,116.43,101.5,4.0,-11.6,-0.16,2.83,-0.81,0.05,0.98,-0.19,-35.4,92.0,178.0,-3.57,-2.73,0.0,0.0,0.9994998749374608,2.9479823608698887,0.011650658619620224,0.35,0,0,0.0
4.527049521999288,147,116.44,101.4,3.9,-11.9,-0.32,2.9,-0.79,0.04,0.98,-0.2,-34.4,110.3,176.0,-3.6,-3.2,-0.12,0.0,1.000999500499376,3.022664387589201,0.012887278497904608,0.35,0,0,0.0
4.536975715000153,148,116.45,101.4,3.9,-12.2,-0.46,3.02,-0.78,0.03,0.98,-0.21,-33.1,127.4,175.0,-3.63,-3.67,-0.15,0.0,1.00269636480841,3.152839989596681,0.014292459950799863,0.35,0,0,0.0
4.547023713999806,149,116.46,101.3,3.9,-12.5,-0.5,3.13,-0.8,0.03,0.97,-0.21,-31.7,144.7,165.0,-3.67,-4.11,0.01,0.0,0.9929249719893241,3.269082440073973,0.004430645789079701,0.35,0,0,0.0
4.557012078999833,150,116.47,101.3,3.8,-12.8,-0.41,3.25,-0.84,0.02,0.98,-0.22,-30.2,160.4,169.0,-3.72,-4.59,-0.08,0.0,1.0045894683899488,3.3817451116250616,0.01577323934591035,0.35,0,0,0.0
4.567004425998675,151,116.48,101.2,3.8,-13.2,-0.37,3.36,-0.86,0.02,0.99,-0.22,-28.4,180.3,193.0,-3.77,-5.14,-0.33,0.0,1.014347080638575,3.4879936926548476,0.025020234562645904,0.35,0,0,0.0
4.578596141000162,152,116.49,101.2,3.7,-13.5,-0.41,3.48,-0.87,0.02,1.0,-0.23,-26.5,201.8,216.0,-3.82,-5.78,-0.36,0.0,1.0263040485158381,3.610457034781054,0.036237658391110816,0.35,0,0,0.0
4.586630727999363,153,116.5,101.1,3.7,-13.9,-0.5,3.59,-0.87,0.02,1.01,-0.23,-24.3,226.1,232.0,-3.88,-6.44,-0.08,0.0,1.0360501918343532,3.7275997639231604,0.045064125675433386,0.35,0,0,0.0
4.597116916000232,154,116.51,101.1,3.7,-14.2,-0.48,3.64,-0.86,0.02,1.02,-0.23,-21.9,245.9,192.0,-3.95,-6.88,-0.21,0.0,1.0458011283222064,3.770888489467701,0.053718760920020814,0.35,0,0,0.0
4.606555718999516,155,116.52,101.0,3.6,-14.6,-0.46,3.67,-0.83,0.02,1.02,-0.23,-19.3,263.1,191.0,-4.02,-7.4,0.01,0.0,1.0458011283222064,3.7906991439574838,0.052644385701620444,0.35,0,0,0.0
4.617029723998712,156,116.53,101.0,3.6,-15.0,-0.52,3.7,-0.75,0.01,1.02,-0.23,-16.5,285.6,227.0,-4.1,-8.09,0.06,0.0,1.0456576877735848,3.8108922839671027,0.051450926249938855,0.35,0,0,0.0
4.626994544998524,157,116.54,100.9,3.6,-15.4,-0.56,3.74,-0.7,0.01,1.01,-0.23,-13.5,307.4,194.0,-4.19,-8.54,-0.28,0.0,1.035905401086412,3.845932916731648,0.04086466677151068,0.35,0,0,0.0
4.6346913629986375,158,116.55,100.8,3.5,-15.8,-0.58,3.78,-0.64,0.0,1.01,-0.23,-10.4,322.0,161.0,-4.28,-8.93,-0.14,0.0,1.0358571330062847,3.8774218238411975,0.040000070717555736,0.35,0,0,0.0
4.647125308998511,159,116.56,100.8,3.5,-16.1,-0.67,3.76,-0.57,0.0,1.02,-0.22,-7.0,336.0,145.0,-4.37,-9.3,-0.13,0.0,1.0434557968596465,3.861528194899009,0.04664675987949918,0.35,0,0,0.0
4.65703396599929,160,116.57,100.7,3.5,-16.5,-0.77,3.68,-0.48,-0.01,1.01,-0.21,-3.6,347.0,92.0,-4.46,-9.47,0.0,0.0,1.031649165171959,3.7902110759164853,0.03414332562797551,0.35,0,0,0.0
4.666916127998775,161,116.58,100.6,3.5,-16.9,-0.84,3.58,-0.4,-0.03,1.0,-0.21,-0.1,352.4,69.0,-4.56,-9.61,0.08,0.0,1.0222524150130436,3.698918760935417,0.024251643959678937,0.35,0,0,0.0
4.677145139999993,162,116.59,100.5,3.4,-17.2,-0.94,3.46,-0.34,-0.03,0.99,-0.21,3.3,333.5,-261.0,-4.65,-8.3,0.46,0.0,1.0124722218411721,3.601499687630141,0.014182021772051301,0.35,0,0,0.0
4.6865172639991215,163,116.6,100.4,3.4,-17.6,-0.91,3.27,-0.34,-0.01,0.97,-0.19,6.0,246.6,-799.0,-4.71,-5.24,0.55,0.0,0.9884836872705588,3.4112461066302444,0.009610382542590834,0.35,0,0,0.0
4.697020489998977,164,116.61,100.3,3.4,-17.9,-0.65,3.07,-0.42,-0.01,0.97,-0.18,7.6,117.8,-1140.0,-4.74,-1.63,0.33,0.0,0.986610358753647,3.1660385341937958,0.011254036838312609,0.35,0,0,0.0
4.707015211999533,165,116.62,100.2,3.4,-18.2,-0.48,2.88,-0.52,0.0,0.99,-0.19,8.0,11.6,-925.0,-4.74,0.44,0.19,0.0,1.0080674580602234,2.965670244649597,0.009999001218898518,0.35,0,0,0.0
4.716986101999282,166,116.63,100.2,3.3,-18.5,-0.58,2.83,-0.61,0.0,1.01,-0.21,7.9,-18.5,-332.0,-4.73,0.34,0.07,0.0,1.0316006979447039,2.9525243436761026,0.03286159628131147,0.35,0,0,0.0
4.726883061999615,167,116.64,100.1,3.3,-18.8,-0.9,2.85,-0.63,-0.01,1.0,-0.21,7.8,0.8,9.0,-4.73,-0.17,0.15,0.0,1.0218610473053564,3.0544066526905027,0.022659506729124756,0.35,0,0,0.0
4.737157767998724,168,116.65,100.0,3.2,-19.1,-1.07,2.81,-0.66,-0.02,0.98,-0.2,7.8,0.5,-50.0,-4.73,0.08,0.08,0.0,1.000399920031984,3.078408679821443,0.0011744118666372483,0.35,0,0,0.0
4.746586028999445,169,116.66,99.9,3.1,-19.3,-1.04,2.73,-0.68,-0.02,0.96,-0.19,7.8,0.0,11.0,-4.73,-0.04,0.27,0.0,0.9788258272031853,2.9994832888349285,0.01999168734291812,0.35,0,0,0.0
4.757002348998867,170,116.67,99.8,3.1,-19.6,-1.13,2.68,-0.61,-0.02,0.96,-0.19,7.8,-0.4,-10.0,-4.73,0.01,-0.08,0.0,0.9788258272031853,2.9717671510399333,0.01959185359605975,0.35,0,0,0.0
4.76704361100019,171,116.68,99.7,3.0,-19.9,-1.15,2.67,-0.51,-0.03,0.94,-0.18,7.8,0.3,-4.0,-4.73,0.01,0.09,0.0,0.9575489543621255,2.951525029539814,0.040051351908377164,0.35,0,0,0.0
4.777056850000008,172,116.69,99.6,3.0,-20.2,-1.08,2.6,-0.4,-0.03,0.94,-0.18,7.8,0.0,0.0,-4.73,0.0,0.08,0.0,0.9575489543621255,2.8436596139481956,0.03925032487020963,0.35,0,0,0.0
4.786514935998639,173,116.7,99.5,2.9,-20.4,-0.96,2.53,-0.3,-0.03,0.94,-0.17,7.8,0.0,0.0,-4.73,0.0,-0.12,0.0,0.9557196241576292,2.7225906780123963,0.0402580619732118,0.35,0,0,0.0
4.797102163998716,174,116.71,99.4,2.9,-20.7,-0.89,2.43,-0.19,-0.04,0.96,-0.17,7.8,-0.1,-3.0,-4.73,0.01,-0.04,0.0,0.9757561170702441,2.5948217665188493,0.019817137679384977,0.35,0,0,0.0
4.806576629000119,175,116.72,99.3,2.9,-20.9,-0.99,2.28,-0.05,-0.04,0.97,-0.17,7.8,0.2,3.0,-4.73,0.0,-0.07,0.0,0.9855962662266938,2.48616170029224,0.009777448752476547,0.35,0,0,0.0
4.81701249300022,176,116.73,99.2,2.8,-21.1,-1.1,2.09,0.04,-0.05,0.96,-0.17,7.8,0.0,2.0,-4.73,-0.01,-0.19,0.0,0.9762171889492625,2.3621388612865246,0.018773395509309787,0.35,0,0,0.0
4.82737165799881,177,116.74,99.0,2.8,-21.3,-1.2,1.89,0.16,-0.05,0.96,-0.17,7.8,0.0,1.0,-4.73,0.0,-0.06,0.0,0.9762171889492625,2.244482122896059,0.01839792759912362,0.35,0,0,0.0
4.837153702999785,178,116.75,98.9,2.8,-21.5,-1.2,1.68,0.26,-0.05,0.96,-0.17,7.8,0.0,7.0,-4.73,-0.03,0.08,0.0,0.9762171889492625,2.080865204668481,0.01802996904714116,0.35,0,0,0.0
4.846567987999151,179,116.76,98.8,2.8,-21.6,-1.15,1.45,0.38,-0.04,0.95,-0.17,7.8,0.0,-3.0,-4.73,0.0,-0.05,0.0,0.96591925128346,1.8892855792600545,0.02776134857868473,0.35,0,0,0.0
4.8570056070002465,180,116.77,98.7,2.8,-21.8,-1.04,1.23,0.46,-0.04,0.94,-0.17,7.8,0.2,0.0,-4.73,0.0,0.09,0.0,0.9560857702110204,1.675141785043881,0.036842933058101934,0.35,0,0,0.0
4.866904843000157,181,116.78,98.6,2.8,-21.9,-0.93,1.04,0.49,-0.03,0.94,-0.18,7.8,0.0,6.0,-4.73,-0.02,-0.15,0.0,0.9575489543621255,1.4787156589419077,0.03467215392885692,0.35,0,0,0.0
4.877089278999847,182,116.79,98.6,2.8,-22.0,-0.87,0.89,0.51,-0.03,0.96,-0.19,7.8,0.0,-2.0,-4.73,0.0,0.0,0.0,0.979081201943945,1.3450278807519196,0.012877108220096689,0.35,0,0,0.0
4.886564325999643,183,116.8,98.5,2.9,-22.0,-0.91,0.78,0.54,-0.02,0.97,-0.19,7.8,0.0,-2.0,-4.73,0.0,0.09,0.0,0.9886354231970448,1.3145721737508367,0.0032564292276570095,0.35,0,0,0.0
4.8969961179991515,184,116.81,98.4,2.9,-22.1,-0.97,0.7,0.6,-0.01,0.97,-0.2,7.8,-0.2,-1.0,-4.73,0.01,-0.06,0.0,0.9904544411531506,1.3382451195502263,0.0014086630461201954,0.35,0,0,0.0
4.906951264998497,185,116.82,98.4,2.9,-22.1,-1.04,0.64,0.72,0.0,0.97,-0.21,7.8,0.0,-2.0,-4.73,0.0,0.07,0.0,0.9924716620639604,1.417603611733548,0.0005963867073958129,0.35,0,0,0.0
4.917138184999203,186,116.83,98.3,3.0,-22.2,-1.1,0.57,0.86,0.0,0.96,-0.21,7.8,0.0,-1.0,-4.73,0.0,0.0,0.0,0.982700361249552,1.5081445554057475,0.008991415824872395,0.35,0,0,0.0
4.926581445999545,187,116.84,98.2,3.1,-22.2,-1.04,0.47,1.03,-0.01,0.96,-0.2,7.8,0.0,1.0,-4.73,0.0,0.15,0.0,0.9806630410084801,1.537335357038275,0.010808161344625367,0.35,0,0,0.0
4.937281466998684,188,116.85,98.1,3.1,-22.2,-0.99,0.33,1.19,-0.02,0.97,-0.2,7.8,0.0,0.0,-4.73,0.0,0.0,0.0,0.9906058752097122,1.5827507700203465,0.0008480206005253565,0.35,0,0,0.0
4.946522053000081,189,116.86,98.0,3.3,-22.3,-0.94,0.19,1.31,-0.02,0.96,-0.19,7.8,-0.2,-2.0,-4.73,0.01,0.15,0.0,0.9788258272031853,1.6235147058157497,0.01237550723491121,0.35,0,0,0.0
4.954674552000142,190,116.87,97.9,3.4,-22.2,-0.97,0.01,1.4,-0.02,0.96,-0.18,7.8,-0.2,2.0,-4.73,0.0,0.06,0.0,0.976933979345585,1.7032322213955442,0.013982007990661294,0.35,0,0,0.0
4.967170187999727,191,116.88,97.9,3.5,-22.2,-1.0,-0.11,1.48,-0.02,0.96,-0.19,7.8,0.0,1.0,-4.73,0.0,0.0,0.0,0.9788258272031853,1.789553016817328,0.011848356930399762,0.35,0,0,0.0
4.977174158999333,192,116.89,97.8,3.7,-22.2,-1.03,-0.26,1.56,-0.02,0.95,-0.18,7.8,-0.1,-3.0,-4.73,0.01,0.08,0.0,0.9671090941563935,1.8873526432545669,0.023093788177647845,0.35,0,0,0.0
4.986587946999862,193,116.9,97.7,3.8,-22.1,-0.99,-0.43,1.62,-0.02,0.94,-0.19,7.8,0.0,0.0,-4.73,0.0,-0.06,0.0,0.959218431849597,1.9466381276446838,0.03036476147475542,0.35,0,0,0.0
4.997196391999751,194,116.91,97.6,4.0,-22.0,-0.91,-0.57,1.68,-0.02,0.93,-0.2,7.8,0.0,0.0,-4.73,0.0,-0.05,0.0,0.9514725429564429,1.9938405151867087,0.03734843736055127,0.35,0,0,0.0
5.006503360998977,195,116.92,97.5,4.2,-22.0,-0.77,-0.72,1.72,-0.01,0.92,-0.19,7.8,0.0,1.0,-4.73,0.0,0.06,0.0,0.9394679345246436,2.017349746573459,0.048365984876503565,0.35,0,0,0.0
5.016990259999147,196,116.93,97.4,4.3,-21.9,-0.65,-0.89,1.74,-0.02,0.91,-0.2,7.8,0.0,0.0,-4.73,0.01,0.0,0.0,0.931933474020544,2.05966016614392,0.05478243647299108,0.35,0,0,0.0
5.027218395998716,197,116.94,97.4,4.5,-21.7,-0.47,-1.04,1.72,-0.02,0.9,-0.21,7.8,-0.1,0.0,-4.73,0.0,-0.07,0.0,0.9243916918709298,2.064194758253203,0.06107773425015317,0.35,0,0,0.0
5.036870893998639,198,116.95,97.4,4.6,-21.6,-0.25,-1.22,1.7,-0.02,0.9,-0.2,7.8,-0.1,1.0,-4.73,0.0,0.0,0.0,0.9221713506718803,2.1073443002983634,0.06203211394021868,0.35,0,0,0.0
5.047653054998591,199,116.96,97.4,4.8,-21.4,0.13,-1.47,1.58,-0.02,0.9,-0.2,7.8,0.0,-1.0,-4.73,0.0,-0.06,0.0,0.9221713506718803,2.161989824212871,0.0607914716614143,0.35,0,0,0.0
5.057234128998971,200,116.97,97.4,4.9,-21.3,0.56,-1.61,1.35,0.0,0.92,-0.21,7.8,0.1,0.0,-4.73,0.0,-0.06,0.0,0.9436630754670864,2.174442457274968,0.038513751928884066,0.35,0,0,0.0
5.070591486999547,201,116.98,97.5,5.0,-21.1,0.77,-1.61,1.05,0.01,0.95,-0.24,7.8,-0.3,-1.0,-4.73,0.0,0.0,0.0,0.9798979538707079,2.070627924084866,0.0022332960547573055,0.35,0,0,0.0
5.078558294999311,202,116.99,97.6,5.1,-20.9,0.72,-1.55,0.75,0.01,0.97,-0.26,7.8,-0.4,-5.0,-4.73,0.03,-0.06,0.0,1.004290794541103,1.8663868837944615,0.021716353723325144,0.35,0,0,0.0
5.086482385999261,203,117.0,97.7,5.1,-20.8,0.49,-1.46,0.47,0.0,0.98,-0.27,7.8,-0.4,0.0,-4.73,0.01,-0.06,0.0,1.0165136496870073,1.6101552720157144,0.03326042469184487,0.35,0,0,0.0
5.097644358000252,204,117.01,97.7,5.1,-20.6,0.29,-1.47,0.37,0.0,0.97,-0.23,7.8,-0.8,-1.0,-4.73,0.02,-0.13,0.0,0.9968951800465282,1.5433405327405871,0.013369115950338517,0.35,0,0,0.0
5.106344593999893,205,117.02,97.8,5.1,-20.5,0.25,-1.59,0.34,0.02,0.95,-0.19,7.8,-0.1,3.0,-4.73,0.0,0.0,0.0,0.9690201236300513,1.6450531906294095,0.014215821656815675,0.35,0,0,0.0
5.117828473999907,206,117.03,97.8,5.1,-20.3,0.69,-1.71,0.12,0.05,0.95,-0.17,7.8,0.0,4.0,-4.73,0.0,0.3,0.0,0.966385016440135,1.847863631332139,0.016513910269797316,0.35,0,0,0.0
5.126438168999812,207,117.04,98.0,5.1,-20.1,1.3,-1.63,-0.31,0.12,1.02,-0.18,7.8,-0.3,0.0,-4.73,0.0,0.01,0.0,1.042688831818966,2.1078424988599123,0.05859410700685308,0.35,0,0,0.0
5.137725697999485,208,117.05,98.2,5.0,-20.0,1.65,-1.38,-0.76,0.2,1.1,-0.18,7.8,0.0,0.0,-4.73,0.0,-0.07,0.0,1.1324310133513653,2.2813373270956663,0.14536956276846735,0.35,0,0,0.0
5.146352261999709,209,117.06,98.4,5.0,-19.9,1.49,-1.19,-1.07,0.25,1.16,-0.19,7.8,-0.1,1.0,-4.73,0.0,-0.14,0.0,1.2017487258158421,2.1865726605809375,0.2103935297282853,0.35,0,0,0.0
5.1576214939996134,210,117.07,98.5,4.8,-19.8,0.83,-0.97,-1.13,0.25,1.17,-0.21,7.8,0.0,0.0,-4.73,0.0,0.0,0.0,1.2147016094498269,1.7049046894181503,0.21887948509502464,0.35,0,0,0.0
5.16646653999851,211,117.08,98.5,4.7,-19.7,0.27,-0.83,-0.99,0.21,1.09,-0.18,7.8,0.0,2.0,-4.73,0.0,0.16,0.0,1.124544352171136,1.3198105924715107,0.12614778326000708,0.35,0,0,0.0
5.177741192999747,212,117.09,98.6,4.7,-19.6,0.16,-0.75,-0.76,0.13,1.01,-0.14,7.8,-0.3,-2.0,-4.73,0.0,0.16,0.0,1.0279105019407089,1.0796758772891057,0.02892365436898836,0.35,0,0,0.0
5.18632271199931,213,117.1,98.6,4.6,-19.6,0.2,-0.77,-0.48,0.01,0.95,-0.09,7.8,0.0,2.0,-4.73,0.0,0.24,0.0,0.9543060305792895,0.9291393867445292,0.04378720065258235,0.35,0,0,0.0
5.197712645000138,214,117.11,98.6,4.6,-19.5,0.5,-1.17,-0.28,-0.08,0.92,-0.01,7.8,-0.9,-4.0,-4.73,0.02,0.08,0.0,0.9235258523723091,1.3028046668629951,0.0730760312823715,0.35,0,0,0.0
5.206332011999621,215,117.12,98.7,4.5,-19.3,0.91,-1.97,-0.25,-0.13,0.93,0.03,7.8,-2.1,-12.0,-4.73,0.08,0.0,0.0,0.9395211546314431,2.184376341201305,0.055939114442772664,0.35,0,0,0.0
5.217773996999313,216,117.13,98.8,4.4,-19.1,0.85,-2.71,-0.37,-0.13,0.99,0.01,7.7,-3.7,-15.0,-4.73,0.12,0.08,0.0,0.9985489472229191,2.864175273966312,0.0030269045857291843,0.35,0,0,0.0
5.226326203999633,217,117.14,98.9,4.4,-18.8,0.25,-3.22,-0.48,-0.11,1.03,0.02,7.7,-7.8,-44.0,-4.73,0.29,0.22,0.0,1.0360501918343532,3.2651646206585054,0.03971758621322008,0.35,0,0,0.0
5.237707004998811,218,117.15,98.9,4.2,-18.5,-0.54,-3.69,-0.6,-0.05,1.03,0.01,7.6,-11.9,-21.0,-4.72,0.31,0.0,0.0,1.0312613635737546,3.7772609123543477,0.03423018279356904,0.35,0,0,0.0
5.246330154999669,219,117.16,98.8,4.1,-18.1,-1.03,-3.93,-0.7,0.0,1.0,0.0,7.4,-13.6,-33.0,-4.72,0.42,-0.07,0.0,1.0,4.122596269342901,0.0029094428354181634,0.35,0,0,0.0
5.25772111599872,220,117.17,98.8,4.0,-17.7,-1.14,-4.08,-0.76,0.06,1.0,0.0,7.3,-17.9,-48.0,-4.71,0.57,-0.05,0.0,1.0017983829094554,4.303905203417008,0.004613669229976081,0.35,0,0,0.0
5.266474100999403,221,117.18,98.7,3.8,-17.3,-1.12,-4.01,-0.69,0.11,1.0,-0.03,7.1,-23.8,-52.0,-4.71,0.73,0.1,0.0,1.0064790112068904,4.220260655457196,0.009108411576862818,0.35,0,0,0.0
5.278584312000021,222,117.19,98.6,3.7,-16.9,-0.98,-3.85,-0.54,0.14,1.01,-0.04,6.8,-28.3,-51.0,-4.7,0.84,0.08,0.0,1.020441081101697,4.00930168483241,0.02260907184223604,0.35,0,0,0.0
5.290519164000216,223,117.2,98.5,3.6,-16.6,-0.76,-3.63,-0.34,0.16,1.02,-0.06,6.5,-32.6,-39.0,-4.69,0.95,-0.03,0.0,1.0342146779078316,3.7242583154233544,0.03565501527540316,0.35,0,0,0.0
5.298459228999491,224,117.21,98.5,3.6,-16.2,-0.57,-3.33,-0.17,0.17,1.03,-0.07,6.1,-38.0,-54.0,-4.68,1.11,0.0,0.0,1.0462791214585139,3.3827060173772123,0.04676506964956373,0.35,0,0,0.0
5.306332285999815,225,117.22,98.5,3.5,-15.9,-0.3,-3.09,0.0,0.18,1.04,-0.08,5.7,-44.1,-61.0,-4.67,1.3,-0.02,0.0,1.0584894897919392,3.104528949776439,0.05779592922332921,0.35,0,0,0.0
5.317744153999229,226,117.23,98.5,3.5,-15.6,-0.07,-2.84,0.19,0.16,1.05,-0.09,5.2,-52.9,-93.0,-4.65,1.65,0.19,0.0,1.065926826756884,2.8472091598616354,0.06392860086450858,0.35,0,0,0.0
5.326366535999114,227,117.24,98.5,3.5,-15.3,0.06,-2.68,0.35,0.13,1.04,-0.07,4.6,-67.8,-131.0,-4.63,2.04,0.01,0.0,1.0504284840006957,2.70342375516677,0.04746165294615379,0.35,0,0,0.0
5.337725294999473,228,117.25,98.5,3.5,-15.1,0.14,-2.59,0.48,0.09,1.03,-0.07,3.8,-80.3,-123.0,-4.61,2.38,-0.14,0.0,1.0362914647916386,2.6378210705049723,0.03265814106235476,0.35,0,0,0.0
5.34633793499961,229,117.26,98.5,3.5,-14.8,0.24,-2.54,0.57,0.07,1.01,-0.06,2.9,-94.9,-148.0,-4.58,2.84,0.06,0.0,1.0141991914806479,2.6142111620907746,0.010354550396336704,0.35,0,0,0.0
5.357711033999294,230,117.27,98.4,3.5,-14.6,0.28,-2.51,0.66,0.05,0.99,-0.05,1.8,-117.1,-227.0,-4.55,3.63,0.26,0.0,0.9925220400575495,2.6103831136444318,0.011096149006226352,0.35,0,0,0.0
5.366453446999003,231,117.28,98.4,3.6,-14.3,0.38,-2.61,0.71,0.07,0.99,-0.03,0.4,-149.8,-302.0,-4.51,4.56,0.33,0.0,0.9929249719893241,2.731409892344977,0.010479352732962743,0.35,0,0,0.0
5.3776308589986,232,117.29,98.4,3.6,-14.0,0.36,-2.71,0.84,0.08,0.99,-0.04,-1.2,-180.4,-288.0,-4.46,5.31,0.12,0.0,0.9940321926376429,2.859947551966644,0.009184689442951144,0.35,0,0,0.0
5.38635591899947,233,117.3,98.4,3.7,-13.7,0.38,-2.77,0.99,0.1,0.98,-0.06,-3.2,-207.3,-270.0,-4.4,5.98,0.07,0.0,0.9869143833180262,2.9660411325536264,0.015976448787316522,0.35,0,0,0.0
5.3977253590001055,234,117.31,98.5,3.8,-13.5,0.58,-2.76,1.09,0.12,0.97,-0.08,-5.4,-225.3,-177.0,-4.34,6.27,0.01,0.0,0.9806630410084801,3.0235905807499797,0.021783235274925317,0.35,0,0,0.0
5.406331569000031,235,117.32,98.5,3.9,-13.2,0.78,-2.69,1.16,0.12,0.96,-0.1,-7.7,-232.4,-93.0,-4.27,6.37,-0.05,0.0,0.9726253132630263,3.031517771678075,0.029224543759971633,0.35,0,0,0.0
5.417837795999731,236,117.33,98.6,4.0,-12.9,0.84,-2.67,1.17,0.13,0.97,-0.1,-10.1,-234.4,-29.0,-4.21,6.35,-0.13,0.0,0.9837682653958706,3.033710599249704,0.01771995979458474,0.35,0,0,0.0
5.4263401809985226,237,117.34,98.7,4.1,-12.6,0.79,-2.64,1.16,0.14,0.96,-0.11,-12.4,-231.5,15.0,-4.15,6.21,-0.16,0.0,0.9763708311906906,2.989866217742861,0.0246150461197695,0.35,0,0,0.0
5.4375981079992926,238,117.35,98.8,4.2,-12.3,0.72,-2.59,1.12,0.15,0.95,-0.13,-14.7,-226.0,48.0,-4.08,6.02,-0.08,0.0,0.9705153270299238,2.9121984822467026,0.029861139274925508,0.35,0,0,0.0
5.446389458998965,239,117.36,98.8,4.3,-12.1,0.69,-2.5,1.04,0.16,0.95,-0.13,-16.9,-216.2,93.0,-4.03,5.66,0.0,0.0,0.972111104761179,2.7942261898421896,0.027700054312796873,0.35,0,0,0.0
5.457599946999835,240,117.37,98.9,4.5,-11.8,0.6,-2.41,0.96,0.15,0.94,-0.13,-18.9,-202.0,124.0,-3.97,5.27,0.09,0.0,0.960728889958036,2.6626490568604795,0.038300623733621086,0.35,0,0,0.0
5.466448360999493,241,117.38,99.0,4.6,-11.6,0.52,-2.31,0.87,0.15,0.94,-0.14,-20.9,-188.9,123.0,-3.92,4.98,-0.02,0.0,0.9621330469326993,2.522578046364473,0.036158537423778614,0.35,0,0,0.0
5.477414567998494,242,117.39,99.1,4.7,-11.3,0.5,-2.16,0.78,0.14,0.96,-0.14,-22.7,-177.7,119.0,-3.87,4.69,-0.15,0.0,0.9802040603874276,2.3503191272676145,0.017725773489669305,0.35,0,0,0.0
5.4864748869986215,243,117.4,99.1,4.7,-11.1,0.42,-2.05,0.78,0.14,0.97,-0.13,-24.4,-165.6,127.0,-3.83,4.29,0.09,0.0,0.9886354231970448,2.2332263655975404,0.009108522466451108,0.35,0,0,0.0
5.497510788998625,244,117.41,99.1,4.8,-10.9,0.33,-1.94,0.86,0.14,0.99,-0.12,-25.9,-152.4,126.0,-3.79,3.96,-0.32,0.0,1.0070253224224304,2.14758003343298,0.009095749223755778,0.35,0,0,0.0
5.506395320999218,245,117.42,99.2,4.9,-10.7,0.29,-1.86,0.97,0.14,1.0,-0.12,-27.4,-138.5,146.0,-3.75,3.5,-0.08,0.0,1.0168579055108928,2.1176874179160627,0.018549765665973883,0.35,0,0,0.0
5.517913075998877,246,117.43,99.2,5.0,-10.5,0.4,-1.78,1.08,0.14,1.01,-0.12,-28.6,-121.7,159.0,-3.72,3.07,-0.17,0.0,1.0266937225872184,2.1200943375236867,0.027817871087453372,0.35,0,0,0.0
5.526358301000073,247,117.44,99.2,5.1,-10.3,0.43,-1.73,1.16,0.14,1.03,-0.11,-29.7,-106.1,158.0,-3.69,2.63,-0.16,0.0,1.0452750834110607,2.126828624971932,0.045471247273069726,0.35,0,0,0.0
5.5376871099997516,248,117.45,99.3,5.3,-10.1,0.35,-1.68,1.23,0.14,1.02,-0.1,-30.7,-89.8,156.0,-3.67,2.23,-0.08,0.0,1.03440804327886,2.1113502788500065,0.033912122998051686,0.35,0,0,0.0
5.546497401999659,249,117.46,99.3,5.4,-9.9,0.17,-1.75,1.28,0.14,1.0,-0.08,-31.5,-75.0,152.0,-3.65,1.82,0.0,0.0,1.012916580968048,2.17481033655811,0.01217224747349488,0.35,0,0,0.0
5.557649827000205,250,117.47,99.3,5.5,-9.7,0.04,-1.85,1.29,0.14,0.98,-0.08,-32.1,-60.9,142.0,-3.64,1.43,-0.16,0.0,0.9931767214348108,2.2557038812752,0.007416259818547433,0.35,0,0,0.0
5.566389494999385,251,117.48,99.2,5.6,-9.5,0.09,-1.95,1.23,0.14,0.96,-0.09,-32.6,-45.7,153.0,-3.62,1.01,-0.24,0.0,0.9743202758846805,2.30727111540885,0.02574725126130417,0.35,0,0,0.0
5.577913272998558,252,117.49,99.2,5.7,-9.3,0.14,-2.02,1.16,0.13,0.97,-0.1,-33.0,-29.9,155.0,-3.62,0.58,-0.14,0.0,0.9837682653958706,2.3335809392433764,0.015973276515111823,0.35,0,0,0.0
5.586552885999481,253,117.5,99.3,5.8,-9.1,0.15,-2.06,1.12,0.12,0.98,-0.1,-33.2,-14.1,157.0,-3.61,0.13,0.08,0.0,0.9923708984044222,2.3495744295510197,0.0072232306364290455,0.35,0,0,0.0
5.597554729998592,254,117.51,99.3,5.9,-8.9,0.08,-2.13,1.1,0.1,0.99,-0.11,-33.2,-0.3,122.0,-3.61,-0.08,0.0,0.0,1.0010993956645864,2.398603760524026,0.0014751612912604628,0.35,0,0,0.0
5.6066020379985275,255,117.52,99.3,6.0,-8.7,-0.07,-2.21,1.1,0.09,0.99,-0.11,-33.2,2.1,31.0,-3.61,0.0,0.02,0.0,1.0001499887516871,2.46961535466558,0.0005152392907940007,0.35,0,0,0.0
5.617715909000253,256,117.53,99.2,6.1,-8.4,-0.25,-2.27,1.09,0.1,0.97,-0.12,-33.2,-0.9,2.0,-3.61,0.01,0.02,0.0,0.9824968193332739,2.530513781823762,0.01679517152506682,0.35,0,0,0.0
5.626547821999338,257,117.54,99.2,6.1,-8.2,-0.34,-2.31,1.08,0.11,0.97,-0.13,-33.2,0.0,5.0,-3.61,0.0,0.15,0.0,0.9848350115628506,2.5725668115716647,0.014167839709580354,0.35,0,0,0.0
5.637521466998805,258,117.55,99.2,6.2,-7.9,-0.34,-2.29,1.09,0.13,0.97,-0.13,-33.2,-0.1,0.0,-3.61,0.01,-0.17,0.0,0.98726896031426,2.558866936751499,0.01149921313900748,0.35,0,0,0.0
5.646605545000057,259,117.56,99.2,6.3,-7.7,-0.38,-2.27,1.14,0.14,0.96,-0.13,-33.2,-0.3,3.0,-3.61,0.03,-0.15,0.0,0.9788258272031853,2.568443108188305,0.019543499325080482,0.35,0,0,0.0
5.657642471000145,260,117.57,99.2,6.4,-7.4,-0.41,-2.27,1.15,0.15,0.95,-0.14,-33.2,-1.1,-6.0,-3.61,0.05,-0.33,0.0,0.9719053451854249,2.5774987875845836,0.02593470171598411,0.35,0,0,0.0
5.666512458999932,261,117.58,99.1,6.5,-7.2,-0.41,-2.24,1.11,0.15,0.94,-0.15,-33.2,-1.9,-8.0,-3.61,0.06,-0.07,0.0,0.963638936531728,2.533337719294449,0.03351708816228738,0.35,0,0,0.0
5.677486454000245,262,117.59,99.1,6.6,-7.0,-0.43,-2.2,1.05,0.15,0.94,-0.15,-33.3,-2.5,-2.0,-3.61,0.05,0.17,0.0,0.963638936531728,2.47535855988582,0.032846746399041615,0.35,0,0,0.0
5.686446189998605,263,117.6,99.1,6.7,-6.7,-0.45,-2.18,1.0,0.15,0.93,-0.15,-33.3,-1.1,7.0,-3.61,0.01,0.16,0.0,0.9538867857350788,2.440266378902107,0.04174691925177709,0.35,0,0,0.0
5.697638764999283,264,117.61,99.1,6.8,-6.5,-0.39,-2.17,0.97,0.15,0.94,-0.16,-33.3,-0.1,5.0,-3.61,0.01,-0.16,0.0,0.9652460826131334,2.408713349487647,0.029779869926248037,0.35,0,0,0.0
5.706469752998601,265,117.62,99.1,6.9,-6.3,-0.38,-2.11,0.91,0.14,0.94,-0.16,-33.3,-1.3,-7.0,-3.61,0.06,-0.08,0.0,0.9637427042525406,2.329077070429401,0.03065758332110402,0.35,0,0,0.0
5.717592048998995,266,117.63,99.1,7.0,-6.0,-0.4,-2.1,0.82,0.15,0.95,-0.17,-33.3,-2.1,-1.0,-3.61,0.06,0.0,0.0,0.9766780431646859,2.289628790874189,0.017367799520779603,0.35,0,0,0.0
5.726564999999027,267,117.64,99.1,7.0,-5.8,-0.51,-2.04,0.71,0.17,0.96,-0.19,-33.3,-2.4,-5.0,-3.61,0.07,-0.07,0.0,0.9932774033471213,2.219414337161946,0.0007530705515772507,0.35,0,0,0.0
5.737564552999174,268,117.65,99.1,7.1,-5.6,-0.65,-1.91,0.6,0.18,0.97,-0.19,-33.4,-3.4,-9.0,-3.61,0.11,-0.14,0.0,1.0046890066085126,2.1048990474604716,0.010445362055617746,0.35,0,0,0.0
5.746584464999614,269,117.66,99.1,7.1,-5.4,-0.8,-1.8,0.49,0.19,0.96,-0.18,-33.4,-6.2,-37.0,-3.61,0.26,0.0,0.0,0.9950376877284598,2.0298029461009266,0.0007781623120536318,0.35,0,0,0.0
5.757469012000001,270,117.67,99.0,7.2,-5.2,-0.85,-1.7,0.37,0.19,0.95,-0.18,-33.5,-13.6,-59.0,-3.6,0.46,-0.05,0.0,0.985393322486001,1.936336747572591,0.008688878871797034,0.35,0,0,0.0
5.766386428998885,271,117.68,99.0,7.3,-5.1,-0.84,-1.56,0.25,0.2,0.94,-0.19,-33.7,-18.5,-36.0,-3.6,0.48,-0.02,0.0,0.9796427920420789,1.78932948335403,0.014150621129404684,0.35,0,0,0.0
5.777625914999589,272,117.69,98.9,7.3,-4.9,-0.87,-1.38,0.18,0.21,0.94,-0.19,-33.9,-16.7,-4.0,-3.59,0.48,0.15,0.0,0.9817331613019904,1.6412495239907916,0.01181904683210333,0.35,0,0,0.0
5.786445047999223,273,117.7,98.9,7.3,-4.8,-0.92,-1.17,0.16,0.2,0.94,-0.2,-34.0,-18.2,-13.0,-3.59,0.52,0.16,0.0,0.9816312953446421,1.4969635934116767,0.011682494533662546,0.35,0,0,0.0
5.797742888998982,274,117.71,98.8,7.4,-4.7,-0.84,-0.94,0.14,0.19,0.94,-0.21,-34.2,-18.6,5.0,-3.58,0.48,0.01,0.0,0.9817331613019904,1.2683847996566342,0.011349016004787993,0.35,0,0,0.0
5.806373090999841,275,117.72,98.8,7.4,-4.6,-0.64,-0.71,0.09,0.18,0.94,-0.2,-34.4,-18.3,0.0,-3.58,0.48,-0.01,0.0,0.9777525249264253,0.9601041610158764,0.015023059332746058,0.35,0,0,0.0
5.817734565998762,276,117.73,98.8,7.5,-4.5,-0.62,-0.54,0.06,0.19,0.96,-0.19,-34.6,-16.9,15.0,-3.57,0.39,0.23,0.0,0.9968951800465282,0.824378553820998,0.0040372038716097736,0.35,0,0,0.0
5.826120158999402,277,117.74,98.7,7.5,-4.4,-0.76,-0.42,0.1,0.18,0.96,-0.18,-34.7,-13.5,17.0,-3.57,0.38,0.0,0.0,0.9931767214348108,0.8740709353364863,0.00031237035469455776,0.35,0,0,0.0
5.837742710999009,278,117.75,98.7,7.5,-4.4,-0.8,-0.29,0.11,0.17,0.95,-0.18,-34.9,-13.9,9.0,-3.57,0.35,0.0,0.0,0.9817331613019904,0.8580209787645056,0.0109085659825634,0.35,0,0,0.0
5.846547434999593,279,117.76,98.6,7.6,-4.4,-0.71,-0.23,0.1,0.16,0.94,-0.18,-35.0,-12.9,8.0,-3.56,0.32,-0.02,0.0,0.9703607576566562,0.7529940238806679,0.021835350235339668,0.35,0,0,0.0
5.8574908889986546,280,117.77,98.6,7.6,-4.4,-0.65,-0.18,0.07,0.15,0.94,-0.17,-35.1,-9.5,33.0,-3.56,0.19,-0.03,0.0,0.9669539802906858,0.6780855403265874,0.024737285049283853,0.35,0,0,0.0
5.86639715399906,281,117.78,98.6,7.6,-4.3,-0.64,-0.2,0.03,0.14,0.94,-0.16,-35.2,-6.7,17.0,-3.56,0.19,0.17,0.0,0.9637427042525406,0.6711929677819933,0.02738958986568052,0.35,0,0,0.0
5.8776133119990845,282,117.79,98.5,7.6,-4.3,-0.65,-0.23,-0.01,0.14,0.94,-0.17,-35.3,-6.9,6.0,-3.56,0.16,-0.05,0.0,0.9654532614269838,0.6895650803223725,0.025165452037412495,0.35,0,0,0.0
5.886455971998657,283,117.8,98.5,7.6,-4.3,-0.68,-0.24,-0.06,0.14,0.94,-0.16,-35.3,-3.9,31.0,-3.56,0.03,0.0,0.0,0.9637427042525406,0.7236021006050218,0.026338489027618595,0.35,0,0,0.0
5.897679343999698,284,117.81,98.4,7.6,-4.3,-0.65,-0.24,-0.12,0.15,0.95,-0.16,-35.3,0.0,27.0,-3.56,0.0,0.06,0.0,0.9749871794028883,0.7032069396699666,0.014792133599725532,0.35,0,0,0.0
5.90643711499979,285,117.82,98.4,7.6,-4.2,-0.63,-0.23,-0.18,0.15,0.96,-0.17,-35.3,-0.1,4.0,-3.56,0.0,-0.01,0.0,0.9864076236526155,0.6944062211702888,0.003304255562998404,0.35,0,0,0.0
5.917799021999599,286,117.83,98.3,7.6,-4.2,-0.65,-0.16,-0.24,0.16,0.96,-0.18,-35.3,0.2,3.0,-3.56,0.0,-0.07,0.0,0.9897474425326898,0.711125867902441,3.4852050734390794e-05,0.35,0,0,0.0
5.926549340998463,287,117.84,98.3,7.6,-4.2,-0.68,-0.1,-0.3,0.16,0.97,-0.17,-35.3,-0.1,1.0,-3.56,0.0,0.06,0.0,0.9976973488989535,0.749933330370107,0.00782506324865817,0.35,0,0,0.0
5.937512881999282,288,117.85,98.2,7.6,-4.2,-0.73,-0.03,-0.33,0.16,0.96,-0.18,-35.3,0.0,-1.0,-3.56,0.0,0.04,0.0,0.9897474425326898,0.8016857239592083,0.0001223462552534249,0.35,0,0,0.0
5.946362272999977,289,117.86,98.2,7.5,-4.2,-0.74,0.05,-0.33,0.16,0.95,-0.18,-35.3,0.0,0.0,-3.56,0.0,-0.12,0.0,0.9800510190801293,0.8117881497040961,0.009622394313657634,0.35,0,0,0.0
5.957499611999083,290,117.87,98.1,7.5,-4.2,-0.71,0.15,-0.34,0.17,0.95,-0.18,-35.3,-0.1,-1.0,-3.56,0.0,0.04,0.0,0.9817331613019904,0.8013738203859669,0.007781447049960533,0.35,0,0,0.0
5.96591411099871,291,117.88,98.1,7.5,-4.2,-0.61,0.27,-0.33,0.16,0.95,-0.18,-35.3,0.0,0.0,-3.56,0.0,0.07,0.0,0.9800510190801293,0.7442445834535849,0.009274317486385186,0.35,0,0,0.0
5.977321176998885,292,117.89,98.1,7.5,-4.3,-0.56,0.35,-0.33,0.16,0.95,-0.19,-35.3,-0.1,0.0,-3.56,0.0,-0.06,0.0,0.981936861514018,0.73824115301167,0.0072407055514465135,0.35,0,0,0.0
5.990574323999681,293,117.9,98.0,7.5,-4.3,-0.56,0.46,-0.33,0.16,0.95,-0.19,-35.3,-0.4,-2.0,-3.56,0.02,0.01,0.0,0.981936861514018,0.7963039620647383,0.007095891440417557,0.35,0,0,0.0
5.998589291999451,294,117.91,98.0,7.5,-4.4,-0.61,0.55,-0.35,0.16,0.95,-0.19,-35.3,-1.0,-8.0,-3.56,0.05,0.07,0.0,0.981936861514018,0.8928045698807775,0.00695397361160921,0.35,0,0,0.0
6.006417935999707,295,117.92,98.0,7.5,-4.4,-0.62,0.63,-0.35,0.15,0.95,-0.19,-35.4,-2.8,-17.0,-3.55,0.12,-0.01,0.0,0.9803570778037969,0.9506839643120105,0.008363082175393721,0.35,0,0,0.0
6.017736261999744,296,117.93,97.9,7.5,-4.5,-0.63,0.67,-0.33,0.15,0.94,-0.19,-35.4,-6.0,-32.0,-3.55,0.25,0.13,0.0,0.9706698717895801,0.9770875088752287,0.017689282425818353,0.35,0,0,0.0
6.030607679000241,297,117.94,97.9,7.5,-4.6,-0.57,0.73,-0.35,0.15,0.92,-0.2,-35.5,-11.5,-45.0,-3.55,0.38,0.06,0.0,0.9533624704172071,0.990101004948485,0.03429675012222744,0.35,0,0,0.0
6.038364834999811,298,117.95,97.9,7.5,-4.6,-0.5,0.82,-0.39,0.15,0.92,-0.21,-35.7,-17.9,-73.0,-3.54,0.63,0.04,0.0,0.9555103348473003,1.0365809182114052,0.03150590797829156,0.35,0,0,0.0
6.046433698998953,299,117.96,97.9,7.5,-4.7,-0.47,0.92,-0.44,0.17,0.92,-0.21,-35.9,-25.2,-55.0,-3.54,0.72,0.01,0.0,0.9588534820294496,1.122898036332774,0.027599505580219397,0.35,0,0,0.0
6.057732609999221,300,117.97,97.9,7.5,-4.8,-0.41,1.04,-0.49,0.18,0.93,-0.21,-36.2,-29.6,-55.0,-3.53,0.89,0.0,0.0,0.9702576977277738,1.2205736356320336,0.015871384084257367,0.35,0,0,0.0
6.06634121299976,301,117.98,97.8,7.4,-4.9,-0.33,1.15,-0.58,0.18,0.94,-0.22,-36.5,-34.1,-47.0,-3.52,0.99,-0.02,0.0,0.9820386957752734,1.3295864018558552,0.004008578316022637,0.35,0,0,0.0
6.077602251998542,302,117.99,97.8,7.4,-5.1,-0.32,1.28,-0.68,0.18,0.94,-0.22,-36.9,-39.3,-44.0,-3.51,1.12,-0.16,0.0,0.9820386957752734,1.4843180252223578,0.003928406749702185,0.35,0,0,0.0
6.086487917998966,303,118.0,97.7,7.3,-5.2,-0.34,1.39,-0.77,0.18,0.94,-0.22,-37.2,-42.8,-59.0,-3.49,1.28,-0.01,0.0,0.9820386957752734,1.624992307674101,0.003849838614708112,0.35,0,0,0.0
6.0983397439995315,304,118.01,97.7,7.3,-5.4,-0.35,1.5,-0.86,0.17,0.93,-0.22,-37.9,-47.0,-23.0,-3.48,1.25,0.05,0.0,0.9706698717895802,1.7641145087550296,0.014914289348393228,0.35,0,0,0.0
6.106411515998843,305,118.02,97.6,7.2,-5.5,-0.35,1.6,-0.92,0.17,0.93,-0.22,-38.3,-45.8,-3.0,-3.47,1.23,0.14,0.0,0.9706698717895802,1.8785366645343924,0.01461600356142534,0.35,0,0,0.0
6.118801396998606,306,118.03,97.6,7.1,-5.7,-0.29,1.7,-0.99,0.16,0.92,-0.22,-38.8,-45.9,-4.0,-3.46,1.25,-0.08,0.0,0.9593747964169165,1.988517035380889,0.025392857355407306,0.35,0,0,0.0
6.126502002998677,307,118.04,97.5,7.0,-5.9,-0.23,1.78,-1.05,0.15,0.92,-0.22,-39.3,-45.4,5.0,-3.44,1.22,-0.07,0.0,0.9577577981932593,2.079374906071534,0.02646965846748317,0.35,0,0,0.0
6.138353452999581,308,118.05,97.5,7.0,-6.1,-0.18,1.84,-1.13,0.14,0.91,-0.23,-39.7,-45.8,-8.0,-3.43,1.25,0.08,0.0,0.9489994731294639,2.166771792321471,0.0345234238606531,0.35,0,0,0.0
6.146385090998592,309,118.06,97.4,6.9,-6.3,-0.16,1.9,-1.2,0.14,0.9,-0.22,-40.2,-46.1,0.0,-3.42,1.25,0.01,0.0,0.9370165420097982,2.2529092303064497,0.04557622788071236,0.35,0,0,0.0
6.158267761999014,310,118.07,97.4,6.8,-6.5,-0.02,1.96,-1.25,0.14,0.93,-0.22,-40.6,-43.6,25.0,-3.41,1.12,-0.1,0.0,0.9658674857349739,2.3247580519271245,0.01639077847242587,0.35,0,0,0.0
6.1665062149986625,311,118.08,97.4,6.7,-6.7,0.26,2.09,-1.14,0.13,0.99,-0.21,-41.0,-39.7,25.0,-3.4,1.06,-0.16,0.0,1.0203430795570674,2.394848638223301,0.03732311904267427,0.35,0,0,0.0
6.178245133998644,312,118.09,97.5,6.6,-6.9,0.51,2.11,-0.94,0.1,1.03,-0.18,-41.4,-38.6,9.0,-3.39,1.06,0.15,0.0,1.050380883299006,2.365544334820212,0.06601370432892062,0.35,0,0,0.0
6.186688377998507,313,118.1,97.5,6.6,-7.2,0.61,2.03,-0.67,0.09,1.07,-0.16,-41.8,-39.1,-8.0,-3.38,1.09,0.07,0.0,1.0856334556377674,2.223038461205743,0.09924095113432829,0.35,0,0,0.0
6.1983431310000014,314,118.11,97.6,6.5,-7.4,0.47,1.83,-0.41,0.08,1.04,-0.15,-42.2,-39.3,-2.0,-3.36,1.08,0.02,0.0,1.0538026380684384,1.9333649422703414,0.06606193089369938,0.35,0,0,0.0
6.206416880999313,315,118.12,97.6,6.5,-7.5,0.28,1.64,-0.3,0.07,0.97,-0.16,-42.6,-40.5,-2.0,-3.35,1.09,0.07,0.0,0.9855962662266938,1.6905620367203327,0.002101552129084361,0.35,0,0,0.0
6.218813640000008,316,118.13,97.6,6.5,-7.7,0.27,1.55,-0.32,0.08,0.93,-0.16,-43.0,-39.5,11.0,-3.34,1.04,0.18,0.0,0.9470480452437459,1.6055528642807126,0.039836777649791655,0.35,0,0,0.0
6.226308727998912,317,118.14,97.7,6.4,-7.8,0.35,1.49,-0.33,0.09,0.92,-0.16,-43.4,-37.5,19.0,-3.33,0.97,-0.16,0.0,0.9381364506296512,1.5657266683556235,0.04777340481860859,0.35,0,0,0.0
6.238377034998848,318,118.15,97.7,6.4,-8.0,0.51,1.44,-0.32,0.08,0.94,-0.15,-43.7,-35.3,18.0,-3.32,0.93,0.29,0.0,0.9552486587271399,1.5608010763707205,0.030047972786697463,0.35,0,0,0.0
6.2465139599989925,319,118.16,97.8,6.4,-8.1,0.75,1.34,-0.26,0.07,0.98,-0.14,-44.1,-34.7,1.0,-3.31,0.96,0.0,0.0,0.9924212815130478,1.5574658904772203,0.006982156999226108,0.35,0,0,0.0
6.258317843999976,320,118.17,97.8,6.4,-8.3,0.8,1.16,-0.14,0.07,1.02,-0.13,-44.5,-37.1,-15.0,-3.3,1.03,-0.05,0.0,1.0306308747558457,1.4160508465447135,0.04428791523718356,0.35,0,0,0.0
6.266401320999648,321,118.18,97.9,6.3,-8.4,0.69,1.03,0.0,0.07,1.05,-0.12,-44.9,-41.1,-43.0,-3.29,1.2,0.26,0.0,1.0591506030777682,1.239758040909596,0.0713514906879239,0.35,0,0,0.0
6.2783602609997615,322,118.19,97.9,6.3,-8.5,0.62,0.92,0.11,0.07,1.04,-0.12,-45.3,-47.2,-51.0,-3.28,1.35,0.0,0.0,1.049237818609299,1.114854250563723,0.060209932095065644,0.35,0,0,0.0
6.286542451000059,323,118.2,98.0,6.3,-8.6,0.7,0.81,0.19,0.08,1.03,-0.13,-45.8,-49.8,-23.0,-3.27,1.35,0.05,0.0,1.0412492496996095,1.0872902096496593,0.05117693592166861,0.35,0,0,0.0
6.298308045999875,324,118.21,98.1,6.4,-8.6,0.85,0.75,0.26,0.09,1.02,-0.14,-46.3,-48.6,3.0,-3.25,1.28,0.13,0.0,1.0334892355511014,1.1630133275246677,0.04254858333769729,0.35,0,0,0.0
6.306417584999508,325,118.22,98.1,6.4,-8.7,0.96,0.74,0.29,0.11,1.0,-0.15,-46.8,-47.3,4.0,-3.24,1.28,0.05,0.0,1.017152889196113,1.2463145670335398,0.025687992243054736,0.35,0,0,0.0
6.318623051998657,326,118.23,98.2,6.4,-8.8,1.09,0.77,0.34,0.13,1.02,-0.15,-47.2,-47.1,0.0,-3.23,1.28,0.29,0.0,1.0391342550411857,1.3771710133458372,0.046715970926364925,0.35,0,0,0.0
6.326502733998495,327,118.24,98.3,6.5,-8.8,1.12,0.81,0.47,0.14,1.04,-0.15,-47.7,-48.0,-5.0,-3.21,1.31,-0.04,0.0,1.0600471687618434,1.4599315052426263,0.06627630695408204,0.35,0,0,0.0
6.338385479999488,328,118.25,98.5,6.6,-8.9,1.14,0.84,0.58,0.16,1.05,-0.16,-48.2,-48.5,6.0,-3.2,1.28,0.04,0.0,1.074104277991667,1.5302287410710858,0.0787267478602276,0.35,0,0,0.0
6.346456190998651,329,118.26,98.6,6.7,-9.0,1.23,0.92,0.64,0.16,1.05,-0.17,-48.7,-44.9,30.0,-3.19,1.17,0.07,0.0,1.0756393447619885,1.664001201922643,0.07865657833793815,0.35,0,0,0.0
6.358239096000034,330,118.27,98.7,6.8,-9.1,1.24,1.07,0.58,0.14,1.04,-0.17,-49.1,-41.0,38.0,-3.18,1.05,0.04,0.0,1.0630616162763098,1.737498201437918,0.06475727285521427,0.35,0,0,0.0
6.366706828999668,331,118.28,98.8,6.9,-9.2,1.16,1.27,0.42,0.14,1.02,-0.17,-49.5,-36.5,46.0,-3.17,0.91,-0.14,0.0,1.0435037134576954,1.7705648816126451,0.04429538263586785,0.35,0,0,0.0
6.3781325689997175,332,118.29,98.9,6.9,-9.3,1.1,1.55,0.22,0.14,1.01,-0.18,-49.8,-30.3,60.0,-3.16,0.73,-0.06,0.0,1.0354226190305098,1.9133478512805768,0.03549000244450862,0.35,0,0,0.0
6.386402252999687,333,118.3,99.0,7.0,-9.5,1.16,1.85,0.04,0.13,1.02,-0.17,-50.0,-21.9,79.0,-3.15,0.48,-0.03,0.0,1.0422091920531116,2.1839642854222685,0.04143104395776809,0.35,0,0,0.0
6.398355200999504,334,118.31,99.1,7.0,-9.7,1.16,2.06,-0.05,0.14,1.02,-0.16,-50.2,-13.1,94.0,-3.15,0.21,0.01,0.0,1.0419213022104885,2.3646775678726266,0.04032029103284218,0.35,0,0,0.0
6.406443882999156,335,118.32,99.2,7.0,-9.9,1.17,2.39,-0.1,0.16,1.02,-0.17,-50.2,0.0,112.0,-3.15,-0.12,-0.22,0.0,1.0463746938836012,2.662893163459623,0.043878209051835704,0.35,0,0,0.0
6.418384024998886,336,118.33,99.3,7.1,-10.2,1.15,2.7,-0.12,0.17,1.01,-0.14,-50.2,4.7,46.0,-3.15,-0.12,0.06,0.0,1.0337311062360464,2.937158490786631,0.03060992897619519,0.35,0,0,0.0
6.426570695999544,337,118.34,99.4,7.2,-10.5,1.16,2.98,-0.15,0.18,0.97,-0.13,-50.2,4.2,11.0,-3.15,-0.1,0.01,0.0,0.9950879358127099,3.201327849502453,0.007872576618198512,0.35,0,0,0.0
6.438284179999755,338,118.35,99.4,7.2,-10.8,1.23,3.23,-0.22,0.19,0.95,-0.11,-50.1,3.7,6.0,-3.15,-0.11,0.29,0.0,0.9750384607798812,3.4632643560663974,0.02736361061800663,0.35,0,0,0.0
6.446703644000081,339,118.36,99.5,7.3,-11.1,1.27,3.45,-0.26,0.19,0.95,-0.11,-50.1,6.0,24.0,-3.16,-0.22,-0.16,0.0,0.9750384607798812,3.685512176075396,0.026816338405646567,0.35,0,0,0.0
6.45812522199958,340,118.37,99.5,7.4,-11.5,1.16,3.67,-0.27,0.18,0.94,-0.09,-50.0,14.3,93.0,-3.16,-0.59,0.01,0.0,0.9613012014972206,3.858419365491522,0.03974252573454096,0.35,0,0,0.0
6.466425231999892,341,118.38,99.5,7.4,-11.9,1.09,3.87,-0.29,0.17,0.94,-0.07,-49.7,28.3,121.0,-3.17,-0.94,-0.05,0.0,0.9578100020358944,4.031017241342438,0.04236905069194985,0.35,0,0,0.0
6.478278636999676,342,118.39,99.5,7.5,-12.3,0.99,4.05,-0.36,0.14,0.92,-0.07,-49.3,43.2,138.0,-3.18,-1.35,-0.18,0.0,0.9332202312423366,4.184758057522561,0.06561964505579754,0.35,0,0,0.0
6.48656570699859,343,118.4,99.5,7.5,-12.7,0.96,4.21,-0.48,0.1,0.91,-0.05,-48.8,61.3,177.0,-3.2,-1.91,-0.13,0.0,0.9168424073961675,4.344663393175587,0.08035751952392722,0.35,0,0,0.0
6.4984850410000945,344,118.41,99.6,7.5,-13.1,0.88,4.31,-0.58,0.07,0.92,-0.05,-48.0,83.5,216.0,-3.22,-2.56,-0.01,0.0,0.9240129869217207,4.436992224469184,0.07172320119840647,0.35,0,0,0.0
6.506436251998821,345,118.42,99.6,7.5,-13.6,0.8,4.42,-0.65,0.05,0.93,-0.05,-47.0,108.5,234.0,-3.25,-3.23,-0.16,0.0,0.9326842981416595,4.538601106067816,0.06179085217889835,0.35,0,0,0.0
6.518339043999731,346,118.43,99.6,7.6,-14.0,0.71,4.5,-0.62,0.03,0.94,-0.04,-45.8,131.0,231.0,-3.29,-3.86,0.09,0.0,0.9413288479590965,4.597662449549771,0.0520833763142321,0.35,0,0,0.0
6.526547067998763,347,118.44,99.6,7.6,-14.5,0.63,4.53,-0.57,0.02,0.97,-0.03,-44.3,154.3,229.0,-3.33,-4.47,-0.11,0.0,0.9706698717895801,4.608980364462404,0.02228750543407354,0.35,0,0,0.0
6.538224349998927,348,118.45,99.6,7.6,-15.0,0.58,4.48,-0.45,0.02,1.0,-0.03,-42.8,175.1,227.0,-3.38,-5.13,-0.17,0.0,1.000649788887201,4.53974668896845,0.007538563430276479,0.35,0,0,0.0
6.546680575998835,349,118.46,99.6,7.6,-15.4,0.52,4.35,-0.32,0.01,1.02,-0.02,-40.9,197.5,219.0,-3.44,-5.67,-0.16,0.0,1.0202450685987166,4.392641574269405,0.02659116627895619,0.35,0,0,0.0
6.558190667999952,350,118.47,99.6,7.7,-15.8,0.45,4.16,-0.22,0.01,1.03,-0.02,-38.7,219.1,221.0,-3.5,-6.3,-0.16,0.0,1.0302426898551622,4.190047732425014,0.035857011784693804,0.35,0,0,0.0
6.566461514999901,351,118.48,99.6,7.7,-16.2,0.4,3.96,-0.15,0.03,1.02,-0.04,-36.4,243.2,237.0,-3.57,-6.98,-0.07,0.0,1.0212247548899311,3.982976274094537,0.026302295283073485,0.35,0,0,0.0
6.578390815999228,352,118.49,99.6,7.8,-16.6,0.42,3.83,-0.14,0.04,1.01,-0.06,-33.8,267.4,231.0,-3.64,-7.59,-0.15,0.0,1.0125709851659783,3.8555025612752485,0.017295555047938227,0.35,0,0,0.0
6.58647967700017,353,118.5,99.6,7.8,-17.0,0.52,3.71,-0.17,0.06,1.01,-0.07,-31.0,287.1,197.0,-3.72,-8.06,0.01,0.0,1.0141991914806479,3.7501199980800615,0.018545286135355554,0.35,0,0,0.0
6.598275538999587,354,118.51,99.6,7.9,-17.4,0.62,3.6,-0.25,0.07,1.0,-0.08,-28.0,306.5,211.0,-3.8,-8.7,-0.07,0.0,1.0056341282991543,3.6615433904297787,0.009780618494784843,0.35,0,0,0.0
6.606575879999582,355,118.52,99.5,7.8,-17.7,0.65,3.48,-0.44,0.07,0.99,-0.09,-24.7,331.0,233.0,-3.9,-9.36,-0.11,0.0,0.9965440281292142,3.5674220383913084,0.0006767079583477331,0.35,0,0,0.0
6.618316233998485,356,118.53,99.5,7.8,-18.1,0.76,3.31,-0.71,0.08,0.99,-0.1,-21.3,351.5,192.0,-3.99,-9.78,0.01,0.0,0.9982484660644363,3.4695532853668642,0.0023335229756984432,0.35,0,0,0.0
6.626459645000068,357,118.54,99.5,7.8,-18.4,0.97,3.19,-0.96,0.08,0.99,-0.13,-17.6,372.4,246.0,-4.1,-10.61,0.0,0.0,1.0016985574512922,3.4696685720685196,0.0056679420753033005,0.35,0,0,0.0
6.638276808998853,358,118.55,99.6,7.7,-18.8,1.12,3.13,-1.23,0.08,1.0,-0.15,-13.7,402.7,259.0,-4.21,-11.29,-0.07,0.0,1.014347080638575,3.544601529086168,0.017950135957334412,0.35,0,0,0.0
6.646729744999902,359,118.56,99.7,7.6,-19.1,1.21,3.09,-1.43,0.07,1.0,-0.16,-9.5,423.5,218.0,-4.32,-11.83,-0.08,0.0,1.0151354589413177,3.6134609448560533,0.018363743974875613,0.35,0,0,0.0
6.658129551999082,360,118.57,99.7,7.4,-19.4,1.25,3.05,-1.55,0.06,1.01,-0.16,-5.1,444.5,215.0,-4.45,-12.37,0.01,0.0,1.02435345462394,3.6424579613222714,0.02703010486434787,0.35,0,0,0.0
6.666498106998915,361,118.58,99.8,7.3,-19.8,1.28,2.94,-1.6,0.05,1.01,-0.16,-0.5,465.6,232.0,-4.57,-13.03,-0.08,0.0,1.023816389788716,3.5835736353534022,0.025963179228541522,0.35,0,0,0.0
6.67833401200005,362,118.59,99.9,7.1,-20.1,1.2,2.83,-1.59,0.03,1.0,-0.17,4.1,464.7,-163.0,-4.7,-11.52,0.41,0.0,1.014790618797789,3.4607802588433727,0.01659866007286226,0.35,0,0,0.0
6.686419530999046,363,118.6,100.0,7.0,-20.4,1.17,2.75,-1.59,0.02,1.0,-0.16,8.1,366.8,-811.0,-4.79,-8.53,0.03,0.0,1.012916580968048,3.3851883256327113,0.01443012979825875,0.35,0,0,0.0
6.6982382139995025,364,118.61,100.0,6.8,-20.7,1.2,2.63,-1.64,0.01,1.0,-0.15,11.3,303.1,-490.0,-4.87,-7.85,0.19,0.0,1.011236866416568,3.323627536292236,0.012495406941843257,0.35,0,0,0.0
6.7064294689989765,365,118.62,100.1,6.6,-21.0,0.75,2.5,-1.52,0.0,1.03,-0.16,14.1,265.9,-509.0,-4.94,-6.26,0.35,0.0,1.0423531071570709,3.0204138789245425,0.04273941472869913,0.35,0,0,0.0
6.718336800999168,366,118.63,100.1,6.5,-21.2,0.42,2.4,-1.42,0.0,0.99,-0.14,16.2,192.8,-723.0,-4.98,-3.9,0.27,0.0,0.9998499887483121,2.8200709210940067,0.00023157039354160247,0.35,0,0,0.0
6.726541741998517,367,118.64,100.1,6.4,-21.5,0.24,2.13,-1.36,-0.01,0.97,-0.13,17.5,102.9,-838.0,-5.01,-1.45,0.33,0.0,0.9787236586493656,2.5385231927244627,0.02047686451129682,0.35,0,0,0.0
6.7382844269995985,368,118.65,100.1,6.3,-21.7,0.12,1.87,-1.32,-0.01,0.96,-0.14,18.0,19.0,-773.0,-5.01,0.33,0.0,0.0,0.9702061636580134,2.292095111464618,0.028414472312596084,0.35,0,0,0.0
6.746699956998782,369,118.66,100.1,6.2,-21.9,-0.03,1.71,-1.26,-0.01,0.96,-0.14,17.9,-15.4,-316.0,-5.0,0.24,0.01,0.0,0.9702061636580134,2.1242881160520577,0.027846182866344216,0.35,0,0,0.0
6.758132349999869,370,118.67,100.1,6.1,-22.1,-0.33,1.53,-1.16,-0.02,0.96,-0.14,17.8,0.8,7.0,-5.0,-0.17,-0.06,0.0,0.9703607576566562,1.9481786365731455,0.02713775709034738,0.35,0,0,0.0
6.766435535999335,371,118.68,100.0,6.0,-22.2,-0.48,1.33,-1.07,-0.03,0.93,-0.14,17.8,2.1,-52.0,-5.0,0.1,0.1,0.0,0.9409569596958195,1.7731892172015935,0.055410723950160445,0.35,0,0,0.0
6.77835321999919,372,118.69,99.9,5.9,-22.4,-0.46,1.07,-1.03,-0.03,0.93,-0.16,17.8,-2.7,-9.0,-5.0,0.0,0.01,0.0,0.9441398201537736,1.5547990223819925,0.051183306222362224,0.35,0,0,0.0
6.786363045999678,373,118.7,99.9,5.8,-22.5,-0.43,0.86,-1.0,-0.02,0.92,-0.19,17.8,2.4,23.0,-5.01,-0.06,0.26,0.0,0.9396275858019495,1.3872634933566153,0.054581629762702644,0.35,0,0,0.0
6.798355629000071,374,118.71,99.8,5.8,-22.6,-0.46,0.83,-0.95,-0.02,0.93,-0.22,17.8,-0.5,-24.0,-5.0,0.06,-0.06,0.0,0.9558765610684259,1.3427583550289308,0.03756600140630173,0.35,0,0,0.0
6.80641051999919,375,118.72,99.8,5.7,-22.7,-0.52,0.82,-0.89,-0.02,0.95,-0.23,17.8,-0.3,11.0,-5.0,-0.02,0.02,0.0,0.9776502442080194,1.3171560272040665,0.015476471901374023,0.35,0,0,0.0
6.818277315998785,376,118.73,99.7,5.6,-22.8,-0.71,0.77,-0.75,-0.01,0.96,-0.24,17.8,0.1,-5.0,-5.0,0.03,0.1,0.0,0.9895958771134811,1.2882158204276177,0.0034602222159940688,0.35,0,0,0.0
6.8264474569987215,377,118.74,99.6,5.6,-22.9,-0.79,0.74,-0.61,0.0,0.96,-0.26,17.8,-0.7,-1.0,-5.0,0.0,0.18,0.0,0.9945853407325085,1.2424974849069113,0.0014986565749727232,0.35,0,0,0.0
6.83829736899861,378,118.75,99.5,5.5,-22.9,-0.84,0.66,-0.46,0.0,0.96,-0.25,17.8,0.5,8.0,-5.0,-0.03,0.02,0.0,0.9920181449953422,1.163099307883897,0.0010471683789496922,0.35,0,0,0.0
6.846676347999164,379,118.76,99.4,5.5,-23.0,-0.95,0.63,-0.31,0.01,0.97,-0.26,17.8,0.3,-4.0,-5.0,0.02,0.1,0.0,1.004290794541103,1.1813128290169375,0.011000971543474902,0.35,0,0,0.0
6.858435959999042,380,118.77,99.3,5.5,-23.1,-1.0,0.63,-0.22,0.02,0.95,-0.26,17.8,-0.3,1.0,-5.0,0.0,-0.21,0.0,0.9851395840184273,1.2022063050907694,0.007987234199616888,0.35,0,0,0.0
6.8664444890000595,381,118.78,99.2,5.5,-23.2,-1.04,0.62,-0.13,0.02,0.94,-0.25,17.8,0.0,-6.0,-5.0,0.03,0.26,0.0,0.9728823155962903,1.2177438154226037,0.019839612569318765,0.35,0,0,0.0
6.878387703998669,382,118.79,99.1,5.5,-23.2,-1.02,0.56,-0.06,0.02,0.94,-0.24,17.8,-0.3,7.0,-5.0,-0.01,-0.13,0.0,0.9703607576566562,1.1651609330903607,0.02191394709877381,0.35,0,0,0.0
6.8864883899987035,383,118.8,99.0,5.5,-23.3,-0.96,0.48,0.03,0.01,0.94,-0.24,17.8,0.3,-2.0,-5.0,0.0,0.1,0.0,0.9702061636580134,1.0737318100903968,0.021627170275468344,0.35,0,0,0.0
6.898337021999396,384,118.81,98.9,5.5,-23.3,-0.93,0.35,0.13,0.01,0.94,-0.24,17.8,-0.3,0.0,-5.0,-0.01,0.1,0.0,0.9702061636580134,1.0021476937058729,0.021194626869958988,0.35,0,0,0.0
6.906374410998978,385,118.82,98.8,5.5,-23.3,-0.96,0.21,0.25,0.0,0.94,-0.23,17.8,0.5,2.0,-5.0,0.0,0.02,0.0,0.9677293009927931,1.0140019723846694,0.02319805974447564,0.35,0,0,0.0
6.9182653249990835,386,118.83,98.7,5.6,-23.3,-1.0,0.04,0.4,-0.02,0.93,-0.23,17.8,-0.6,-5.0,-5.0,0.01,-0.05,0.0,0.9582275303913993,1.0777754868245983,0.03204583373895209,0.35,0,0,0.0
6.930612980999285,387,118.84,98.6,5.6,-23.3,-1.01,-0.16,0.56,-0.04,0.92,-0.23,17.8,0.1,9.0,-5.0,-0.03,0.02,0.0,0.9491575211733825,1.165890217816412,0.040293526097829546,0.35,0,0,0.0
6.938565304999429,388,118.85,98.5,5.7,-23.3,-0.93,-0.36,0.73,-0.07,0.92,-0.23,17.8,0.4,-7.0,-5.0,0.01,0.35,0.0,0.9508943158942533,1.2358802530989805,0.0377855967494195,0.35,0,0,0.0
6.946597280999413,389,118.86,98.4,5.7,-23.2,-0.82,-0.64,0.92,-0.09,0.9,-0.22,17.8,-0.9,-4.0,-5.0,0.0,-0.13,0.0,0.9308598175880191,1.388668426947196,0.05666369315454067,0.35,0,0,0.0
6.958275840999704,390,118.87,98.4,5.8,-23.1,-0.75,-0.97,1.04,-0.1,0.89,-0.21,17.8,0.9,8.0,-5.0,0.0,0.35,0.0,0.9198912979260104,1.6077935190813526,0.06627956856021833,0.35,0,0,0.0
6.966330687999289,391,118.88,98.3,5.9,-23.0,-0.58,-1.25,1.1,-0.08,0.89,-0.22,17.8,-0.7,-7.0,-5.0,0.01,0.1,0.0,0.9202716990106781,1.7632073048850496,0.06458118412603964,0.35,0,0,0.0
6.978293875999952,392,118.89,98.3,6.0,-22.8,-0.36,-1.38,1.05,-0.04,0.9,-0.25,17.8,0.0,5.0,-5.0,-0.01,0.1,0.0,0.9349331526906082,1.7710166571774528,0.048921335837187385,0.35,0,0,0.0
6.986581414999819,393,118.9,98.3,6.1,-22.7,-0.26,-1.37,0.99,0.0,0.93,-0.26,17.8,0.0,-6.0,-5.0,0.01,0.02,0.0,0.9656603957913984,1.7101461925812074,0.01783021088166925,0.35,0,0,0.0
6.9985987009986275,394,118.91,98.2,6.2,-22.5,-0.34,-1.29,0.92,0.03,0.97,-0.26,17.8,-0.2,2.0,-5.0,-0.01,-0.05,0.0,1.0046890066085128,1.6205246064160828,0.020774431936736226,0.35,0,0,0.0
7.00629846099946,395,118.92,98.2,6.2,-22.4,-0.61,-1.13,0.89,0.06,0.99,-0.27,17.8,0.0,0.0,-5.0,0.0,-0.13,0.0,1.0279105019407089,1.562401996926527,0.0431160087235537,0.35,0,0,0.0
7.0184110019999935,396,118.93,98.1,6.3,-22.3,-0.97,-0.96,0.91,0.08,0.99,-0.27,17.8,0.0,0.0,-5.0,0.0,-0.13,0.0,1.0292715870944849,1.6403048497154424,0.043587551999783036,0.35,0,0,0.0
7.026565619999019,397,118.94,98.0,6.4,-22.2,-1.17,-0.76,0.98,0.1,0.96,-0.26,17.8,0.0,-4.0,-5.0,0.01,0.02,0.0,0.999599919967984,1.7049633427144408,0.013637567175816545,0.35,0,0,0.0
7.038643066998702,398,118.95,98.0,6.5,-22.1,-1.07,-0.61,1.09,0.1,0.93,-0.27,17.8,0.0,3.0,-5.0,0.0,0.1,0.0,0.9735502041497398,1.6447188209539039,0.012163905669579145,0.35,0,0,0.0
7.0464313339998625,399,118.96,97.9,6.6,-22.0,-0.72,-0.42,1.17,0.09,0.9,-0.29,17.8,0.0,-2.0,-5.0,0.0,0.02,0.0,0.9498420921395303,1.4365583872575454,0.03515457732619287,0.35,0,0,0.0
7.058632475000195,400,118.97,97.8,6.7,-22.0,-0.33,-0.23,1.2,0.07,0.88,-0.29,17.8,0.1,0.0,-5.0,0.01,-0.05,0.0,0.9291931984253866,1.2656223765404908,0.054687401619529785,0.35,0,0,0.0
7.066559632999997,401,118.98,97.8,6.8,-22.0,-0.04,-0.18,1.27,0.05,0.89,-0.28,17.8,-0.3,0.0,-5.0,0.0,0.1,0.0,0.9343446901438462,1.2833160171991933,0.04854519170304872,0.35,0,0,0.0
7.078382231999058,402,118.99,97.8,7.0,-21.9,0.14,-0.28,1.41,0.02,0.89,-0.27,17.8,0.1,-3.0,-5.0,0.0,-0.05,0.0,0.9302687783646186,1.4443337564427412,0.051568681412630824,0.35,0,0,0.0
7.086454533999131,403,119.0,97.9,7.1,-21.9,0.3,-0.51,1.52,-0.02,0.9,-0.27,17.8,-0.1,-1.0,-5.0,0.0,-0.13,0.0,0.9398404119849284,1.6311039206623223,0.041157106836474666,0.35,0,0,0.0
7.098259796999628,404,119.01,97.9,7.2,-21.8,0.43,-0.81,1.52,-0.06,0.91,-0.22,17.8,0.1,0.0,-5.0,0.0,0.18,0.0,0.9381364506296512,1.7752182964356806,0.0420038468279168,0.35,0,0,0.0
7.106657575999634,405,119.02,98.0,7.4,-21.6,0.64,-1.36,1.13,-0.07,0.93,-0.18,17.8,0.0,0.0,-5.0,0.0,-0.05,0.0,0.9498420921395304,1.8804520733057783,0.029692241211676906,0.35,0,0,0.0
7.118303025999921,406,119.03,98.1,7.4,-21.5,0.94,-1.68,0.47,-0.02,0.97,-0.19,17.8,0.0,0.0,-5.0,0.0,-0.05,0.0,0.9886354231970448,1.9816407343411164,0.00891906804892073,0.35,0,0,0.0
7.126629160999073,407,119.04,98.2,7.4,-21.3,1.05,-1.84,-0.3,0.01,0.99,-0.25,17.8,-0.1,-6.0,-5.0,0.03,0.1,0.0,1.0211268285575499,2.139649504007607,0.04058226394123732,0.35,0,0,0.0
7.138292214000103,408,119.05,98.4,7.3,-21.1,0.9,-1.76,-0.82,0.02,0.99,-0.29,17.8,-0.4,2.0,-5.0,0.0,-0.13,0.0,1.0317945531936095,2.1400934559032696,0.05022498880575099,0.35,0,0,0.0
7.1466765309996845,409,119.06,98.5,7.2,-21.0,0.75,-1.79,-1.09,0.02,0.97,-0.24,17.8,-0.5,-5.0,-5.0,0.03,-0.04,0.0,0.9994498486667552,2.2259155419736842,0.017522678593318797,0.35,0,0,0.0
7.158090848999564,410,119.07,98.6,7.0,-20.8,0.94,-1.95,-1.3,0.06,0.96,-0.22,17.8,-1.4,-6.0,-5.0,0.04,-0.12,0.0,0.9867117106835208,2.5250940576540906,0.004688849797882644,0.35,0,0,0.0
7.166433540000071,411,119.08,98.7,6.9,-20.6,1.22,-1.88,-1.56,0.14,1.0,-0.24,17.8,-2.2,-7.0,-5.0,0.06,0.13,0.0,1.0378824596263299,2.730640950399741,0.05474240676587783,0.35,0,0,0.0
7.178439448000063,412,119.09,98.9,6.7,-20.5,1.26,-1.53,-1.89,0.21,1.07,-0.22,17.8,-0.7,12.0,-5.0,0.0,0.11,0.0,1.112384825498802,2.738722329846529,0.12665987718558303,0.35,0,0,0.0
7.18643924800017,413,119.1,99.1,6.5,-20.4,1.25,-1.13,-2.48,0.25,1.12,-0.16,17.8,0.2,0.0,-5.0,0.01,-0.11,0.0,1.158663022625647,2.998299518060195,0.16947931282617934,0.35,0,0,0.0
7.198321604999364,414,119.11,99.2,6.2,-20.3,1.48,-0.66,-3.33,0.32,1.18,-0.2,17.8,-0.2,3.0,-5.0,0.0,-0.19,0.0,1.2388704532758863,3.703363336212098,0.24469300860689036,0.35,0,0,0.0
7.206430932999865,415,119.12,99.4,5.8,-20.4,1.61,0.13,-3.98,0.36,1.28,-0.26,17.8,0.0,0.0,-5.0,0.0,0.04,0.0,1.354843164355196,4.29527647538549,0.3534524052924759,0.35,0,1,0.0
7.218302952000158,416,119.13,99.5,5.4,-20.5,1.28,0.85,-4.04,0.28,1.29,-0.25,17.8,0.1,0.0,-5.0,0.0,0.03,0.0,1.3435028842544403,4.322325762827231,0.33526988268788593,0.35,0,1,0.0
7.226414111999475,417,119.14,99.6,5.1,-20.7,0.7,1.22,-3.6,0.12,1.25,-0.2,17.8,-0.1,-1.0,-5.0,0.0,0.09,0.0,1.271573827978541,3.865022639002261,0.25807400988374685,0.35,0,1,0.0
7.238320456999645,418,119.15,99.6,4.8,-20.8,0.4,1.16,-2.75,-0.05,1.2,-0.14,17.8,-1.0,-10.0,-5.0,0.05,-0.03,0.0,1.2091732712891068,3.0113286104309505,0.1917599841304265,0.35,0,1,0.0
7.246619076999195,419,119.16,99.6,4.6,-21.0,0.63,0.74,-1.8,-0.19,1.16,-0.1,17.7,-3.3,-23.0,-5.0,0.13,0.16,0.0,1.179703352542494,2.0456050449683585,0.15904426407613736,0.35,0,1,0.0
7.258247616999142,420,119.17,99.7,4.5,-21.0,1.41,0.0,-0.99,-0.27,1.15,-0.02,17.7,-11.5,-89.0,-5.0,0.49,0.2,0.0,1.1814397995666135,1.7228464818433473,0.1575650968782516,0.35,0,1,0.0
7.266545646998566,421,119.18,99.9,4.4,-21.0,1.75,-0.8,-0.44,-0.25,1.23,0.0,17.4,-26.4,-125.0,-4.99,0.87,0.02,0.0,1.2551493934986384,1.9738540979515178,0.22664919699407093,0.35,0,1,0.0
7.278473316999225,422,119.19,100.1,4.4,-20.9,1.24,-1.47,0.05,-0.19,1.27,-0.01,17.1,-38.8,-124.0,-4.98,1.21,-0.11,0.0,1.284172885557081,1.9237983262286096,0.2505592352714634,0.35,0,1,0.0
7.286464664999585,423,119.2,100.2,4.4,-20.7,0.29,-1.95,0.43,-0.1,1.24,-0.05,16.6,-52.8,-136.0,-4.96,1.6,0.2,0.0,1.2450301201175817,2.0177958271341527,0.20718814043532485,0.35,0,1,0.0
7.298322491998988,424,119.21,100.1,4.4,-20.5,-0.69,-2.19,0.58,0.0,1.17,0.0,16.0,-69.3,-164.0,-4.94,2.12,0.11,0.0,1.17,2.3682482977931176,0.12951485991138822,0.35,0,1,0.0
7.306417897998472,425,119.22,100.1,4.4,-20.2,-1.39,-2.63,0.61,0.07,1.09,0.05,15.1,-93.7,-259.0,-4.92,2.98,0.02,0.0,1.0933892262136116,3.036626417589098,0.05184600440249976,0.35,0,1,0.0
7.318250921998697,426,119.23,99.9,4.4,-19.9,-1.85,-2.99,0.58,0.14,1.02,0.08,13.9,-127.3,-306.0,-4.88,3.87,0.12,0.0,1.032666451474047,3.5635656300957894,0.008699234930323652,0.35,0,1,0.0
7.3264527510000335,427,119.24,99.7,4.4,-19.6,-2.21,-3.24,0.62,0.16,0.96,0.11,12.4,-158.3,-283.0,-4.84,4.58,-0.18,0.0,0.979438614717635,3.97065485782887,0.060688530253000694,0.35,0,1,0.0
7.338303034999626,428,119.25,99.5,4.4,-19.3,-2.38,-3.44,0.68,0.15,0.91,0.12,10.7,-175.0,-167.0,-4.79,4.85,0.12,0.0,0.9300537618869137,4.237971212738472,0.10787191542204766,0.35,0,1,0.0
7.34663505699973,429,119.26,99.3,4.4,-18.9,-2.17,-3.71,0.77,0.13,0.86,0.13,9.0,-175.3,-4.0,-4.74,4.57,-0.09,0.0,0.879431634636826,4.3664516486501945,0.15532416181869269,0.35,0,1,0.0
7.3582143599996925,430,119.27,99.2,4.5,-18.5,-1.96,-3.92,0.85,0.1,0.81,0.09,7.4,-149.9,212.0,-4.7,3.63,-0.08,0.0,0.8210968274204937,4.46435885654368,0.20938578965432453,0.35,0,1,0.0
7.366457127000103,431,119.28,99.0,4.5,-18.1,-1.75,-4.04,0.81,0.07,0.77,0.08,6.1,-124.7,175.0,-4.67,3.27,0.0,0.0,0.777303029712351,4.476628195416724,0.24811599561521802,0.35,0,1,0.0
7.37836144099856,432,119.29,98.9,4.5,-17.7,-1.32,-4.19,0.58,0.06,0.76,0.05,4.9,-117.8,77.0,-4.64,3.21,-0.1,0.0,0.7640026177965623,4.431128524428061,0.25618807938038646,0.35,0,1,0.0
7.386495639999339,433,119.3,98.8,4.5,-17.3,-0.92,-4.26,0.28,0.06,0.79,0.0,3.7,-119.3,19.0,-4.61,3.24,-0.08,0.0,0.7922752047110904,4.367195896682446,0.22335718261654125,0.35,0,1,0.0
7.398326119999183,434,119.31,98.7,4.4,-16.8,-0.88,-4.15,0.13,0.09,0.87,-0.06,2.5,-120.2,-11.0,-4.57,3.34,0.01,0.0,0.8766983517721475,4.244266721119209,0.13615535484437447,0.35,0,1,0.0
7.4066788099989935,435,119.32,98.6,4.4,-16.5,-0.95,-3.84,0.06,0.12,0.93,-0.08,1.2,-130.3,-101.0,-4.54,3.76,-0.09,0.0,0.9411163583744574,3.9562229461950196,0.07030260127722332,0.35,0,1,0.0
7.418235368999376,436,119.33,98.5,4.4,-16.1,-0.73,-3.58,0.06,0.17,0.96,-0.09,-0.1,-149.5,-162.0,-4.5,4.3,-0.04,0.0,0.979081201943945,3.654162010639375,0.03169100255358104,0.35,0,1,0.0
7.426540061000196,437,119.34,98.5,4.3,-15.7,-0.68,-3.31,0.14,0.19,1.0,-0.14,-1.7,-167.6,-181.0,-4.45,4.81,0.07,0.0,1.0274726273726225,3.3820260200063514,0.016366414417594566,0.35,0,1,0.0
7.4383494409994455,438,119.35,98.5,4.3,-15.4,-0.46,-2.82,0.21,0.17,0.99,-0.16,-3.5,-189.0,-193.0,-4.4,5.35,-0.11,0.0,1.017152889196113,2.86497818490822,0.005925742716263338,0.35,0,1,0.0
7.446442716000092,439,119.36,98.5,4.4,-15.2,0.02,-2.64,0.41,0.15,1.02,-0.14,-5.5,-203.1,-145.0,-4.34,5.67,-0.01,0.0,1.0404326023342405,2.6717222909576512,0.0286213467373031,0.35,0,1,0.0
7.458345662998909,440,119.37,98.5,4.4,-14.9,0.58,-2.61,0.69,0.09,1.04,-0.15,-7.6,-212.3,-105.0,-4.28,5.88,0.1,0.0,1.0546089322587782,2.761267824750073,0.04194172312860389,0.35,0,1,0.0
7.466439486999661,441,119.38,98.6,4.4,-14.6,0.92,-2.7,0.92,0.06,1.07,-0.17,-9.8,-221.7,-100.0,-4.22,6.14,-0.11,0.0,1.085080642164443,2.9971319623933814,0.07096516437358336,0.35,0,1,0.0
7.4782870809995075,442,119.39,98.7,4.5,-14.3,0.8,-2.82,1.2,0.04,1.1,-0.17,-12.1,-231.9,-98.0,-4.16,6.41,0.18,0.0,1.113777356566383,3.1673964071457807,0.09766864120001295,0.35,0,1,0.0
7.486614491999717,443,119.4,98.8,4.5,-14.0,0.35,-3.03,1.47,0.02,1.1,-0.19,-14.5,-239.8,-83.0,-4.09,6.61,-0.05,0.0,1.1164676439557037,3.3858972223031225,0.09835175001754703,0.35,0,1,0.0
7.498320881999462,444,119.41,98.9,4.6,-13.7,-0.14,-3.18,1.62,0.02,1.06,-0.19,-16.9,-245.2,-49.0,-4.03,6.68,0.04,0.0,1.0770793842609745,3.57161028109171,0.05778422051636145,0.35,0,1,0.0
7.506548269999257,445,119.42,98.9,4.7,-13.3,-0.64,-3.36,1.72,0.04,1.03,-0.19,-19.4,-246.3,-25.0,-3.96,6.71,-0.1,0.0,1.0481412118603104,3.828524519968495,0.028269127153383478,0.35,0,1,0.0
7.5183752279990586,446,119.43,98.8,4.8,-13.0,-0.99,-3.45,1.73,0.06,0.97,-0.2,-21.9,-249.1,-34.0,-3.89,6.82,0.06,0.0,0.9922197337283712,3.984407107713769,0.027099303958984522,0.35,0,1,0.0
7.526438812999913,447,119.44,98.8,4.9,-12.6,-1.04,-3.48,1.66,0.09,0.93,-0.22,-24.4,-251.7,-14.0,-3.82,6.82,0.21,0.0,0.9598958276813168,3.9934446283878784,0.05823474580591825,0.35,0,1,0.0
7.538260158999037,448,119.45,98.8,5.0,-12.2,-1.1,-3.47,1.59,0.12,0.92,-0.23,-26.9,-247.5,40.0,-3.76,6.62,-0.14,0.0,0.9558765610684258,3.9722789428739773,0.06100893217043313,0.35,0,1,0.0
7.546638728999824,449,119.46,98.7,5.1,-11.9,-1.09,-3.33,1.51,0.14,0.92,-0.23,-29.3,-237.7,78.0,-3.69,6.34,-0.06,0.0,0.9585927185202274,3.8153767834907213,0.05712691922425894,0.35,0,1,0.0
7.558350524999696,450,119.47,98.6,5.2,-11.5,-1.19,-3.14,1.46,0.16,0.92,-0.25,-31.6,-227.2,93.0,-3.63,6.07,0.0,0.0,0.9666954018717582,3.6615980117975813,0.048043751155273595,0.35,0,1,0.0
7.566462245998991,451,119.48,98.5,5.3,-11.2,-1.39,-2.91,1.43,0.16,0.91,-0.23,-33.8,-215.3,120.0,-3.57,5.68,0.12,0.0,0.9521554494934112,3.5277613297954273,0.06133202946294802,0.35,0,1,0.0
7.578365272998781,452,119.49,98.4,5.4,-10.9,-1.54,-2.75,1.39,0.16,0.89,-0.22,-35.8,-199.2,163.0,-3.52,5.16,-0.12,0.0,0.9306449376641985,3.444735113183596,0.08118569046631752,0.35,0,1,0.0
7.586449403999723,453,119.5,98.3,5.5,-10.6,-1.69,-2.6,1.33,0.15,0.87,-0.22,-37.7,-178.4,197.0,-3.47,4.57,-0.27,0.0,0.9098351499035415,3.3741665637605975,0.09995556866243493,0.35,0,1,0.0
7.598302180998871,454,119.51,98.1,5.6,-10.3,-1.78,-2.48,1.23,0.15,0.86,-0.21,-39.3,-156.4,217.0,-3.43,3.96,-0.03,0.0,0.897886407069402,3.2911548125240175,0.10966622526664305,0.35,0,1,0.0
7.606555038999431,455,119.52,98.0,5.7,-10.1,-1.86,-2.35,1.1,0.15,0.85,-0.21,-40.7,-132.3,238.0,-3.39,3.28,-0.2,0.0,0.8883130078975541,3.192506851989515,0.11685483194972113,0.35,0,1,0.0
7.618337195999629,456,119.53,97.8,5.8,-9.8,-2.07,-2.23,0.91,0.16,0.82,-0.22,-41.9,-106.7,252.0,-3.37,2.57,0.02,0.0,0.8639444426582069,3.175830600016317,0.13839892924528685,0.35,0,1,0.0
7.62658065100004,457,119.54,97.6,5.8,-9.6,-2.31,-2.14,0.66,0.17,0.77,-0.23,-42.8,-81.3,252.0,-3.35,1.89,-0.06,0.0,0.8214012417813843,3.217343624793597,0.1773232875196673,0.35,0,1,0.0
7.638299295000252,458,119.55,97.4,5.8,-9.4,-2.57,-2.01,0.35,0.18,0.73,-0.25,-43.4,-54.4,263.0,-3.33,1.15,0.53,0.0,0.7923383115816122,3.2813869019059605,0.20225849336505064,0.35,0,1,0.0
7.6466853889996855,459,119.56,97.1,5.8,-9.2,-2.56,-1.71,0.08,0.19,0.71,-0.27,-43.8,-30.2,245.0,-3.32,0.52,-0.1,0.0,0.783007024234138,3.0796266007423694,0.2073579850982743,0.35,0,1,0.0
7.658142467998914,460,119.57,96.9,5.8,-9.1,-2.08,-1.35,-0.07,0.2,0.71,-0.28,-43.9,-6.3,227.0,-3.32,-0.06,-0.24,0.0,0.788986691902975,2.480685389161633,0.19735075108084865,0.35,0,1,0.0
7.6663855099996,461,119.58,96.8,5.8,-8.9,-1.21,-1.09,-0.11,0.18,0.75,-0.26,-43.9,5.6,115.0,-3.33,-0.17,0.21,0.0,0.8139410298049853,1.6322683602888344,0.1689484849152616,0.35,0,1,0.0
7.678253546999258,462,119.59,96.7,5.8,-8.8,-0.38,-0.92,-0.11,0.17,0.81,-0.26,-43.8,3.0,-9.0,-3.33,0.03,-0.02,0.0,0.867525215771853,1.0014489502715553,0.11305701296942594,0.35,0,1,0.0
7.686478517998694,463,119.6,96.7,5.8,-8.8,0.0,-0.76,-0.14,0.15,0.83,-0.27,-43.8,-2.1,-9.0,-3.33,0.03,0.13,0.0,0.885607136375944,0.7727871634544663,0.09307559051802827,0.35,0,1,0.0
7.69838401800007,464,119.61,96.7,5.7,-8.7,0.03,-0.54,-0.34,0.13,0.83,-0.29,-43.8,-1.1,-1.0,-3.32,0.03,0.05,0.0,0.8887631855561975,0.6388270501473776,0.08812115051101932,0.35,0,1,0.0
7.706560388000071,465,119.62,96.7,5.7,-8.7,-0.02,-0.32,-0.58,0.14,0.81,-0.29,-43.9,-2.3,-13.0,-3.32,0.09,0.2,0.0,0.8716650732936361,0.6627216610312356,0.1031148775181091,0.35,0,1,0.0
7.718314316998658,466,119.63,96.7,5.6,-8.6,0.08,-0.2,-0.68,0.15,0.83,-0.25,-43.9,-7.1,-49.0,-3.32,0.3,0.03,0.0,0.8797158632194829,0.7133021800050804,0.09316280584041703,0.35,0,1,0.0
7.726472581998678,467,119.64,96.7,5.5,-8.6,0.58,-0.19,-0.58,0.16,0.87,-0.2,-44.0,-17.1,-86.0,-3.32,0.58,0.16,0.0,0.9069178573608527,0.8419619943916709,0.06464159546506631,0.35,0,1,0.0
7.738463380999747,468,119.65,96.9,5.5,-8.6,1.35,-0.35,-0.37,0.17,0.93,-0.14,-44.3,-29.2,-109.0,-3.31,0.93,0.1,0.0,0.9557196241576292,1.4428790663115187,0.015523032094924005,0.35,0,1,0.0
7.746406947999276,469,119.66,97.0,5.5,-8.6,1.79,-0.69,-0.16,0.14,0.97,-0.13,-44.7,-41.6,-121.0,-3.3,1.3,0.12,0.0,0.9886354231970448,1.9250454540088138,0.01704491160560173,0.35,0,1,0.0
7.758469454000078,470,119.67,97.2,5.5,-8.5,1.66,-1.07,-0.07,0.12,1.0,-0.13,-45.2,-55.9,-130.0,-3.28,1.67,-0.02,0.0,1.0155294185792945,1.9762084910251752,0.0430601288480944,0.35,0,1,0.0
7.766437735999716,471,119.68,97.4,5.5,-8.3,1.08,-1.38,-0.06,0.1,0.97,-0.19,-45.8,-66.0,-98.0,-3.26,1.87,-0.01,0.0,0.9934787365615834,1.7533967035442948,0.020589257893775637,0.35,0,1,0.0
7.7784552109988,472,119.69,97.5,5.5,-8.2,0.43,-1.53,-0.24,0.1,0.89,-0.29,-46.5,-71.4,-65.0,-3.24,1.99,-0.01,0.0,0.9413819628609845,1.6072958657322551,0.03087736549068676,0.35,0,1,0.0
7.78643479999846,473,119.7,97.6,5.4,-8.1,0.36,-1.19,-0.63,0.13,0.86,-0.39,-47.3,-75.1,-44.0,-3.22,2.09,-0.06,0.0,0.9532051195833979,1.3937718608151048,0.01867312459290793,0.35,0,1,0.0
7.798542348999035,474,119.71,97.6,5.3,-8.0,0.72,-0.52,-0.93,0.15,0.88,-0.4,-48.0,-77.9,-23.0,-3.2,2.11,-0.13,0.0,0.9782126558167197,1.2859626744194406,0.006207723407605559,0.35,0,1,0.0
7.806630747998497,475,119.72,97.7,5.2,-8.0,1.33,-0.03,-1.1,0.19,0.94,-0.39,-48.8,-76.2,5.0,-3.18,2.05,0.04,0.0,1.0352777405121778,1.726209720746584,0.062007351941002375,0.35,0,1,0.0
7.818311843999254,476,119.73,97.9,5.1,-8.0,1.87,0.57,-0.92,0.22,1.05,-0.35,-49.6,-74.7,12.0,-3.16,2.01,-0.12,0.0,1.1284502647436438,2.1606017680266767,0.15207627864901907,0.35,0,1,0.0
7.826632801999949,477,119.74,98.1,5.0,-8.1,2.09,0.86,-0.52,0.19,1.08,-0.3,-50.3,-73.7,2.0,-3.14,2.02,-0.06,0.0,1.1368817000902074,2.3190730906980916,0.15729755971567094,0.35,0,1,0.0
7.838341769998806,478,119.75,98.3,5.0,-8.2,2.33,0.98,-0.39,0.15,1.04,-0.32,-51.0,-73.1,11.0,-3.12,1.96,-0.04,0.0,1.0984079387914127,2.5576160775221912,0.11644732244853873,0.35,0,1,0.0
7.8466548420001345,479,119.76,98.5,5.0,-8.3,2.69,1.21,-0.5,0.14,1.1,-0.29,-51.7,-70.0,32.0,-3.1,1.83,0.0,0.0,1.1461675270221192,2.9916884864571043,0.16092277246566034,0.35,0,1,0.0
7.858342924999306,480,119.77,98.8,5.0,-8.4,2.83,1.44,-0.35,0.13,1.24,-0.22,-52.4,-64.9,46.0,-3.08,1.69,-0.07,0.0,1.2660568707605515,3.1945265689926576,0.27519587388001077,0.35,0,1,0.0
7.866667290998521,481,119.78,99.1,5.0,-8.6,2.79,1.7,0.07,0.09,1.37,-0.18,-53.0,-58.9,58.0,-3.07,1.51,-0.02,0.0,1.384702134034609,3.2678739265767276,0.385964314410987,0.35,0,2,0.0
7.878287445999376,482,119.79,99.3,5.0,-8.8,2.68,1.93,0.89,0.06,1.55,-0.12,-53.6,-49.8,98.0,-3.06,1.17,0.11,0.0,1.5557956163969613,3.4204385683710212,0.5459166408378724,0.35,0,2,0.0
7.886333303998981,483,119.8,99.6,5.2,-9.0,2.23,2.06,2.04,0.0,1.7,-0.05,-53.9,-32.2,165.0,-3.05,0.61,-0.2,0.0,1.7007351351694948,3.657608508301565,0.6770390364181977,0.35,0,2,0.0
7.898338144999798,484,119.81,99.7,5.5,-9.1,1.28,1.79,3.07,-0.04,1.62,0.01,-54.1,-12.7,187.0,-3.04,0.08,-0.2,0.0,1.620524606416083,3.777221200830049,0.5848919375114903,0.35,0,2,0.0
7.906497959998887,485,119.82,99.8,5.9,-9.2,0.17,1.36,3.43,0.0,1.39,0.0,-54.1,7.4,171.0,-3.05,-0.35,-0.02,0.0,1.39,3.6936973346499307,0.34727998447349906,0.35,0,2,0.0
7.918338818999473,486,119.83,99.7,6.2,-9.3,-0.69,1.26,3.05,0.15,1.12,-0.04,-54.0,18.7,141.0,-3.05,-0.69,0.0,0.0,1.1307077429645558,3.3713795395950306,0.08622797288929385,0.35,0,2,0.0
7.926625976999276,487,119.84,99.6,6.5,-9.4,-0.83,1.61,2.24,0.31,0.97,-0.06,-53.6,36.1,170.0,-3.06,-1.21,0.01,0.0,1.0200980345045274,2.880729074383775,0.023894100859319867,0.35,0,2,0.0
7.938314728999103,488,119.85,99.6,6.7,-9.5,-0.5,2.32,1.41,0.41,0.89,-0.07,-53.2,55.8,193.0,-3.08,-1.78,-0.06,0.0,0.9823950325607311,2.7605253123273474,0.06036516074705389,0.35,0,2,0.0
7.946554300999196,489,119.86,99.5,6.8,-9.8,0.07,3.16,0.71,0.46,0.85,-0.07,-52.4,77.6,216.0,-3.1,-2.4,-0.1,0.0,0.9690201236300513,3.2395370039559666,0.07226526828417912,0.35,0,2,0.0
7.958258059999935,490,119.87,99.5,6.9,-10.2,0.55,4.07,0.19,0.43,0.84,-0.05,-51.5,101.4,229.0,-3.13,-3.04,-0.05,0.0,0.9449867723941959,4.111386627404434,0.09437264712963389,0.35,0,2,0.0
7.9664579479995155,491,119.88,99.5,7.0,-10.6,0.94,4.76,-0.09,0.35,0.85,-0.01,-50.3,125.9,245.0,-3.17,-3.74,-0.26,0.0,0.9192932067626737,4.852762100082797,0.11766488850593293,0.35,0,2,0.0
7.978290252000079,492,119.89,99.6,7.1,-11.1,1.12,5.14,-0.09,0.27,0.91,0.0,-48.9,150.0,242.0,-3.21,-4.38,0.0,0.0,0.9492101980067429,5.261378146455546,0.08599293931662655,0.35,0,2,0.0
7.986317398999745,493,119.9,99.6,7.2,-11.6,1.09,5.43,0.03,0.19,0.95,-0.02,-47.2,175.1,247.0,-3.26,-5.05,0.05,0.0,0.9690201236300513,5.538402296691709,0.0648593534194517,0.35,0,2,0.0
7.998001549000037,494,119.91,99.6,7.3,-12.2,0.63,5.66,0.24,0.13,0.97,-0.01,-45.3,198.6,231.0,-3.31,-5.66,-0.05,0.0,0.9787236586493656,5.700008771923075,0.05405270203213475,0.35,0,2,0.0
8.006200498999533,495,119.92,99.6,7.4,-12.7,0.18,5.68,0.36,0.07,0.96,0.0,-43.2,220.9,228.0,-3.37,-6.27,0.06,0.0,0.9625487000666512,5.694242706453599,0.06882310740255215,0.35,0,2,0.0
8.018415657999867,496,119.93,99.5,7.5,-13.3,-0.03,5.5,0.29,0.03,0.95,0.01,-40.8,244.1,226.0,-3.44,-6.9,-0.37,0.0,0.9505261700763424,5.507721852090935,0.07922872464500375,0.35,0,2,0.0
8.026409480999064,497,119.94,99.4,7.7,-13.8,-0.13,5.23,0.08,0.01,0.94,0.02,-38.2,266.0,224.0,-3.51,-7.51,-0.02,0.0,0.9402659198333203,5.232227059293203,0.08769919539026527,0.35,0,2,0.0
8.038407710999309,498,119.95,99.4,7.7,-14.3,-0.03,4.82,-0.23,0.0,0.94,0.02,-35.4,289.2,234.0,-3.59,-8.16,-0.16,0.0,0.9402127418834526,4.8255776856248005,0.08599732587333031,0.35,0,2,0.0
8.046611736999694,499,119.96,99.3,7.8,-14.8,0.14,4.41,-0.55,-0.01,0.93,0.01,-32.3,311.5,211.0,-3.68,-8.68,-0.29,0.0,0.9301075206662938,4.446369305399632,0.0941804961486793,0.35,0,2,0.0
8.05858887499926,500,119.97,99.3,7.8,-15.2,0.33,4.04,-0.87,-0.01,0.92,-0.01,-29.1,330.4,209.0,-3.77,-9.26,-0.03,0.0,0.9201086892318755,4.145768927472925,0.1020957410314356,0.35,0,2,0.0
8.066678895000223,501,119.98,99.3,7.7,-15.6,0.29,3.73,-1.08,0.0,0.91,-0.02,-25.6,355.9,249.0,-3.87,-10.0,0.15,0.0,0.9102197536858888,3.8940210579810683,0.10974498304587377,0.35,0,2,0.0
8.07833682599994,502,119.99,99.2,7.7,-16.0,0.36,3.48,-1.19,0.03,0.89,-0.03,-21.9,378.8,207.0,-3.97,-10.49,0.04,0.0,0.891010662113535,3.695416079415145,0.1263749931258631,0.35,0,2,0.0
8.08658346699849,503,120.0,99.2,7.6,-16.4,0.46,3.36,-1.21,0.05,0.88,-0.06,-19.4,390.4,258.0,-4.08,-11.21,-0.16,0.0,0.8834591105421914,3.600736035868222,0.13124801380326256,0.35,0,2,0.0
8.098897005998879,504,120.01,99.2,7.5,-16.7,0.66,3.39,-1.16,0.05,0.88,-0.08,-13.8,429.2,301.0,-4.2,-11.96,-0.22,0.0,0.8850423718670196,3.64325404000325,0.12707145742886572,0.35,0,2,0.0
8.106442742999207,505,120.02,99.2,7.4,-17.1,0.83,3.39,-1.07,0.05,0.92,-0.09,-9.3,449.6,232.0,-4.32,-12.48,-0.11,0.0,0.9257429448826494,3.6504657237125238,0.08464346672497125,0.35,0,2,0.0
8.118623716000002,506,120.03,99.2,7.3,-17.4,0.95,3.36,-0.95,0.03,0.95,-0.1,-4.7,471.4,217.0,-4.45,-13.04,-0.09,0.0,0.9557196241576292,3.618646155677562,0.0535734517009917,0.35,0,2,0.0
8.130467296999996,507,120.04,99.3,7.3,-17.8,0.91,3.22,-0.85,0.01,0.98,-0.11,0.1,493.1,228.0,-4.58,-13.66,-0.04,0.0,0.9862048468751307,3.45239047617734,0.022626464403820434,0.35,0,2,0.0
8.138460674999806,508,120.05,99.3,7.3,-18.1,0.7,3.04,-0.8,0.0,0.98,-0.13,5.0,476.8,-295.0,-4.71,-11.92,0.46,0.0,0.9885848471426213,3.220496856076714,0.019841534853603182,0.35,0,2,0.0
8.146478781998667,509,120.06,99.3,7.2,-18.4,0.61,2.83,-0.88,-0.01,0.97,-0.13,9.1,383.2,-616.0,-4.81,-9.8,0.04,0.0,0.9787236586493656,3.0257891532623353,0.029108668879921695,0.35,0,2,0.0
8.158397441999114,510,120.07,99.4,7.2,-18.7,0.65,2.61,-1.03,0.0,0.95,-0.14,12.7,349.6,-392.0,-4.91,-9.06,0.03,0.0,0.9602603813549739,2.880190965890977,0.046620507250827004,0.35,0,2,0.0
8.166442382000241,511,120.08,99.4,7.1,-19.0,0.2,2.48,-1.05,0.0,0.96,-0.16,15.8,293.8,-621.0,-4.98,-6.97,0.44,0.0,0.9732420048477152,2.7005369836386244,0.03296610608292416,0.35,0,2,0.0
8.178430591999131,512,120.09,99.3,7.0,-19.2,0.05,2.36,-1.08,0.0,0.93,-0.14,18.1,201.6,-872.0,-5.03,-4.17,0.5,0.0,0.9404786015641186,2.5958620918685185,0.0644149191791904,0.35,0,2,0.0
8.186465484999644,513,120.1,99.3,6.9,-19.5,0.21,2.06,-1.09,0.01,0.9,-0.13,19.3,68.1,-1330.0,-5.05,0.19,0.29,0.0,0.9093954035511727,2.340042734652511,0.09358815484829353,0.35,0,2,0.0
8.198354389000087,514,120.11,99.3,6.7,-19.7,0.57,1.81,-1.12,0.01,0.89,-0.15,19.1,-35.8,-729.0,-5.03,0.99,0.03,0.0,0.9026073343375844,2.2034972203295378,0.09836869958064409,0.35,0,2,0.0
8.20651855899996,515,120.12,99.4,6.6,-19.9,0.58,1.64,-1.04,0.0,0.93,-0.18,18.8,-15.9,-15.0,-5.03,-0.06,-0.16,0.0,0.9472592042308167,2.0267214904865445,0.052642493093663645,0.35,0,2,0.0
8.218889502999446,516,120.13,99.4,6.5,-20.0,0.55,1.55,-0.91,0.0,0.91,-0.2,18.9,9.7,54.0,-5.03,-0.24,0.02,0.0,0.9317188417113824,1.8796542235209115,0.06681919850083595,0.35,0,2,0.0
8.226438169000176,517,120.14,99.5,6.5,-20.2,0.66,1.37,-0.89,-0.01,0.91,-0.2,19.0,1.0,-68.0,-5.03,0.13,-0.06,0.0,0.9317725044236925,1.7619875141441839,0.06543022507275531,0.35,0,2,0.0
8.23868167099863,518,120.15,99.5,6.4,-20.3,0.66,1.16,-0.87,-0.02,0.92,-0.22,18.9,-4.0,4.0,-5.03,-0.01,-0.1,0.0,0.9461500938011896,1.5931415505221123,0.05003158298135302,0.35,0,2,0.0
8.246475183999792,519,120.16,99.5,6.4,-20.5,0.39,1.08,-0.78,-0.02,0.94,-0.24,18.9,2.3,9.0,-5.03,-0.01,-0.1,0.0,0.9703607576566562,1.3881282361511131,0.025304500743368763,0.35,0,2,0.0
8.25838630599901,520,120.17,99.6,6.3,-20.6,0.02,1.04,-0.62,-0.02,0.94,-0.24,18.9,-1.7,-12.0,-5.03,0.03,0.12,0.0,0.9703607576566562,1.2109500402576483,0.02479841072850142,0.35,0,2,0.0
8.266491945998496,521,120.18,99.5,6.3,-20.7,-0.26,0.99,-0.46,-0.02,0.93,-0.24,18.9,1.2,6.0,-5.03,-0.01,0.12,0.0,0.9606768447297979,1.1221853679316978,0.03379267718225254,0.35,0,2,0.0
8.278867380999145,522,120.19,99.5,6.2,-20.8,-0.39,0.87,-0.32,-0.01,0.91,-0.23,18.9,-0.8,-3.0,-5.03,0.0,-0.1,0.0,0.938669270829721,1.0056838469419702,0.054684246060682895,0.35,0,2,0.0
8.286583424000128,523,120.2,99.4,6.2,-20.9,-0.41,0.78,-0.19,-0.01,0.91,-0.23,18.9,0.6,6.0,-5.03,-0.02,-0.1,0.0,0.938669270829721,0.901443287178955,0.05359056113946925,0.35,0,2,0.0
8.298613038999974,524,120.21,99.4,6.2,-20.9,-0.5,0.73,-0.02,-0.02,0.9,-0.24,18.9,-0.4,-3.0,-5.03,0.01,-0.19,0.0,0.9316651759081692,0.8850423718670196,0.059382762939800604,0.35,0,2,0.0
8.306473110998922,525,120.22,99.3,6.2,-21.0,-0.61,0.64,0.16,-0.04,0.9,-0.24,18.9,0.1,2.0,-5.03,0.0,-0.01,0.0,0.9323089616645333,0.8984987479123162,0.05756419763976783,0.35,0,2,0.0
8.318473319999612,526,120.23,99.2,6.3,-21.1,-0.69,0.52,0.39,-0.08,0.92,-0.23,18.9,-0.5,0.0,-5.03,0.0,0.07,0.0,0.9516827202382104,0.9479451460923253,0.03742663028476889,0.35,0,2,0.0
8.326458626999738,527,120.24,99.2,6.3,-21.1,-0.82,0.33,0.65,-0.12,0.93,-0.22,18.9,0.3,0.0,-5.03,0.0,0.03,0.0,0.9631718434422801,1.09717819883554,0.02541875693908524,0.35,0,2,0.0
8.338542026000141,528,120.25,99.1,6.4,-21.1,-0.89,0.1,0.87,-0.14,0.94,-0.21,18.9,-0.8,-5.0,-5.03,0.01,0.03,0.0,0.9732933781753578,1.2485992151206888,0.014991277761887467,0.35,0,2,0.0
8.346575226998539,529,120.26,99.0,6.5,-21.1,-1.02,-0.32,1.04,-0.14,0.94,-0.19,18.9,0.9,8.0,-5.03,-0.03,-0.1,0.0,0.9691749068150701,1.4914422550001727,0.018727554139731595,0.35,0,2,0.0
8.358531814999878,530,120.27,98.9,6.6,-21.0,-1.07,-0.71,1.05,-0.11,0.93,-0.21,18.9,-2.6,-26.0,-5.03,0.1,0.15,0.0,0.9597395480024776,1.6587646005386056,0.02759965469327763,0.35,0,2,0.0
8.366475453000021,531,120.28,98.8,6.7,-20.9,-1.04,-0.88,0.94,-0.07,0.93,-0.24,18.9,-3.6,-6.0,-5.03,0.09,-0.09,0.0,0.9630160954002794,1.6551737068960466,0.023836645149566293,0.35,0,2,0.0
8.378890022999258,532,120.29,98.7,6.8,-20.8,-1.04,-0.87,0.73,-0.01,0.94,-0.25,18.8,-3.4,-1.0,-5.03,0.08,-0.06,0.0,0.9727281223445737,1.5399350635659934,0.013842125841166508,0.35,0,2,0.0
8.386440230999142,533,120.3,98.6,6.8,-20.7,-1.15,-0.71,0.58,0.04,0.96,-0.25,18.8,-3.2,2.0,-5.03,0.07,-0.03,0.0,0.9928242543370907,1.4707141122597551,0.006128926028323378,0.35,0,2,0.0
8.398923765998916,534,120.31,98.5,6.9,-20.6,-1.51,-0.51,0.57,0.11,0.95,-0.26,18.8,-1.9,14.0,-5.03,0.01,-0.07,0.0,0.9910600385445879,1.692660627532879,0.004277416031104209,0.35,0,2,0.0
8.406580980999934,535,120.32,98.3,6.9,-20.6,-1.43,-0.25,0.47,0.14,0.9,-0.28,18.8,-0.7,11.0,-5.03,0.0,0.02,0.0,0.9528903399657277,1.5258767971235423,0.033214436896800925,0.35,0,2,0.0
8.418199091998758,536,120.33,98.2,7.0,-20.6,-1.14,0.07,0.51,0.15,0.89,-0.3,18.8,0.0,7.0,-5.03,-0.01,0.02,0.0,0.9511046209539726,1.250839717949506,0.0343001527903849,0.35,0,2,0.0
8.426586022000265,537,120.34,98.1,7.0,-20.6,-0.8,0.34,0.79,0.13,0.87,-0.32,18.8,-0.1,-1.0,-5.03,0.0,0.0,0.0,0.936055553906925,1.1746063170271137,0.048362235440683965,0.35,0,2,0.0
8.438381510999534,538,120.35,98.1,7.1,-20.6,-0.2,0.46,1.07,0.08,0.84,-0.34,18.8,0.0,1.0,-5.03,0.0,0.0,0.0,0.9097252332435326,1.1817360111293893,0.07319870498199477,0.35,0,2,0.0
8.446578626999326,539,120.36,98.1,7.3,-20.7,0.39,0.43,1.31,0.03,0.84,-0.36,18.8,0.0,2.0,-5.03,-0.01,-0.01,0.0,0.9143850392476901,1.4328642643321106,0.06716812099828051,0.35,0,2,0.0
8.458361626999249,540,120.37,98.1,7.4,-20.7,1.02,0.21,1.46,-0.03,0.85,-0.34,18.8,0.0,-2.0,-5.03,0.0,0.0,0.0,0.9159694318043589,1.793348822733603,0.06427205387277957,0.35,0,2,0.0
8.466541167999821,541,120.38,98.3,7.6,-20.6,1.77,-0.3,1.43,-0.11,0.89,-0.27,18.8,0.0,2.0,-5.03,0.0,0.0,0.0,0.9365361712181757,2.2951688391053064,0.042831208169783475,0.35,0,2,0.0
8.4783561309996,542,120.39,98.5,7.7,-20.6,2.43,-1.03,1.21,-0.1,0.95,-0.27,18.8,0.0,0.0,-5.03,0.0,-0.02,0.0,0.9926731586982696,2.9034290072257667,0.013039663724104145,0.35,0,2,0.0
8.486606246999145,543,120.4,98.8,7.7,-20.4,2.57,-1.66,0.56,-0.08,1.03,-0.27,18.8,-0.6,-3.0,-5.03,0.02,0.0,0.0,1.067801479676817,3.110321526787865,0.08640462500859847,0.35,0,2,0.0
8.498455221999393,544,120.41,99.0,7.7,-20.2,1.69,-2.21,-0.35,-0.04,1.11,-0.28,18.7,-0.8,-5.0,-5.03,0.03,0.02,0.0,1.1454693361238442,2.8040506414827817,0.16079103182651322,0.35,0,2,0.0
8.506434826000259,545,120.42,99.2,7.6,-20.0,0.67,-2.66,-1.24,0.01,1.12,-0.27,18.7,-1.9,-9.0,-5.03,0.06,0.16,0.0,1.152128465059344,3.010332207581084,0.1641011575467728,0.35,0,2,0.0
8.518358083998464,546,120.43,99.3,7.4,-19.7,-0.02,-3.15,-2.08,0.1,1.11,-0.23,18.7,-2.7,-4.0,-5.03,0.06,0.0,0.0,1.1379806676741042,3.7748244992317193,0.14695429295830242,0.35,0,2,0.0
8.526418302999446,547,120.44,99.3,7.1,-19.4,-0.19,-3.48,-2.7,0.2,1.12,-0.21,18.7,-0.8,16.0,-5.03,0.0,0.0,0.0,1.1569356075426152,4.408684611082993,0.16259104817027714,0.35,0,2,0.0
8.538360332999218,548,120.45,99.3,6.8,-19.1,-0.09,-3.3,-3.36,0.27,1.13,-0.2,18.7,0.0,7.0,-5.03,0.0,-0.15,0.0,1.1788977903109326,4.710382150102049,0.18086216631982266,0.35,0,2,0.0
8.546557720999772,549,120.46,99.4,6.3,-18.9,0.46,-2.77,-4.38,0.33,1.17,-0.22,18.7,-0.1,0.0,-5.03,0.0,0.07,0.0,1.235394673778384,5.202778104051719,0.23261186879152862,0.35,0,2,0.0
8.558372915998916,550,120.47,99.5,5.8,-18.7,1.33,-1.8,-5.58,0.47,1.33,-0.26,18.7,0.1,0.0,-5.03,0.0,0.0,0.0,1.4343639705458306,6.012096140282523,0.4229495422477956,0.35,0,3,0.0
8.566446392000216,551,120.48,99.6,5.2,-18.7,0.78,-0.4,-5.92,0.51,1.51,-0.29,18.7,0.0,-1.0,-5.03,0.0,0.0,0.0,1.6199691355084516,5.984546766464441,0.5963836130662081,0.35,0,3,0.0
8.578286158999617,552,120.49,99.6,4.7,-18.9,-0.67,1.02,-5.14,0.32,1.41,-0.27,18.7,0.1,4.0,-5.03,-0.01,0.0,0.0,1.4708500943332057,5.2828874680424525,0.43831928045314306,0.35,0,3,0.0
8.58658520499921,553,120.5,99.5,4.3,-19.1,-0.97,1.62,-3.71,0.01,1.3,-0.1,18.7,-0.4,-3.0,-5.03,0.0,0.0,0.0,1.3038788287260439,4.162859594077129,0.26592105454906156,0.35,0,3,0.0
8.598293985000055,554,120.51,99.4,4.0,-19.3,-0.29,1.37,-1.94,-0.28,1.23,0.03,18.7,0.1,0.0,-5.03,0.0,-0.07,0.0,1.2618240764861002,2.3926136336650763,0.21938897626293552,0.35,0,3,0.0
8.606517930998962,555,120.52,99.4,3.9,-19.4,0.97,0.22,-0.42,-0.47,1.15,0.12,18.7,-1.5,-18.0,-5.03,0.09,0.02,0.0,1.248118584109699,1.0796758772891057,0.2015698142088036,0.35,0,3,0.0
8.618981341000108,556,120.53,99.6,3.9,-19.3,2.11,-1.15,0.37,-0.5,1.14,0.23,18.6,-7.0,-60.0,-5.02,0.35,0.07,0.0,1.2658988901172161,2.4313576454318686,0.2149631178119944,0.35,0,3,0.0
8.62646573299935,557,120.54,99.8,4.0,-19.1,1.28,-2.96,0.7,-0.38,1.24,0.29,18.5,-20.9,-135.0,-5.02,0.82,-0.04,0.0,1.3289469515371937,3.3000000000000003,0.27245095564733246,0.35,0,3,0.0
8.638356245999603,558,120.55,99.8,4.0,-18.7,-0.73,-4.14,0.7,-0.18,1.21,0.21,18.2,-37.2,-148.0,-5.01,1.28,0.03,0.0,1.2412090879461042,4.261748467472007,0.1810188302151181,0.35,0,3,0.0
8.646570035998593,559,120.56,99.7,3.9,-18.3,-2.59,-4.87,0.52,0.01,1.15,0.16,17.6,-56.8,-180.0,-4.99,1.86,0.02,0.0,1.1611201488218177,5.540342949673783,0.09891129326901504,0.35,0,3,0.0
8.65853415699894,560,120.57,99.4,3.9,-17.8,-3.6,-5.15,0.19,0.15,1.03,0.12,17.0,-70.1,-109.0,-4.97,1.95,0.21,0.0,1.0477595143924965,6.286382107381002,0.014160354337100056,0.35,0,3,0.0
8.666248415000155,561,120.58,99.0,3.8,-17.2,-3.72,-5.17,-0.03,0.19,0.93,0.11,16.2,-73.4,-61.0,-4.95,2.09,0.02,0.0,0.9555626614722867,6.369317074851903,0.10423006311216354,0.35,0,3,0.0
8.678392560999782,562,120.59,98.7,3.7,-16.7,-3.53,-5.18,-0.04,0.18,0.88,0.1,15.5,-81.2,-103.0,-4.93,2.5,0.15,0.0,0.9037698822156003,6.2685644289581965,0.15290238552147295,0.35,0,3,0.0
8.686476180999307,563,120.6,98.4,3.7,-16.2,-3.52,-5.03,0.05,0.15,0.85,0.05,14.5,-107.6,-251.0,-4.89,3.46,0.12,0.0,0.864580823289529,6.139527669128953,0.18824961555859343,0.35,0,3,0.0
8.69836027800011,564,120.61,98.1,3.6,-15.7,-3.3,-4.73,0.19,0.13,0.8,0.0,13.2,-141.4,-301.0,-4.86,4.32,0.01,0.0,0.8104936767180853,5.770528571976747,0.23749002688743648,0.35,0,3,0.0
8.706465773999298,565,120.62,97.8,3.6,-15.3,-2.54,-4.48,0.39,0.12,0.8,0.0,11.5,-171.7,-267.0,-4.8,4.97,0.06,0.0,0.8089499366462675,5.164697474199239,0.23425309162006924,0.35,0,3,0.0
8.718889904999742,566,120.63,97.7,3.5,-14.9,-1.49,-4.21,0.52,0.12,0.81,-0.03,9.7,-187.7,-166.0,-4.76,5.18,0.05,0.0,0.8193900170248598,4.496064946150133,0.2193367510166473,0.35,0,3,0.0
8.730535725999289,567,120.64,97.6,3.6,-14.4,-0.89,-3.99,0.71,0.11,0.86,-0.07,7.8,-183.5,41.0,-4.7,4.68,-0.06,0.0,0.8698275691193054,4.149252944808258,0.1655212149437577,0.35,0,3,0.0
8.738519853999605,568,120.65,97.5,3.6,-14.0,-0.68,-3.7,0.85,0.11,0.91,-0.08,6.0,-171.9,25.0,-4.66,4.76,0.17,0.0,0.9201086892318755,3.856799191039119,0.11293529293456372,0.35,0,3,0.0
8.746431424999173,569,120.66,97.4,3.7,-13.7,-0.44,-3.42,0.89,0.13,0.97,-0.1,4.2,-181.6,-83.0,-4.61,5.2,0.04,0.0,0.9837682653958706,3.5611936201223315,0.04829020243515725,0.35,0,3,0.0
8.758492812999975,570,120.67,97.4,3.8,-13.3,-0.28,-3.1,0.92,0.16,1.01,-0.11,2.4,-199.6,-161.0,-4.56,5.78,0.02,0.0,1.0284940447080868,3.2457356639134987,0.003493134660482289,0.35,0,3,0.0
8.766400393998993,571,120.68,97.4,3.9,-13.0,-0.54,-2.81,1.02,0.16,1.04,-0.12,0.2,-230.8,-298.0,-4.48,6.9,0.01,0.0,1.0590561835898982,3.037778793789963,0.026527624136902572,0.35,0,3,0.0
8.778958332999537,572,120.69,97.3,4.0,-12.8,-0.82,-2.62,1.04,0.15,0.99,-0.12,-2.3,-268.4,-359.0,-4.42,7.81,0.2,0.0,1.0084641788382966,2.9357111574540165,0.02358309300240502,0.35,0,3,0.0
8.78650237399961,573,120.7,97.3,4.2,-12.5,-0.93,-2.52,1.09,0.14,0.94,-0.14,-5.3,-300.4,-301.0,-4.33,8.48,0.24,0.0,0.9606247966818262,2.898861845621485,0.0699940256556979,0.35,0,3,0.0
8.7984335809997,574,120.71,97.2,4.3,-12.2,-0.68,-2.28,1.16,0.11,0.91,-0.16,-8.5,-320.7,-209.0,-4.24,8.94,0.0,0.0,0.9304837451562493,2.646960521050512,0.09813237563764932,0.35,0,3,0.0
8.806435702999806,575,120.72,97.2,4.4,-12.0,-0.43,-2.18,1.28,0.09,0.91,-0.14,-11.8,-333.8,-155.0,-4.14,9.26,-0.01,0.0,0.9250945897582582,2.5643127734346294,0.10145110041492755,0.35,0,3,0.0
8.81885894199877,576,120.73,97.2,4.5,-11.8,-0.14,-2.21,1.44,0.08,0.91,-0.16,-15.2,-343.0,-83.0,-4.05,9.31,0.07,0.0,0.9274157643689264,2.641457930764751,0.0971473272881741,0.35,0,3,0.0
8.826576744999329,577,120.74,97.3,4.6,-11.5,-0.03,-2.19,1.56,0.09,0.91,-0.18,-18.6,-339.0,19.0,-3.96,9.08,-0.1,0.0,0.9319871243745806,2.688977500835587,0.09072444793686951,0.35,0,3,0.0
8.8386481919988,578,120.75,97.4,4.8,-11.3,-0.06,-2.11,1.65,0.1,0.9,-0.21,-22.0,-334.3,17.0,-3.87,9.09,0.0,0.0,0.9295697929687691,2.6792163033245373,0.09127894375582757,0.35,0,3,0.0
8.846483841000008,579,120.76,97.4,4.9,-11.0,-0.1,-2.06,1.74,0.09,0.91,-0.2,-25.3,-330.8,54.0,-3.78,8.83,0.06,0.0,0.936055553906925,2.698369878278365,0.08309731916131835,0.35,0,3,0.0
8.858423835999929,580,120.77,97.5,5.1,-10.8,-0.17,-2.02,1.77,0.1,0.9,-0.23,-28.6,-318.0,108.0,-3.69,8.46,0.08,0.0,0.9342911751697112,2.6911335901437523,0.08316446394056154,0.35,0,3,0.0
8.866499456999009,581,120.78,97.5,5.2,-10.6,-0.29,-1.97,1.76,0.11,0.9,-0.23,-31.6,-307.4,94.0,-3.61,8.18,-0.15,0.0,0.9354143466934853,2.657555267534431,0.08040046656845157,0.35,0,3,0.0
8.878918855998563,582,120.79,97.5,5.4,-10.4,-0.38,-1.92,1.69,0.12,0.9,-0.24,-34.7,-294.7,133.0,-3.53,7.75,-0.18,0.0,0.9391485505499116,2.5859040972162908,0.07513293745778482,0.35,0,3,0.0
8.886594909999985,583,120.8,97.4,5.5,-10.2,-0.54,-1.94,1.55,0.13,0.89,-0.24,-37.5,-275.5,183.0,-3.46,7.17,-0.1,0.0,0.9309135298189624,2.54120050369899,0.08170059902495952,0.35,0,3,0.0
8.898331929998676,584,120.81,97.4,5.6,-9.9,-0.86,-1.95,1.36,0.15,0.89,-0.25,-40.1,-254.3,196.0,-3.39,6.62,-0.08,0.0,0.9365361712181757,2.528181164394672,0.07455639847323137,0.35,0,3,0.0
8.906694535999122,585,120.82,97.3,5.7,-9.7,-1.25,-1.92,1.12,0.16,0.86,-0.27,-42.5,-234.9,195.0,-3.33,6.06,-0.2,0.0,0.9154780172128656,2.5501568579207046,0.09370226142897065,0.35,0,3,0.0
8.91842403299961,586,120.83,97.2,5.8,-9.5,-1.69,-1.82,0.77,0.17,0.81,-0.27,-44.7,-213.4,215.0,-3.27,5.46,-0.06,0.0,0.8705745229444749,2.600269216831211,0.13583364058341407,0.35,0,3,0.0
8.926617655999507,587,120.84,97.0,5.8,-9.4,-2.16,-1.67,0.31,0.2,0.74,-0.3,-46.7,-190.3,222.0,-3.22,4.84,-0.2,0.0,0.8231646250902671,2.747835511816528,0.17957866766886954,0.35,0,3,0.0
8.938405543000044,588,120.85,96.8,5.8,-9.2,-2.43,-1.32,-0.19,0.25,0.69,-0.32,-48.4,-168.8,214.0,-3.18,4.26,-0.19,0.0,0.8006247560499238,2.771894658893083,0.19807616597502864,0.35,0,3,0.0
8.94652730099915,589,120.86,96.6,5.8,-9.1,-2.33,-0.74,-0.57,0.29,0.71,-0.31,-50.0,-146.3,226.0,-3.14,3.62,-0.12,0.0,0.8272242743053422,2.5102589507857553,0.16804711476521805,0.35,0,3,0.0
8.958320996998737,590,120.87,96.3,5.7,-9.1,-1.85,-0.05,-0.66,0.29,0.74,-0.27,-51.3,-122.5,233.0,-3.11,2.96,-0.08,0.0,0.8394045508573323,1.9648409604850974,0.15274950144896338,0.35,0,3,0.0
8.966559182999845,591,120.88,96.2,5.7,-9.1,-1.07,0.49,-0.52,0.26,0.76,-0.24,-52.3,-98.1,238.0,-3.08,2.31,-0.01,0.0,0.8383316766053874,1.2866234880492429,0.15074592818689014,0.35,0,3,0.0
8.978368576999856,592,120.89,96.1,5.6,-9.2,-0.31,0.86,-0.37,0.23,0.78,-0.25,-53.2,-76.1,219.0,-3.06,1.76,-0.15,0.0,0.8507643622061282,0.9862048468751307,0.13554697773442637,0.35,0,3,0.0
8.986618031000035,593,120.9,96.1,5.6,-9.3,0.34,1.21,-0.35,0.2,0.77,-0.26,-53.8,-54.8,218.0,-3.05,1.16,-0.27,0.0,0.8369587803470372,1.3046838697554286,0.14636550840164697,0.35,0,3,0.0
8.998632795999583,594,120.91,96.2,5.6,-9.4,0.71,1.45,-0.48,0.17,0.77,-0.26,-54.2,-35.6,185.0,-3.04,0.71,-0.02,0.0,0.8303011501858829,1.6843396332094072,0.1499626757915452,0.35,0,3,0.0
9.006503651999083,595,120.92,96.2,5.5,-9.6,0.89,1.62,-0.68,0.16,0.79,-0.26,-54.4,-19.5,166.0,-3.04,0.32,-0.1,0.0,0.8469356528095863,1.9694923203709125,0.13066160970448504,0.35,0,3,0.0
9.018549704998804,596,120.93,96.3,5.5,-9.8,1.17,1.61,-0.67,0.15,0.86,-0.23,-54.5,-10.3,92.0,-3.03,0.21,-0.06,0.0,0.9027735042633894,2.0999761903412146,0.07332728308566827,0.35,0,3,0.0
9.026668532998883,597,120.94,96.5,5.4,-9.9,1.59,1.32,-0.42,0.13,0.94,-0.17,-54.6,-4.8,74.0,-3.03,0.04,-0.07,0.0,0.9640539403996023,2.108767412494797,0.01180591001046627,0.35,0,3,0.0
9.038380660998882,598,120.95,96.6,5.4,-10.0,1.98,0.73,-0.04,0.09,1.01,-0.11,-54.6,-0.2,40.0,-3.03,0.0,0.02,0.0,1.0199509792141974,2.110663402819123,0.043209306228046196,0.35,0,3,0.0
9.046555709999666,599,120.96,96.9,5.4,-10.1,2.03,0.07,0.23,0.03,1.05,-0.16,-54.6,-0.3,10.0,-3.03,0.01,-0.03,0.0,1.0625441167311596,2.044186879910934,0.08408639487010816,0.35,0,3,0.0
9.058406153999385,600,120.97,97.0,5.5,-10.0,1.55,-0.31,0.3,-0.01,1.07,-0.25,-54.6,-0.7,0.0,-3.03,0.03,0.01,0.0,1.0988630487917956,1.6089126763127948,0.11799722039212934,0.35,0,3,0.0
9.066552066999066,601,120.98,97.2,5.5,-10.0,0.84,-0.32,0.13,-0.01,1.05,-0.34,-54.6,-0.9,4.0,-3.03,0.0,0.01,0.0,1.1037209792334293,0.9082400563727632,0.12039804781708774,0.35,0,3,0.0
9.078592770998512,602,120.99,97.2,5.5,-10.0,0.31,-0.08,-0.18,0.0,1.06,-0.34,-54.6,0.1,4.0,-3.03,0.0,0.04,0.0,1.1131936040060597,0.3672873534441392,0.12727325913792387,0.35,0,3,0.0
9.086615105999954,603,121.0,97.2,5.4,-10.0,0.27,0.23,-0.31,0.06,1.15,-0.29,-54.6,0.0,2.0,-3.03,0.0,-0.03,0.0,1.1875184209097558,0.47106262853255515,0.19756611452078754,0.35,0,3,0.0
9.098400827999285,604,121.01,97.3,5.4,-10.0,0.72,0.5,0.06,0.08,1.28,-0.2,-54.6,0.0,2.0,-3.03,-0.01,0.08,0.0,1.2979984591670362,0.8786353054595518,0.30188522972250653,0.35,0,3,0.0
9.106469210999421,605,121.02,97.4,5.4,-10.1,1.25,0.55,0.76,0.03,1.32,-0.16,-54.6,0.0,1.0,-3.03,-0.01,0.0,0.0,1.33,1.5628819533157328,0.32720903514436106,0.35,0,3,0.0
9.118350426999314,606,121.03,97.6,5.5,-10.1,1.86,0.54,1.34,0.03,1.32,-0.15,-54.6,0.1,1.0,-3.03,-0.01,0.0,0.0,1.328834075421006,2.3551645377765014,0.3195222483540596,0.35,0,3,0.0
9.12661915499848,607,121.04,97.8,5.7,-10.2,2.79,0.58,2.06,0.12,1.5,-0.06,-54.6,0.8,3.0,-3.03,-0.02,0.0,0.0,1.505988047761336,3.5162622200285347,0.48674269628050193,0.35,0,4,0.0
9.138346382998861,608,121.05,98.0,5.9,-10.2,3.14,0.7,3.1,0.11,1.64,0.04,-54.6,2.4,18.0,-3.03,-0.09,-0.07,0.0,1.6441715238988903,4.467616814365351,0.6124276489696949,0.35,0,4,0.0
9.146673846998965,609,121.06,98.3,6.3,-10.2,2.53,0.39,3.82,0.03,1.6,0.06,-54.6,5.4,27.0,-3.03,-0.19,0.03,0.0,1.6014056325615946,4.598412769641281,0.5582685224797512,0.35,0,4,0.0
9.158298622000075,610,121.07,98.5,6.7,-10.2,0.9,0.1,3.67,0.1,1.43,0.01,-54.5,11.1,65.0,-3.04,-0.44,-0.01,0.0,1.433527118683145,3.7800661369875526,0.3825822084292756,0.35,0,4,0.0
9.166528593999828,611,121.08,98.5,7.0,-10.1,-0.78,0.38,2.73,0.23,1.16,-0.07,-54.3,25.3,134.0,-3.05,-0.91,-0.08,0.0,1.1846518475906749,2.8645593029295098,0.13103279859006922,0.35,0,4,0.0
9.178616786999555,612,121.09,98.4,7.2,-10.2,-1.33,1.09,1.39,0.35,0.95,-0.07,-53.9,44.7,183.0,-3.06,-1.49,-0.06,0.0,1.0148398888494676,2.2111309323511352,0.03800357694811529,0.35,0,4,0.0
9.186557712999274,613,121.1,98.2,7.3,-10.3,-0.86,2.06,0.3,0.44,0.88,-0.07,-53.3,66.6,199.0,-3.08,-2.05,0.02,0.0,0.9863569333664158,2.252376522697748,0.0651568017825438,0.35,0,4,0.0
9.198281290999148,614,121.11,98.1,7.3,-10.6,-0.47,3.11,-0.12,0.47,0.88,-0.05,-52.5,87.4,211.0,-3.1,-2.64,-0.03,0.0,0.9988993943335834,3.147602262040107,0.05156205399906877,0.35,0,4,0.0
9.206521446998522,615,121.12,98.1,7.4,-11.0,0.16,4.15,-0.29,0.47,0.83,-0.01,-51.4,111.0,234.0,-3.13,-3.31,-0.07,0.0,0.9538867857350787,4.1631958877766015,0.09464316934562211,0.35,0,4,0.0
9.218383301998983,616,121.13,98.1,7.4,-11.4,0.98,4.94,-0.34,0.41,0.84,0.01,-50.2,135.8,235.0,-3.17,-3.96,0.01,0.0,0.9347726996441433,5.047732164051497,0.1114821103278264,0.35,0,4,0.0
9.226552004998666,617,121.14,98.1,7.5,-12.0,1.23,5.45,-0.16,0.32,0.91,0.0,-48.6,158.5,234.0,-3.21,-4.61,-0.19,0.0,0.9646242791885347,5.589364901310344,0.0799979201677663,0.35,0,4,0.0
9.238367746000222,618,121.15,98.2,7.5,-12.5,1.08,5.75,0.09,0.23,0.96,0.02,-46.9,182.0,235.0,-3.27,-5.24,-0.35,0.0,0.9873702446397703,5.85123918499321,0.05610691562220005,0.35,0,4,0.0
9.246567889998914,619,121.16,98.2,7.6,-13.1,0.94,5.81,0.27,0.14,1.02,0.03,-44.9,205.4,235.0,-3.32,-5.87,0.11,0.0,1.03,5.8917399806848225,0.013207617056731014,0.35,0,4,0.0
9.258281798998723,620,121.17,98.2,7.8,-13.7,0.68,5.7,0.39,0.06,1.06,0.02,-42.7,228.5,232.0,-3.38,-6.51,-0.08,0.0,1.061885116196663,5.753651014790522,0.018303949157133292,0.35,0,4,0.0
9.266534207999939,621,121.18,98.2,7.9,-14.2,0.39,5.43,0.33,0.0,1.05,0.02,-40.3,250.3,218.0,-3.45,-7.07,-0.07,0.0,1.0501904589168576,5.453980197983854,0.006477106039781466,0.35,0,4,0.0
9.278618349999306,622,121.19,98.1,8.0,-14.7,0.23,5.01,0.11,-0.04,1.0,0.01,-37.6,272.7,229.0,-3.53,-7.71,0.0,0.0,1.0008496390567367,5.016482831626158,0.04200643954393257,0.35,0,4,0.0
9.286452705999181,623,121.2,98.1,8.0,-15.2,0.34,4.48,-0.26,-0.06,0.94,0.02,-34.7,296.2,228.0,-3.61,-8.32,-0.25,0.0,0.9421252570651102,4.5003999822238026,0.09871620510484802,0.35,0,4,0.0
9.298294158999852,624,121.21,98.1,8.0,-15.6,0.46,3.95,-0.65,-0.05,0.88,0.0,-31.6,316.0,193.0,-3.7,-8.78,0.06,0.0,0.8814193099768123,4.0294664659232495,0.15623370914928303,0.35,0,4,0.0
9.306540718000178,625,121.22,98.1,8.0,-16.0,0.67,3.64,-0.93,-0.02,0.86,0.0,-28.3,334.1,206.0,-3.79,-9.39,-0.04,0.0,0.8602325267042626,3.8162023007172983,0.17387208257339604,0.35,0,4,0.0
9.318372166999325,626,121.23,98.1,8.0,-16.4,0.89,3.47,-1.03,-0.01,0.85,-0.01,-24.8,360.2,251.0,-3.89,-10.13,0.12,0.0,0.8501176389182852,3.7274522129733603,0.18030723095218604,0.35,0,4,0.0
9.326593296998908,627,121.24,98.2,7.9,-16.7,1.16,3.28,-1.02,-0.01,0.83,-0.02,-21.1,381.8,202.0,-3.99,-10.59,-0.16,0.0,0.8303011501858828,3.625520652264995,0.1961212452908967,0.35,0,4,0.0
9.33861238999998,628,121.25,98.2,7.8,-17.1,1.4,3.04,-1.0,-0.01,0.82,-0.04,-17.1,405.9,276.0,-4.1,-11.48,-0.02,0.0,0.8210359310042404,3.4930788711393275,0.20127873518308836,0.35,0,4,0.0
9.346525557999485,629,121.26,98.3,7.8,-17.4,1.39,2.8,-0.93,0.0,0.84,-0.06,-12.8,436.0,255.0,-4.22,-12.1,0.07,0.0,0.8421401308570919,3.2614413991362774,0.17657104462363216,0.35,0,4,0.0
9.358286290998876,630,121.27,98.4,7.7,-17.7,1.32,2.62,-0.85,0.0,0.83,-0.09,-8.3,456.1,223.0,-4.35,-12.67,-0.12,0.0,0.8348652585896721,3.0543902828551563,0.18016899855323087,0.35,0,4,0.0
9.3664600409993,631,121.28,98.5,7.7,-17.9,1.34,2.51,-0.81,0.0,0.85,-0.09,-3.6,477.6,207.0,-4.48,-13.2,-0.36,0.0,0.854751425854324,2.958344131435692,0.15707717466280735,0.35,0,4,0.0
9.378289975998996,632,121.29,98.6,7.7,-18.2,1.26,2.4,-0.77,-0.01,0.87,-0.1,1.2,497.1,153.0,-4.61,-13.51,0.3,0.0,0.8757853618324527,2.8178892810044895,0.133322373910985,0.35,0,4,0.0
9.386575176999031,633,121.3,98.7,7.6,-18.4,1.09,2.24,-0.72,-0.03,0.89,-0.11,6.0,451.0,-522.0,-4.73,-10.91,0.49,0.0,0.8972736483370054,2.593086963447235,0.10959740565830356,0.35,0,4,0.0
9.398355462999461,634,121.31,98.8,7.6,-18.7,0.98,2.08,-0.73,-0.04,0.88,-0.11,9.8,358.0,-566.0,-4.83,-9.39,0.15,0.0,0.8877499647986475,2.4124054385612714,0.1167386674127282,0.35,0,4,0.0
9.406464571999095,635,121.32,98.9,7.5,-18.9,0.88,1.89,-0.8,-0.04,0.9,-0.13,13.2,330.9,-413.0,-4.92,-8.45,0.2,0.0,0.9102197536858888,2.2330472453577865,0.09238350095497727,0.35,0,4,0.0
9.41831465299947,636,121.33,98.9,7.5,-19.1,0.38,1.83,-0.68,-0.06,0.92,-0.15,16.1,270.1,-642.0,-4.99,-6.3,0.25,0.0,0.9340770846134703,1.9888941651078371,0.06715564662684792,0.35,0,4,0.0
9.426611408998724,637,121.34,98.9,7.5,-19.3,0.18,1.73,-0.51,-0.07,0.92,-0.13,18.2,179.4,-846.0,-5.03,-3.7,0.48,0.0,0.9317725044236925,1.812567240132073,0.06807102228029316,0.35,0,4,0.0
9.438701515999128,638,121.35,98.9,7.4,-19.4,0.31,1.46,-0.41,-0.05,0.89,-0.14,19.2,66.8,-1147.0,-5.05,-0.06,0.53,0.0,0.9023303164584463,1.5478372007417316,0.09556294604062865,0.35,0,4,0.0
9.446466991999841,639,121.36,98.9,7.4,-19.6,0.84,1.27,-0.33,-0.04,0.9,-0.18,19.1,-27.8,-677.0,-5.04,0.83,-0.12,0.0,0.9186947262284682,1.5580115532305914,0.07761456554519464,0.35,0,4,0.0
9.458427261999532,640,121.37,99.0,7.4,-19.7,0.84,1.17,-0.1,-0.04,0.96,-0.19,18.9,-15.1,-44.0,-5.03,-0.03,-0.22,0.0,0.979438614717635,1.4437797615980075,0.016533263514907137,0.35,0,4,0.0
9.466586204000123,641,121.38,99.0,7.4,-19.8,0.36,1.07,0.18,-0.03,0.94,-0.21,18.9,6.7,28.0,-5.04,-0.13,0.03,0.0,0.9636389365317282,1.1431972708154967,0.031686282866797755,0.35,0,4,0.0
9.478448052999738,642,121.39,99.1,7.5,-19.9,0.32,0.93,0.36,-0.02,0.92,-0.2,19.0,0.9,-44.0,-5.04,0.08,-0.07,0.0,0.9417005893594843,1.047329938462565,0.052552137438260815,0.35,0,4,0.0
9.486391698999796,643,121.4,99.1,7.5,-20.0,0.39,0.64,0.45,0.0,0.91,-0.2,18.9,-3.6,-6.0,-5.03,0.02,-0.19,0.0,0.9317188417113824,0.8741853350405737,0.06128320738463544,0.35,0,4,0.0
9.498692916999062,644,121.41,99.1,7.6,-20.0,0.19,0.46,0.61,0.0,0.92,-0.23,18.9,1.7,14.0,-5.04,-0.03,-0.04,0.0,0.9483142938920619,0.787273777030583,0.043794000099876884,0.35,0,4,0.0
9.506574264998562,645,121.42,99.1,7.7,-20.0,-0.03,0.36,0.77,0.0,0.9,-0.22,18.9,-0.7,-9.0,-5.03,0.03,-0.04,0.0,0.9264987857520376,0.8505292469985968,0.0642973180751032,0.35,0,4,0.0
9.518453976999808,646,121.43,99.1,7.8,-20.1,-0.03,0.15,0.86,0.0,0.87,-0.22,18.9,0.3,4.0,-5.03,-0.01,-0.05,0.0,0.8973850901368933,0.8734987120768982,0.09154279341644256,0.35,0,4,0.0
9.526577250999253,647,121.44,99.1,7.9,-20.0,0.12,-0.06,0.93,-0.01,0.86,-0.23,18.9,-0.4,-2.0,-5.03,0.0,0.09,0.0,0.8902808545621994,0.9396275858019496,0.09667408841131364,0.35,0,4,0.0
9.538485244000185,648,121.45,99.1,8.0,-20.0,0.17,-0.27,1.04,-0.03,0.86,-0.25,18.9,0.2,-1.0,-5.03,0.0,0.04,0.0,0.8961026726887941,1.0878419002777933,0.0890352248790246,0.35,0,4,0.0
9.54635910899924,649,121.46,99.2,8.1,-20.0,0.03,-0.35,1.19,-0.08,0.86,-0.27,18.9,-0.3,-3.0,-5.03,0.01,0.0,0.0,0.9049309365912959,1.2407658925034972,0.07860282175699229,0.35,0,4,0.0
9.558692204000181,650,121.47,99.2,8.2,-19.9,0.01,-0.52,1.3,-0.11,0.86,-0.24,18.9,0.1,-3.0,-5.03,0.01,-0.08,0.0,0.8996110270555825,1.40017856004154,0.08224427666685152,0.35,0,4,0.0
9.566484203000073,651,121.48,99.2,8.3,-19.8,0.19,-0.75,1.34,-0.13,0.87,-0.22,18.9,-1.0,-6.0,-5.03,0.03,0.0,0.0,0.9067524469225324,1.5473202641987212,0.07360079966390354,0.35,0,4,0.0
9.578475357999196,652,121.49,99.2,8.4,-19.7,0.39,-1.05,1.29,-0.11,0.9,-0.2,18.9,-1.8,-13.0,-5.03,0.08,-0.08,0.0,0.9284934033152847,1.7084203229884618,0.0508226464057282,0.35,0,4,0.0
9.58656370099925,653,121.5,99.3,8.5,-19.6,0.54,-1.37,1.09,-0.04,0.93,-0.23,18.9,-5.7,-36.0,-5.03,0.22,0.03,0.0,0.9588534820294496,1.832102617213348,0.020053316337731997,0.35,0,4,0.0
9.598915814000065,654,121.51,99.4,8.6,-19.4,0.49,-1.35,0.8,0.02,0.97,-0.25,18.8,-9.7,-38.0,-5.03,0.32,-0.05,0.0,1.0018981984213766,1.6439586369492392,0.02253157205311107,0.35,0,4,0.0
