host_time_s,seq,device_time_s,roll,pitch,yaw,gyro_x,gyro_y,gyro_z,accel_x,accel_y,accel_z,belt_length,belt_velocity,belt_acceleration,motor_pos,motor_vel,motor_iq_meas,motor_iq_set,acc_mag,gyro_mag,acc_residual,threshold,heel_strike,hs_count,torque_cmd_nm
2.066934204000063,2,6071.29,95.6,5.4,55.9,0.88,4.98,0.06,-0.01,0.97,0.06,-229.6,-51.9,539.0,1.72,0.53,-0.3,0.0,0.9719053451854249,5.057509268404755,0.0,0.35,0,0,0.0
2.074037121999936,3,6071.3,95.6,5.5,55.4,1.14,4.73,-0.02,-0.03,1.0,0.04,-229.8,-1.8,404.0,1.72,-0.29,-0.15,0.0,1.0012492197250393,4.865480449040979,0.028756997048822064,0.35,0,0,0.0
2.085650431999966,4,6071.31,95.7,5.5,54.9,1.4,4.44,-0.19,-0.04,1.01,0.03,-229.7,20.6,257.0,1.71,-0.76,-0.09,0.0,1.011236866416568,4.659366909785063,0.03796975086554377,0.35,0,0,0.0
2.0939784120000695,5,6071.32,95.8,5.5,54.5,1.55,4.14,-0.41,-0.03,1.03,0.01,-229.4,38.1,202.0,1.7,-1.23,-0.13,0.0,1.0304853225543777,4.439617100606762,0.05607384286328643,0.35,0,0,0.0
2.10600743500072,6,6071.33,95.9,5.5,54.1,1.4,3.86,-0.61,-0.02,1.05,-0.01,-228.9,54.4,168.0,1.69,-1.63,0.0,0.0,1.0502380682492898,4.151108285747314,0.0743100567870345,0.35,0,0,0.0
2.114033478001147,7,6071.34,96.0,5.5,53.7,1.13,3.67,-0.74,-0.01,1.04,-0.03,-228.2,71.2,169.0,1.67,-2.13,-0.17,0.0,1.0404806581575652,3.9106776906311262,0.06326159376140372,0.35,0,0,0.0
2.125820332999865,8,6071.35,96.1,5.4,53.4,1.01,3.57,-0.83,0.01,1.02,-0.06,-227.4,89.3,183.0,1.64,-2.67,-0.15,0.0,1.0218121158021176,3.8018285074421754,0.04370119037783704,0.35,0,0,0.0
2.1340719609997905,9,6071.36,96.1,5.3,53.0,1.13,3.67,-0.88,0.03,1.0,-0.08,-226.3,110.3,205.0,1.61,-3.28,-0.17,0.0,1.0036433629531956,3.9395685042907935,0.025021788778336718,0.35,0,0,0.0
2.145724830999825,10,6071.37,96.2,5.3,52.6,1.4,3.74,-0.88,0.05,0.99,-0.07,-225.1,131.3,198.0,1.57,-3.79,-0.15,0.0,0.9937303457175894,4.089254210733297,0.014806596111875958,0.35,0,0,0.0
2.1540510120012186,11,6071.38,96.3,5.2,52.2,1.61,3.72,-0.87,0.06,0.99,-0.07,-223.6,149.9,190.0,1.53,-4.31,-0.14,0.0,0.9942836617384397,4.145768927472925,0.015052713890071678,0.35,0,0,0.0
2.1656187860007776,12,6071.39,96.4,5.1,51.8,1.71,3.7,-0.85,0.05,0.99,-0.08,-222.0,170.0,204.0,1.49,-4.89,-0.1,0.0,0.9944847912361455,4.163724294426806,0.014948766520021972,0.35,0,0,0.0
2.17403990800085,13,6071.4,96.6,5.1,51.5,1.73,3.71,-0.88,0.04,1.0,-0.09,-220.1,191.4,210.0,1.43,-5.46,0.0,0.0,1.0048382954485762,4.187051468515762,0.024796225317803566,0.35,0,0,0.0
2.1858701940000174,14,6071.41,96.7,5.0,51.1,1.64,3.71,-0.92,0.03,1.0,-0.1,-218.1,211.5,195.0,1.37,-5.97,-0.14,0.0,1.0054352291420865,4.159338889775634,0.02488529583108756,0.35,0,0,0.0
2.193935737001084,15,6071.42,96.8,4.9,50.7,1.5,3.65,-0.93,0.01,1.0,-0.09,-215.9,227.2,161.0,1.31,-6.34,-0.08,0.0,1.0040916292848974,4.054306352509637,0.023070862054420438,0.35,0,0,0.0
2.20572808200086,16,6071.43,96.9,4.8,50.3,1.36,3.48,-0.91,0.0,0.99,-0.08,-213.5,240.0,137.0,1.25,-6.68,-0.04,0.0,0.9932270636667125,3.8455298724623113,0.011962170507510916,0.35,0,0,0.0
2.2142012280000927,17,6071.44,97.0,4.7,50.0,1.17,3.23,-0.89,-0.01,0.97,-0.08,-211.0,252.9,134.0,1.18,-7.04,0.11,0.0,0.973344748791506,3.5487885256802776,0.0077617414803416995,0.35,0,0,0.0
2.225795680000374,18,6071.45,97.0,4.7,49.7,1.04,2.95,-0.89,-0.02,0.96,-0.07,-208.4,264.7,112.0,1.1,-7.31,0.01,0.0,0.9627564593395361,3.252107009309503,0.017983030313665327,0.35,0,0,0.0
2.23392772599982,19,6071.46,97.1,4.6,49.4,0.92,2.68,-0.88,-0.04,0.97,-0.08,-205.7,268.0,33.0,1.03,-7.24,0.04,0.0,0.9741149829460586,2.9670187057044317,0.006492016573000026,0.35,0,0,0.0
2.2459015090007597,20,6071.47,97.2,4.6,49.1,0.75,2.4,-0.84,-0.06,0.97,-0.08,-203.0,265.9,4.0,0.96,-7.22,0.07,0.0,0.9751410154434075,2.6510563932138447,0.0053566643941380665,0.35,0,0,0.0
2.253786047000176,21,6071.48,97.2,4.5,48.9,0.52,2.1,-0.77,-0.08,0.98,-0.09,-200.4,267.2,6.0,0.89,-7.25,0.09,0.0,0.9873702446397703,2.296366695456107,0.006735113506180279,0.35,0,0,0.0
2.2657947770003375,22,6071.49,97.3,4.5,48.7,0.28,1.76,-0.67,-0.09,0.98,-0.1,-197.7,264.0,-32.0,0.81,-7.11,0.01,0.0,0.9891915891272024,1.9039170149982902,0.008385328833740102,0.35,0,0,0.0
2.273919172001115,23,6071.5,97.3,4.4,48.5,0.09,1.41,-0.56,-0.08,0.98,-0.11,-195.1,256.4,-65.0,0.75,-6.88,0.12,0.0,0.9893937537704591,1.5198026187633706,0.008415743607456894,0.35,0,0,0.0
2.285492246001013,24,6071.51,97.2,4.4,48.4,-0.07,1.07,-0.48,-0.07,0.98,-0.13,-192.6,249.1,-70.0,0.68,-6.68,0.0,0.0,0.9910600385445879,1.1748191350161095,0.00988038781395395,0.35,0,0,0.0
2.2934977220011206,25,6071.52,97.2,4.3,48.3,-0.31,0.72,-0.39,-0.05,0.97,-0.15,-190.2,241.7,-71.0,0.61,-6.47,0.01,0.0,0.9828021163998376,0.8755569655939013,0.001590016355819568,0.35,0,0,0.0
2.305433847999666,26,6071.53,97.2,4.3,48.2,-0.48,0.46,-0.31,-0.03,0.98,-0.17,-187.8,237.0,-51.0,0.55,-6.38,0.08,0.0,0.9950879358127099,0.7335529974037323,0.013598319053318098,0.35,0,0,0.0
2.3137405670004227,27,6071.54,97.1,4.3,48.2,-0.72,0.23,-0.25,0.0,0.98,-0.2,-185.5,233.4,-34.0,0.48,-6.33,0.08,0.0,1.000199980003999,0.7961155694998057,0.01833615597971494,0.35,0,0,0.0
2.325811902001078,28,6071.55,97.0,4.3,48.2,-1.09,0.05,-0.16,0.0,1.0,-0.21,-183.1,232.3,-11.0,0.42,-6.33,0.06,0.0,1.0218121158021176,1.1028145809699834,0.039149325942276936,0.35,0,0,0.0
2.3340792790004343,29,6071.56,96.9,4.3,48.2,-1.35,-0.04,-0.09,0.01,0.99,-0.23,-180.8,233.1,-2.0,0.36,-6.32,0.03,0.0,1.0164152694642086,1.3535878250043476,0.033077430012280584,0.35,0,0,0.0
2.3454731790006917,30,6071.57,96.7,4.3,48.2,-1.68,-0.15,0.06,0.02,1.0,-0.23,-178.5,232.8,-2.0,0.3,-6.32,0.1,0.0,1.0263040485158381,1.6877499814842243,0.04210688488263192,0.35,0,0,0.0
2.3539155700000265,31,6071.58,96.6,4.3,48.2,-1.63,-0.15,0.1,0.02,0.96,-0.24,-176.1,233.7,12.0,0.23,-6.38,-0.05,0.0,0.9897474425326898,1.6399390232566575,0.005439273321493854,0.35,0,0,0.0
2.3657830200008902,32,6071.59,96.4,4.3,48.2,-1.48,-0.21,0.2,0.02,0.97,-0.24,-173.8,237.3,37.0,0.17,-6.53,0.07,0.0,0.9994498486667552,1.5081445554057475,0.014838845866448125,0.35,0,0,0.0
2.374121398999705,33,6071.6,96.3,4.3,48.3,-1.67,-0.36,0.46,0.01,0.99,-0.24,-171.4,243.6,52.0,0.1,-6.69,-0.01,0.0,1.0187246929372038,1.7692088627406317,0.0334314163341588,0.35,0,0,0.0
2.3855259450010635,34,6071.61,96.1,4.4,48.3,-1.82,-0.5,0.75,0.0,0.98,-0.23,-168.9,246.1,24.0,0.03,-6.69,-0.07,0.0,1.006628034578811,2.0309849827115904,0.020908062816250683,0.35,0,0,0.0
2.393926493001345,35,6071.62,95.9,4.4,48.4,-1.8,-0.69,0.93,0.0,0.95,-0.22,-166.4,249.2,45.0,-0.02,-6.86,0.06,0.0,0.9751410154434075,2.1403270778084362,0.010367377192769811,0.35,0,0,0.0
2.4057334570006788,36,6071.63,95.8,4.5,48.5,-1.57,-0.85,1.0,-0.01,0.93,-0.21,-163.9,258.8,86.0,-0.1,-7.17,0.22,0.0,0.9534673565466204,2.0463137589333655,0.031400215367765716,0.35,0,0,0.0
2.413901291000002,37,6071.64,95.6,4.6,48.6,-1.29,-0.98,1.04,-0.01,0.93,-0.2,-161.2,269.4,91.0,-0.17,-7.43,0.05,0.0,0.9513148795220224,1.925123372669918,0.03288163854451642,0.35,0,0,0.0
2.4257519540005887,38,6071.65,95.5,4.7,48.7,-1.16,-1.16,1.1,-0.02,0.93,-0.19,-158.5,275.9,59.0,-0.24,-7.53,0.08,0.0,0.9494208761134337,1.9751455642559614,0.03408012911404301,0.35,0,0,0.0
2.4339990850003232,39,6071.66,95.4,4.8,48.8,-1.17,-1.32,1.09,-0.03,0.92,-0.19,-155.7,276.3,7.0,-0.32,-7.46,0.0,0.0,0.9398936110007345,2.0734994574390417,0.04273524634220738,0.35,0,0,0.0
2.445585284000117,40,6071.67,95.3,4.9,49.0,-1.16,-1.47,1.04,-0.04,0.9,-0.18,-153.0,270.3,-57.0,-0.39,-7.2,0.05,0.0,0.9186947262284682,2.141985060638846,0.0626554484921843,0.35,0,0,0.0
2.453916721000496,41,6071.68,95.2,5.0,49.1,-1.04,-1.65,0.93,-0.03,0.89,-0.18,-150.4,253.5,-161.0,-0.46,-6.59,0.16,0.0,0.9085152722987104,2.1607868937033103,0.07137820437350317,0.35,0,0,0.0
2.465882665001118,42,6071.69,95.1,5.1,49.3,-0.94,-1.66,0.82,-0.01,0.89,-0.19,-148.0,226.6,-244.0,-0.52,-5.79,0.12,0.0,0.9101098834756164,2.0764392598869823,0.06838792133266525,0.35,0,0,0.0
2.4740879040000436,43,6071.7,95.0,5.1,49.5,-0.96,-1.68,0.69,0.01,0.89,-0.17,-146.0,193.5,-315.0,-0.57,-4.82,0.22,0.0,0.9061456836513652,2.054288197892399,0.07090507873377816,0.35,0,0,0.0
2.485715759001323,44,6071.71,95.0,5.2,49.7,-1.02,-1.63,0.54,0.05,0.88,-0.18,-144.3,155.2,-370.0,-0.61,-3.71,0.26,0.0,0.8996110270555825,1.9972230721679538,0.07589094062296964,0.35,0,0,0.0
2.4939978849997715,45,6071.72,94.9,5.2,49.8,-1.0,-1.39,0.33,0.09,0.87,-0.21,-143.0,112.4,-411.0,-0.64,-2.54,0.05,0.0,0.899499861033897,1.7438463235044537,0.07448206451176198,0.35,0,0,0.0
2.5056843330003176,46,6071.73,94.8,5.2,49.9,-0.9,-0.99,0.16,0.11,0.88,-0.24,-142.2,64.9,-485.0,-0.66,-1.07,0.11,0.0,0.9187491496594704,1.3474791278531923,0.054128120368464816,0.35,0,0,0.0
2.514049897001314,47,6071.74,94.7,5.2,50.0,-0.85,-0.63,0.19,0.09,0.9,-0.25,-142.0,8.8,-521.0,-0.66,0.36,0.16,0.0,0.9384028985462481,1.0749418588928425,0.03378488405205338,0.35,0,0,0.0
2.5257621470009326,48,6071.75,94.6,5.3,50.1,-0.86,-0.56,0.43,0.04,0.91,-0.24,-142.2,-29.8,-386.0,-0.65,1.17,0.39,0.0,0.9419660291114538,1.1126994203287786,0.029617318417110794,0.35,0,0,0.0
2.5339650830010214,49,6071.76,94.5,5.3,50.1,-0.83,-0.79,0.79,0.0,0.91,-0.24,-142.7,-61.8,-352.0,-0.63,2.09,0.22,0.0,0.9411163583744574,1.3917973990491577,0.029857649371024975,0.35,0,0,0.0
2.5457152310009405,50,6071.77,94.5,5.4,50.2,-0.52,-1.14,1.11,-0.06,0.9,-0.24,-143.6,-98.2,-381.0,-0.6,3.18,0.14,0.0,0.9333809511662428,1.6739474304768356,0.03684119544765485,0.35,0,0,0.0
2.5539338779999525,51,6071.78,94.5,5.5,50.4,0.01,-1.65,1.27,-0.12,0.89,-0.23,-144.8,-141.1,-407.0,-0.56,4.33,0.17,0.0,0.9270382947861431,2.0821863509301948,0.04232017479119943,0.35,0,0,0.0
2.5657153129996004,52,6071.79,94.5,5.6,50.6,0.48,-2.35,1.25,-0.13,0.89,-0.18,-146.5,-174.8,-312.0,-0.51,5.01,0.14,0.0,0.9172785836374902,2.704699613635496,0.05103828822105527,0.35,0,0,0.0
2.573937830000432,53,6071.8,94.6,5.7,50.9,0.99,-3.22,0.91,-0.07,0.87,-0.12,-148.4,-191.6,-184.0,-0.46,5.31,0.03,0.0,0.8810221336606703,3.4894985313079014,0.08554884343391767,0.35,0,0,0.0
2.5858011670006817,54,6071.81,94.8,5.7,51.3,2.03,-3.76,0.19,0.0,0.86,-0.15,-150.4,-202.1,-151.0,-0.41,5.69,-0.1,0.0,0.8729833904490967,4.27721872248778,0.0917158349125814,0.35,0,0,0.0
2.5940546300007554,55,6071.82,95.1,5.7,51.7,2.66,-3.8,-0.58,-0.01,0.92,-0.25,-152.5,-220.6,-191.0,-0.34,6.28,0.16,0.0,0.9534149149242422,4.6746122833877894,0.011058624228687086,0.35,0,0,0.0
2.6057166999999026,56,6071.83,95.4,5.6,52.0,2.57,-3.46,-1.08,-0.05,0.98,-0.3,-154.9,-243.6,-215.0,-0.28,6.89,-0.04,0.0,1.0261091559868276,4.443298324443228,0.0604029044972203,0.35,0,0,0.0
2.613954933000059,57,6071.84,95.7,5.4,52.3,2.3,-3.6,-1.14,-0.01,0.95,-0.2,-157.4,-258.1,-122.0,-0.21,7.04,0.0,0.0,0.9708758932015976,4.421492960528152,0.005066248877750534,0.35,0,0,0.0
2.625730518000637,58,6071.85,96.0,5.2,52.7,3.07,-4.1,-1.3,0.08,0.91,-0.17,-160.0,-255.2,16.0,-0.14,6.78,-0.03,0.0,0.9291931984253867,5.284401574445303,0.0358841169804911,0.35,0,0,0.0
2.633950757999628,59,6071.86,96.5,5.1,53.1,4.46,-4.21,-1.83,0.14,0.94,-0.18,-162.4,-236.2,169.0,-0.07,6.06,-0.26,0.0,0.9672641831474997,6.400359364910693,0.0021431303867894824,0.35,0,0,0.0
2.645705185999759,60,6071.87,97.0,4.8,53.5,6.32,-3.8,-2.75,0.25,1.13,-0.19,-164.6,-203.9,287.0,-0.02,5.1,-0.19,0.0,1.1728171212938527,7.870508242801097,0.20354214716247965,0.35,0,0,0.0
2.6540427830004774,61,6071.88,97.8,4.4,53.8,7.62,-2.82,-3.71,0.4,1.42,-0.15,-166.4,-170.1,312.0,0.01,4.23,0.06,0.0,1.482868841131946,8.932015450053813,0.5033219896605614,0.35,0,1,0.0
2.6656958180010406,62,6071.89,98.5,4.0,53.9,6.04,-1.72,-4.31,0.42,1.73,-0.18,-167.9,-139.3,299.0,0.05,3.44,0.07,0.0,1.78932948335403,7.616830049305288,0.7935869792449927,0.35,0,1,0.0
2.6740451240002585,63,6071.9,98.9,3.6,54.0,1.28,-0.71,-4.02,0.26,1.77,-0.17,-169.0,-117.1,248.0,0.08,2.89,0.01,0.0,1.7970531433432904,4.2781888691360965,0.785284426449568,0.35,0,1,0.0
2.6857702460001747,64,6071.91,98.7,3.2,54.0,-1.86,-0.79,-2.95,0.01,1.51,0.01,-170.0,-99.4,185.0,0.11,2.49,0.08,0.0,1.5100662237133842,3.5757796352683706,0.48833155668326844,0.35,0,1,0.0
2.6938672570013296,65,6071.92,98.5,3.0,54.1,-2.97,-1.73,-1.63,-0.27,1.34,0.11,-171.0,-88.5,107.0,0.13,2.33,-0.07,0.0,1.3713497001129946,3.8040373289440788,0.3426227324212212,0.35,0,1,0.0
2.705686945000707,66,6071.93,98.2,2.9,54.3,-2.25,-2.97,-0.24,-0.49,1.13,0.16,-171.9,-84.4,57.0,0.15,2.26,0.2,0.0,1.242014492669067,3.733764856013298,0.20902177447774783,0.35,0,1,0.0
2.713982068000405,67,6071.94,98.2,2.8,54.7,0.55,-4.32,0.62,-0.55,0.99,0.2,-172.7,-84.4,6.0,0.18,2.33,0.0,0.0,1.1500434774390054,4.39878392285868,0.11470974406273249,0.35,0,1,0.0
2.7257709149998846,68,6071.95,98.4,2.8,55.2,2.89,-5.59,0.85,-0.52,1.01,0.16,-173.6,-87.6,-28.0,0.2,2.45,-0.01,0.0,1.147214016650773,6.350015748011968,0.10964267760901003,0.35,0,1,0.0
2.733966877000057,69,6071.96,98.7,2.8,55.8,2.69,-6.23,1.0,-0.33,1.07,0.11,-174.5,-94.8,-60.0,0.23,2.67,-0.07,0.0,1.1251222155837115,6.859227361736889,0.08579985901110954,0.35,0,1,0.0
2.7456625690010696,70,6071.97,99.0,2.8,56.5,1.35,-6.92,0.65,-0.11,1.1,0.12,-175.5,-102.8,-73.0,0.26,2.88,0.09,0.0,1.1119802156513399,7.080353098539648,0.0712047018971631,0.35,0,1,0.0
2.7539308940013143,71,6071.98,99.0,2.8,57.2,-0.77,-7.38,0.41,0.11,1.13,0.09,-176.6,-109.4,-58.0,0.29,3.02,-0.04,0.0,1.138902980942626,7.431379414348322,0.0961649178446804,0.35,0,1,0.0
2.7657762880007795,72,6071.99,98.9,2.7,57.9,-2.69,-7.29,0.24,0.25,1.04,0.05,-177.7,-111.0,-20.0,0.32,3.01,0.12,0.0,1.0707940978544848,7.774175197408405,0.02749491406140825,0.35,0,1,0.0
2.773934029000884,73,6072.0,98.5,2.6,58.6,-3.93,-7.06,0.17,0.33,0.94,0.02,-178.8,-106.9,34.0,0.34,2.81,-1.93,0.0,0.9964436762808021,8.081918089166704,0.04591839736202885,0.35,0,1,0.0
2.7857470190010645,74,6072.01,98.2,2.5,59.3,-4.03,-6.69,0.17,0.34,0.83,0.01,-179.6,-98.1,109.0,0.37,2.46,-0.23,0.0,0.8969949832635632,7.811907577538281,0.14245974857168242,0.35,0,1,0.0
2.793835485001182,75,6072.02,97.8,2.4,60.0,-3.44,-6.44,0.2,0.31,0.72,0.01,-180.6,-80.5,156.0,0.39,1.95,-0.16,0.0,0.7839642849007855,7.303916757466504,0.2503806379957709,0.35,0,1,0.0
2.8056900190003944,76,6072.03,97.6,2.4,60.6,-2.33,-6.1,0.23,0.25,0.69,-0.03,-181.3,-61.3,174.0,0.41,1.44,0.1,0.0,0.7345066371381541,6.533896234254106,0.29384152004323427,0.35,0,1,0.0
2.8140347780008597,77,6072.04,97.4,2.3,61.2,-0.92,-5.57,0.3,0.18,0.69,-0.08,-181.8,-44.0,176.0,0.42,0.96,-0.08,0.0,0.7175653280364095,5.653432585606731,0.3045671725620792,0.35,0,1,0.0
2.8258395890006796,78,6072.05,97.5,2.3,61.7,0.83,-5.12,0.28,0.12,0.79,-0.07,-182.1,-27.3,163.0,0.43,0.55,-0.18,0.0,0.8021221852062191,5.1943912059066175,0.21561010908442413,0.35,0,1,0.0
2.833962488000907,79,6072.06,97.6,2.2,62.2,1.64,-4.98,0.34,0.11,0.91,-0.05,-182.3,-12.3,154.0,0.43,0.15,-0.05,0.0,0.9179869280115049,5.254103158484805,0.09775045895355561,0.35,0,1,0.0
2.845704936000402,80,6072.07,97.8,2.2,62.7,1.58,-4.78,0.37,0.09,1.03,-0.07,-182.3,1.1,127.0,0.43,-0.13,0.05,0.0,1.0362914647916386,5.047940173971954,0.020142996270046565,0.35,0,1,0.0
2.8539322030010226,81,6072.08,97.9,2.2,63.2,0.67,-4.57,0.41,0.07,1.12,-0.08,-182.3,3.6,17.0,0.43,0.0,0.0,0.0,1.1250333328395208,4.63701412549067,0.10670716703157024,0.35,0,1,0.0
2.865778016001059,82,6072.09,97.9,2.2,63.6,-0.56,-4.42,0.48,0.06,1.15,-0.09,-182.3,-2.7,-17.0,0.43,0.09,0.0,0.0,1.155075755091414,4.481115932443614,0.1340145974977942,0.35,0,1,0.0
2.87393755300036,83,6072.1,97.7,2.2,64.1,-1.34,-4.39,0.65,0.06,1.13,-0.08,-182.3,-3.1,-4.0,0.43,0.08,0.0,0.0,1.134416149391395,4.635752366121383,0.11108789196181967,0.35,0,1,0.0
2.8857602490006684,84,6072.11,97.6,2.3,64.5,-1.49,-4.34,0.8,0.08,1.07,-0.11,-182.4,-3.9,-16.0,0.43,0.15,0.0,0.0,1.0786102168995062,4.657864317474265,0.05417632028053232,0.35,0,1,0.0
2.893967261999933,85,6072.12,97.5,2.3,64.9,-1.31,-4.14,0.89,0.1,1.01,-0.15,-182.4,-10.5,-67.0,0.43,0.41,-0.01,0.0,1.0259629622944486,4.432583896555146,0.0014984843619652022,0.35,0,1,0.0
2.9058032970006025,86,6072.13,97.4,2.4,65.4,-1.11,-3.92,0.95,0.12,0.99,-0.15,-182.6,-19.3,-69.0,0.44,0.6,0.09,0.0,1.0084641788382966,4.18341965382389,0.015680293112303012,0.35,0,1,0.0
2.913772764000896,87,6072.14,97.3,2.5,65.8,-0.99,-3.72,1.01,0.14,0.99,-0.17,-182.9,-27.6,-95.0,0.45,0.9,0.11,0.0,1.0141991914806479,3.979773862922365,0.009746374860552853,0.35,0,1,0.0
2.925785581001037,88,6072.15,97.2,2.6,66.1,-0.94,-3.48,1.09,0.15,0.99,-0.2,-183.2,-38.8,-98.0,0.46,1.16,0.07,0.0,1.021077861869505,3.7659129039317945,0.0028103503822616283,0.35,0,1,0.0
2.933981385000152,89,6072.16,97.1,2.6,66.5,-0.86,-3.14,1.17,0.17,1.01,-0.21,-183.7,-48.6,-99.0,0.47,1.44,0.11,0.0,1.0455142275454696,3.459494182680468,0.021193494987828743,0.35,0,1,0.0
2.9457864289997815,90,6072.17,97.1,2.7,66.8,-0.91,-2.86,1.29,0.17,1.01,-0.21,-184.2,-57.7,-89.0,0.49,1.67,0.13,0.0,1.0455142275454696,3.2667721071418496,0.02076962508807223,0.35,0,1,0.0
2.9539293280013226,91,6072.18,97.0,2.8,67.1,-0.99,-2.59,1.4,0.17,1.0,-0.21,-184.9,-66.2,-81.0,0.51,1.87,0.04,0.0,1.0358571330062847,3.1061551796392917,0.010890279937909586,0.35,0,1,0.0
2.9657803230002173,92,6072.19,96.9,2.9,67.3,-1.05,-2.34,1.5,0.17,0.98,-0.21,-185.5,-70.8,-53.0,0.52,1.97,0.09,0.0,1.0165628362280414,2.9712118739665807,0.008235936503526942,0.35,0,1,0.0
2.9739682800009177,93,6072.2,96.8,3.1,67.6,-1.12,-2.14,1.57,0.16,0.96,-0.21,-186.3,-75.6,-44.0,0.55,2.09,-0.06,0.0,0.9956404973684025,2.8807811440649216,0.028575109855902614,0.35,0,1,0.0
2.985733165000056,94,6072.21,96.7,3.2,67.8,-1.13,-1.99,1.58,0.15,0.94,-0.21,-187.1,-78.7,-34.0,0.57,2.17,0.07,0.0,0.9747820269167872,2.780899135171932,0.04844490870136753,0.35,0,1,0.0
2.9939439890003996,95,6072.22,96.6,3.3,68.0,-1.11,-1.85,1.52,0.15,0.93,-0.22,-187.9,-79.3,0.0,0.59,2.12,0.15,0.0,0.9673675619949225,2.6391286440793293,0.054742186150767536,0.35,0,1,0.0
3.005702813001335,96,6072.23,96.5,3.4,68.2,-1.19,-1.69,1.43,0.16,0.92,-0.22,-188.6,-76.1,20.0,0.61,2.02,0.05,0.0,0.9593747964169165,2.5133841727837787,0.0614802526941981,0.35,0,1,0.0
3.0139418430007936,97,6072.24,96.4,3.6,68.4,-1.47,-1.56,1.31,0.17,0.9,-0.23,-189.4,-72.6,36.0,0.63,1.91,0.06,0.0,0.944351629426243,2.5120907626915074,0.07497335129117422,0.35,0,1,0.0
3.025671835999674,98,6072.25,96.2,3.7,68.5,-1.89,-1.44,1.07,0.18,0.86,-0.24,-190.1,-67.7,48.0,0.65,1.76,0.0,0.0,0.9108238029388559,2.605877971049297,0.10633115422299,0.35,0,1,0.0
3.0339927980003267,99,6072.26,96.0,3.7,68.7,-2.45,-1.29,0.74,0.2,0.82,-0.26,-190.7,-60.3,66.0,0.66,1.54,0.02,0.0,0.8831760866327847,2.8660425677229573,0.13129929311848,0.35,0,1,0.0
3.045616769000844,100,6072.27,95.7,3.8,68.8,-2.99,-1.03,0.38,0.22,0.79,-0.27,-191.2,-50.9,95.0,0.68,1.23,-0.15,0.0,0.8633655077659751,3.1851844530576248,0.1480876745455838,0.35,0,1,0.0
3.053999728001145,101,6072.28,95.4,3.8,68.9,-3.32,-0.72,0.06,0.24,0.77,-0.29,-191.7,-38.6,118.0,0.69,0.86,0.0,0.0,0.8570880934886448,3.397705107863247,0.15127778704645578,0.35,0,1,0.0
3.0656953010002326,102,6072.29,95.1,3.8,68.9,-3.01,-0.28,-0.18,0.26,0.76,-0.29,-192.0,-26.1,113.0,0.69,0.59,-0.01,0.0,0.8539906322671227,3.0283493853913224,0.1512877433026183,0.35,0,1,0.0
3.0739567050004553,103,6072.3,94.8,3.8,68.9,-2.32,0.14,-0.34,0.26,0.78,-0.27,-192.2,-16.2,111.0,0.7,0.29,-0.2,0.0,0.8653900854527974,2.3489572154468883,0.13709052431460478,0.35,0,1,0.0
3.085747496001204,104,6072.31,94.7,3.7,68.9,-1.61,0.55,-0.47,0.25,0.82,-0.25,-192.2,-5.3,99.0,0.7,0.05,-0.03,0.0,0.892972563968233,1.7650779019635368,0.10731788488318583,0.35,0,1,0.0
3.094069777000186,105,6072.32,94.5,3.7,68.8,-1.15,0.95,-0.6,0.21,0.85,-0.21,-192.2,1.4,68.0,0.7,-0.09,-0.03,0.0,0.9003888049059695,1.6077935190813526,0.09790361106654033,0.35,0,1,0.0
3.105481757000234,106,6072.33,94.4,3.6,68.7,-1.07,1.15,-0.74,0.18,0.86,-0.18,-192.2,2.7,20.0,0.7,-0.05,-0.01,0.0,0.8968834929911464,1.7363755354185337,0.09938074452173618,0.35,0,1,0.0
3.113956084000165,107,6072.34,94.3,3.5,68.6,-1.12,1.26,-0.87,0.14,0.84,-0.18,-192.2,-1.0,-24.0,0.7,0.08,0.04,0.0,0.8704022058795576,1.8970766985021983,0.12334479100065854,0.35,0,1,0.0
3.125880256000528,108,6072.35,94.2,3.5,68.4,-0.97,1.3,-0.94,0.1,0.82,-0.18,-192.2,-4.1,-24.0,0.7,0.14,-0.1,0.0,0.84545845551393,1.8746999759961591,0.14532277053896048,0.35,0,1,0.0
3.1339448600010655,109,6072.36,94.1,3.4,68.3,-0.44,1.21,-0.94,0.07,0.82,-0.14,-192.3,-5.9,-18.0,0.7,0.16,-0.1,0.0,0.8348053665376138,1.5941455391525579,0.15285634232497103,0.35,0,1,0.0
3.1457771080004022,110,6072.37,94.1,3.3,68.2,0.35,0.96,-0.8,0.06,0.87,-0.1,-192.4,-7.8,-18.0,0.7,0.23,0.06,0.0,0.8777812939451376,1.2977287852244013,0.10768280661909835,0.35,0,1,0.0
3.153894738001327,111,6072.38,94.2,3.3,68.1,1.01,0.62,-0.51,0.07,0.96,-0.08,-192.5,-13.7,-67.0,0.71,0.51,0.06,0.0,0.9658674857349738,1.290193783894497,0.01920468253267682,0.35,0,1,0.0
3.1656885640004475,112,6072.39,94.3,3.2,68.1,1.16,0.26,-0.16,0.07,1.01,-0.12,-192.7,-22.1,-63.0,0.71,0.65,-0.01,0.0,1.0195096860746344,1.199499895789908,0.0337487674508441,0.35,0,1,0.0
3.174107226999695,113,6072.4,94.5,3.2,68.1,0.75,0.0,0.06,0.06,1.01,-0.18,-192.9,-25.1,-40.0,0.72,0.73,0.02,0.0,1.0276672613253768,0.7523961722390672,0.04106821584755471,0.35,0,1,0.0
3.185638705001111,114,6072.41,94.5,3.2,68.1,0.14,-0.09,0.01,0.09,0.98,-0.24,-193.2,-30.0,-47.0,0.73,0.86,0.07,0.0,1.0129659421717987,0.16673332000533067,0.025839558760097137,0.35,0,1,0.0
3.1940822230008052,115,6072.42,94.5,3.2,68.1,-0.4,-0.06,-0.08,0.14,0.95,-0.28,-193.6,-38.1,-85.0,0.74,1.17,-0.02,0.0,1.0002499687578101,0.41231056256176607,0.012861113639186406,0.35,0,1,0.0
3.205554733000099,116,6072.43,94.5,3.2,68.1,-0.76,0.03,-0.38,0.18,0.84,-0.32,-194.0,-49.6,-105.0,0.75,1.49,0.0,0.0,0.9167333309092671,0.8502352615599991,0.06924241372516948,0.35,0,1,0.0
3.2139493499998935,117,6072.44,94.4,3.2,68.0,-0.26,0.49,-0.83,0.26,0.88,-0.39,-194.6,-61.8,-117.0,0.77,1.82,-0.02,0.0,0.9970456358662827,0.9982985525382675,0.01084849340720917,0.35,0,1,0.0
3.2256916879996425,118,6072.45,94.5,3.1,67.9,1.19,1.52,-0.8,0.27,1.03,-0.38,-195.3,-75.8,-141.0,0.79,2.25,0.0,0.0,1.1305750749065715,2.0896171898220977,0.141490373798548,0.35,0,1,0.0
3.233945482999843,119,6072.46,94.6,3.0,67.7,2.23,2.3,-0.4,0.17,1.14,-0.23,-196.2,-94.3,-188.0,0.82,2.86,0.0,0.0,1.1753297409663381,3.228451641267064,0.1825201390611484,0.35,0,1,0.0
3.245762870001272,120,6072.47,94.9,3.1,67.5,2.44,2.55,0.13,0.08,1.2,-0.15,-197.3,-118.6,-227.0,0.85,3.54,0.13,0.0,1.2119818480488889,3.531713465161068,0.2147888012208251,0.35,0,1,0.0
3.254022082001029,121,6072.48,95.1,3.1,67.3,1.93,2.16,0.62,0.03,1.12,-0.15,-198.7,-143.5,-244.0,0.89,4.21,0.04,0.0,1.1303981599418853,2.962245769682185,0.13054101085154513,0.35,0,1,0.0
3.2656437660007214,122,6072.49,95.3,3.2,67.1,1.07,1.87,0.49,0.1,0.92,-0.25,-200.3,-166.5,-221.0,0.94,4.76,0.16,0.0,0.9585927185202274,2.209502206380433,0.040439141958710456,0.35,0,1,0.0
3.274070125000435,123,6072.5,95.3,3.2,66.9,0.64,2.19,-0.09,0.22,0.87,-0.28,-202.1,-185.4,-194.0,0.99,5.25,0.06,0.0,0.9400531899844817,2.283374695489113,0.057799097084566986,0.35,0,1,0.0
3.2855730629999016,124,6072.51,95.4,3.2,66.6,1.17,3.0,-0.43,0.29,1.01,-0.28,-204.0,-203.3,-186.0,1.04,5.75,0.0,0.0,1.0874741376235115,3.248661262735775,0.08782941354337359,0.35,0,1,0.0
3.293976595001368,125,6072.52,95.6,3.2,66.3,2.55,3.81,-0.16,0.24,1.18,-0.17,-206.2,-222.3,-185.0,1.11,6.26,0.15,0.0,1.2161003248087716,4.587395775382804,0.21212648871406103,0.35,0,1,0.0
3.3057172299995727,126,6072.53,95.9,3.3,65.9,3.98,4.14,0.27,0.16,1.34,-0.08,-208.5,-238.5,-153.0,1.17,6.62,0.01,0.0,1.3518875692896952,5.749165156785809,0.340955458531085,0.35,0,1,0.0
3.314061283001138,127,6072.54,96.3,3.4,65.4,4.69,4.39,0.9,0.08,1.54,0.0,-211.0,-247.8,-98.0,1.24,6.8,0.01,0.0,1.5420765220960988,6.486771153663431,0.5205215231107387,0.35,1,2,3.0
3.325515260001339,128,6072.55,96.7,3.6,65.0,4.17,4.36,1.74,0.0,1.71,0.13,-213.5,-252.6,-64.0,1.31,6.92,0.01,0.0,1.7149344010777787,6.279020624269362,0.6795118140505703,0.35,0,2,3.0
3.3339311569998245,129,6072.56,97.0,3.9,64.6,2.01,3.89,2.66,-0.11,1.7,0.19,-215.9,-224.1,559.0,1.36,4.31,2.79,3.49,1.7141178489240463,5.123260680465128,0.6651213566589012,0.35,0,2,3.0
3.345888701000149,130,6072.57,97.0,4.2,64.3,-1.05,3.17,3.09,-0.12,1.44,0.13,-217.1,-66.6,1218.0,1.38,0.06,3.04,3.49,1.4508273501695508,4.54967031772633,0.3937942407463175,0.35,0,2,3.0
3.3539808559999074,131,6072.58,96.7,4.6,64.0,-3.1,3.0,3.02,-0.01,1.12,0.07,-217.0,40.2,883.0,1.36,-1.67,3.38,3.49,1.1222299229658779,5.265966198144458,0.06389287727179171,0.35,0,2,3.0
3.365776803000699,132,6072.59,96.3,4.9,63.8,-4.1,3.01,2.49,0.13,0.91,0.08,-216.3,73.5,436.0,1.34,-2.14,3.77,3.49,0.9227133899537819,5.663055712245819,0.13291118262549817,0.35,0,2,3.0
3.3739647200000036,133,6072.6,95.9,5.1,63.5,-3.79,3.26,1.8,0.27,0.8,0.07,-215.6,65.4,-7.0,1.33,-1.39,3.5,3.49,0.8472307831990054,5.313351108293146,0.20422591359266917,0.35,0,2,3.0
3.385709901000155,134,6072.61,95.6,5.3,63.1,-2.58,3.78,1.16,0.36,0.79,0.02,-215.1,38.9,-161.0,1.32,-0.74,3.65,3.49,0.8683893136145792,4.721271015309331,0.1794060355135535,0.35,0,2,3.0
3.393897587000538,135,6072.62,95.3,5.4,62.7,-1.47,4.58,0.74,0.36,0.84,-0.01,-214.9,10.0,-252.0,1.31,0.06,3.44,3.49,0.9139474820797965,4.866713470094577,0.13117090970736955,0.35,0,2,3.0
3.4056934470008855,136,6072.63,95.2,5.5,62.2,-0.94,5.4,0.55,0.29,0.86,0.0,-214.9,-1.7,-81.0,1.31,-0.01,3.3,3.49,0.9075791976461337,5.508729436085966,0.13478841025821164,0.35,0,2,3.0
3.4139293799998995,137,6072.64,95.0,5.6,61.7,-0.64,6.0,0.63,0.19,0.9,0.02,-214.9,0.0,-30.0,1.31,0.0,3.43,3.49,0.9200543462209175,6.066836078220673,0.11986699644975929,0.35,0,2,3.0
3.4257758269995975,138,6072.65,94.9,5.8,61.1,-0.25,6.16,0.79,0.1,0.92,0.04,-214.9,0.2,-11.0,1.31,0.0,3.59,3.49,0.9262828941527529,6.2154806732866605,0.11136567954756538,0.35,0,2,3.0
3.433913676000884,139,6072.66,94.9,5.9,60.4,0.38,6.15,0.84,0.04,0.94,0.04,-214.9,1.5,13.0,1.31,-0.09,3.56,3.49,0.9417005893594843,6.218721733604101,0.09402902465401719,0.35,0,2,3.0
3.4456761090004875,140,6072.67,94.9,6.0,59.8,0.82,6.03,0.64,0.05,0.99,0.06,-214.8,11.9,112.0,1.31,-0.56,3.48,3.49,0.9930760293149764,6.119060385385978,0.04180051300455456,0.35,0,2,3.0
3.4538150429998495,141,6072.68,94.9,6.1,59.3,0.67,5.93,0.32,0.03,1.01,0.06,-214.6,31.5,169.0,1.3,-1.1,3.09,3.49,1.0122252713699653,5.976303205159524,0.022198245530574257,0.35,0,2,3.0
3.465742936001334,142,6072.69,94.9,6.2,58.7,-0.02,5.79,-0.05,0.0,0.99,0.04,-214.1,56.4,279.0,1.28,-2.06,3.19,3.49,0.9908077512817509,5.790250426363267,0.04274345030641291,0.35,0,2,3.0
3.474039611999615,143,6072.7,94.8,6.2,58.1,-0.51,5.59,-0.4,-0.02,0.94,0.05,-213.2,102.6,386.0,1.25,-3.27,3.29,3.49,0.9415412895885129,5.627450577304078,0.09016971375965799,0.35,0,2,3.0
3.4856402810000873,144,6072.71,94.6,6.2,57.5,-0.38,5.39,-0.69,-0.03,0.88,0.04,-211.9,144.4,409.0,1.21,-4.44,3.14,3.49,0.8814193099768124,5.447256190046508,0.14728585950393125,0.35,0,2,3.0
3.4940491859997564,145,6072.72,94.6,6.2,57.0,0.11,5.05,-0.93,-0.04,0.85,0.03,-210.2,190.7,438.0,1.16,-5.71,3.56,3.49,0.85146931829632,5.136097740502998,0.17369113416073523,0.35,0,2,3.0
3.505817859000672,146,6072.73,94.6,6.1,56.5,0.7,4.67,-1.07,-0.04,0.86,0.01,-208.0,230.2,400.0,1.1,-6.71,3.3,3.49,0.8609878047916822,4.841879800242876,0.16088919471206553,0.35,0,2,0.0
3.513851600000635,147,6072.74,94.6,6.0,56.0,0.94,4.42,-1.12,-0.02,0.91,0.01,-205.4,261.3,295.0,1.02,-7.35,3.58,3.49,0.910274683818022,4.655577300400027,0.10937026937201133,0.35,0,2,0.0
3.526099905000592,148,6072.75,94.7,6.0,55.6,0.78,4.21,-1.08,-0.02,0.95,0.0,-202.7,267.4,-130.0,0.95,-6.24,0.51,0.0,0.9502105029939418,4.415755880933637,0.06804576119216965,0.35,0,2,0.0
3.533910400001332,149,6072.76,94.7,5.9,55.2,0.18,3.96,-1.04,0.0,0.96,0.0,-200.7,162.0,-789.0,0.91,-3.12,0.29,0.0,0.96,4.098243526195095,0.05709113890238937,0.35,0,2,0.0
3.5455881409998256,150,6072.77,94.6,5.8,54.8,0.27,3.55,-1.23,0.08,0.92,-0.02,-199.7,75.5,-724.0,0.9,-1.33,0.21,0.0,0.9236882591004392,3.766735987562707,0.09153482220591114,0.35,0,2,0.0
3.5539569560005475,151,6072.78,94.6,5.7,54.4,0.76,3.57,-1.39,0.08,0.93,-0.09,-199.3,29.8,-458.0,0.89,-0.52,0.01,0.0,0.9377632963600143,3.9057137631936114,0.07591058924740934,0.35,0,2,0.0
3.565936324001086,152,6072.79,94.7,5.5,54.1,0.55,3.72,-1.4,0.02,0.95,-0.11,-199.2,11.1,-249.0,0.89,-0.17,0.11,0.0,0.9565563234854495,4.012592678057418,0.05597521087953461,0.35,0,2,0.0
3.573747808000917,153,6072.8,94.7,5.4,53.7,0.22,3.78,-1.19,-0.02,0.94,-0.06,-199.1,6.4,-80.0,0.88,-0.22,0.06,0.0,0.9421252570651102,3.9689923154372573,0.06899815175387647,0.35,0,2,0.0
3.5856898199999705,154,6072.81,94.7,5.3,53.3,0.22,3.57,-0.99,-0.06,0.92,-0.07,-199.0,12.3,21.0,0.88,-0.44,0.02,0.0,0.924608025057105,3.7112531576274876,0.08478507608664387,0.35,0,2,0.0
3.593810764999944,155,6072.82,94.7,5.2,52.9,0.64,3.29,-0.84,-0.08,0.91,-0.08,-198.8,25.2,109.0,0.87,-0.88,-0.16,0.0,0.9170059977993601,3.4553292173105588,0.09053936127750095,0.35,0,2,0.0
3.605594292001115,156,6072.83,94.7,5.2,52.6,0.96,2.9,-0.72,-0.11,0.93,-0.08,-198.4,42.2,156.0,0.86,-1.38,-0.08,0.0,0.9398936110007345,3.138470965295043,0.066298713114604,0.35,0,2,0.0
3.613989589999619,157,6072.84,94.8,5.1,52.4,1.07,2.44,-0.66,-0.13,0.93,-0.07,-197.9,62.1,188.0,0.84,-1.94,0.21,0.0,0.9416474924301557,2.7448315066684876,0.06325393505147914,0.35,0,2,0.0
3.625620818000243,158,6072.85,94.9,5.1,52.1,0.95,1.92,-0.69,-0.13,0.94,-0.07,-197.2,80.9,206.0,0.82,-2.54,-0.08,0.0,0.9515250916292224,2.25055548698538,0.052308809135364065,0.35,0,2,0.0
3.6337893119998625,159,6072.86,95.0,5.0,52.0,0.72,1.48,-0.73,-0.11,0.95,-0.08,-196.2,102.9,213.0,0.79,-3.12,-0.14,0.0,0.9596874491208062,1.8004721602957374,0.043263522610904714,0.35,0,2,0.0
3.645649162001064,160,6072.87,95.0,5.0,51.8,0.35,1.04,-0.74,-0.08,0.95,-0.09,-195.1,124.9,217.0,0.75,-3.72,-0.15,0.0,0.957601169589929,1.323518039166826,0.04444280609894624,0.35,0,2,0.0
3.6538065700005973,161,6072.88,95.0,4.9,51.7,0.09,0.66,-0.67,-0.06,0.94,-0.1,-193.7,146.6,218.0,0.71,-4.31,0.0,0.0,0.9472064188971694,0.9447751055145346,0.05374080565587169,0.35,0,2,0.0
3.665654739999809,162,6072.89,95.0,4.9,51.7,0.01,0.35,-0.58,-0.03,0.93,-0.12,-192.0,168.7,221.0,0.67,-4.92,-0.11,0.0,0.9381897462667134,0.6774953874381728,0.06150232872060113,0.35,0,2,0.0
3.6780657780000183,163,6072.9,95.0,4.8,51.7,0.05,0.12,-0.47,-0.02,0.92,-0.14,-190.2,190.7,219.0,0.61,-5.5,0.05,0.0,0.9308061022576076,0.48764741360946434,0.06750825327511278,0.35,0,2,0.0
3.6860770790008246,164,6072.91,95.0,4.8,51.7,0.09,-0.03,-0.35,-0.01,0.93,-0.15,-188.1,212.8,217.0,0.55,-6.11,-0.14,0.0,0.9420721840708386,0.3626292872893749,0.05511732803264413,0.35,0,2,0.0
3.693808619000265,165,6072.92,95.0,4.7,51.7,-0.02,-0.18,-0.16,-0.01,0.95,-0.15,-185.8,235.3,227.0,0.49,-6.75,-0.16,0.0,0.9618211892030659,0.24166091947189142,0.03466095644240852,0.35,0,2,0.0
3.7057654050004203,166,6072.93,95.0,4.7,51.7,-0.25,-0.37,0.06,-0.02,0.95,-0.17,-183.3,259.7,242.0,0.42,-7.44,-0.04,0.0,0.9652978814852957,0.45055521304275237,0.030560578876975164,0.35,0,2,0.0
3.7139598630001274,167,6072.94,95.0,4.7,51.7,-0.51,-0.52,0.29,-0.02,0.94,-0.2,-180.6,284.3,234.0,0.34,-8.04,-0.06,0.0,0.9612491872558332,0.7839642849007855,0.033917087644308896,0.35,0,2,0.0
3.7257132320009987,168,6072.95,94.9,4.8,51.8,-0.7,-0.7,0.49,-0.01,0.93,-0.23,-177.6,302.5,187.0,0.25,-8.48,-0.18,0.0,0.9580709785814411,1.104581368664165,0.03635339039232699,0.35,0,2,0.0
3.733737669999755,169,6072.96,94.9,4.8,51.9,-0.75,-0.84,0.73,-0.01,0.94,-0.24,-174.4,321.4,208.0,0.16,-9.1,0.1,0.0,0.9702061636580134,1.342013412749664,0.023733841209439555,0.35,0,2,0.0
3.745764983999834,170,6072.97,94.8,4.9,52.0,-0.75,-0.96,0.98,-0.01,0.93,-0.24,-171.0,344.9,205.0,0.07,-9.61,-0.09,0.0,0.9605206921248496,1.56348968656656,0.03275092648775124,0.35,0,2,0.0
3.753863314001137,171,6072.98,94.7,5.0,52.1,-0.72,-1.0,1.16,-0.02,0.9,-0.25,-167.5,356.5,128.0,-0.02,-9.84,0.17,0.0,0.9342911751697112,1.6923356641044944,0.057800834574031845,0.35,0,2,0.0
3.766015787001379,172,6072.99,94.7,5.1,52.2,-0.48,-0.97,1.16,-0.03,0.89,-0.25,-163.9,370.0,154.0,-0.12,-10.31,0.01,0.0,0.9249324299644812,1.5864740779476985,0.06581638818367652,0.35,0,2,0.0
3.773766866999722,173,6073.0,94.6,5.2,52.3,-0.23,-0.92,1.1,-0.02,0.87,-0.23,-160.1,380.4,66.0,-0.22,-10.26,0.01,0.0,0.9001111042532471,1.4523429347092924,0.08882495961701242,0.35,0,2,0.0
3.7856688170013513,174,6073.01,94.6,5.3,52.4,-0.08,-0.85,0.99,-0.02,0.86,-0.2,-157.1,375.7,-26.0,-0.31,-10.05,0.17,0.0,0.8831760866327847,1.30728726758888,0.1036447776927254,0.35,0,2,0.0
3.7937751099998422,175,6073.02,94.6,5.4,52.5,0.04,-0.86,0.85,-0.03,0.83,-0.17,-152.6,360.9,-122.0,-0.41,-9.55,0.16,0.0,0.8477617589865681,1.2098346994527804,0.13627792323216315,0.35,0,2,0.0
3.80559988099958,176,6073.03,94.7,5.5,52.6,0.52,-0.95,0.64,-0.01,0.82,-0.17,-149.1,334.0,-263.0,-0.51,-8.62,0.19,0.0,0.8374962686484041,1.2579745625409124,0.14361254529892065,0.35,0,2,0.0
3.814030028999696,177,6073.04,94.8,5.5,52.7,0.99,-0.9,0.48,0.04,0.84,-0.18,-145.8,297.4,-344.0,-0.59,-7.58,-0.06,0.0,0.86,1.421442928857856,0.11868663766837828,0.35,0,2,0.0
3.82569723800043,178,6073.05,94.9,5.6,52.8,1.14,-0.65,0.35,0.08,0.85,-0.21,-143.1,252.2,-452.0,-0.66,-6.17,0.24,0.0,0.8792041856133306,1.3581605207043828,0.0974928030139467,0.35,0,2,0.0
3.8338696930004517,179,6073.06,95.0,5.6,52.8,1.2,-0.3,0.18,0.11,0.88,-0.23,-141.0,187.6,-642.0,-0.7,-4.11,0.21,0.0,0.9161877536837086,1.2499599993599795,0.05929905024469728,0.35,0,2,0.0
3.845655610000904,180,6073.07,95.1,5.6,52.8,0.85,0.13,0.16,0.12,0.93,-0.25,-139.8,99.6,-865.0,-0.73,-1.41,0.35,0.0,0.9704638066409278,0.874642784226795,0.004922537341728539,0.35,0,2,0.0
3.8537317139998777,181,6073.08,95.2,5.6,52.8,0.28,0.36,0.36,0.12,0.95,-0.24,-139.5,0.4,-856.0,-0.72,0.88,0.21,0.0,0.9871676655968833,0.581033561853358,0.011545695181942373,0.35,0,2,0.0
3.8656486550007685,182,6073.09,95.2,5.7,52.8,0.17,0.21,0.63,0.11,0.93,-0.25,-139.9,-55.2,-585.0,-0.71,1.99,0.2,0.0,0.9692780818733084,0.6854925236645547,0.006217010770799836,0.35,0,2,0.0
3.8738523539996095,183,6073.1,95.2,5.8,52.8,0.44,0.0,0.91,0.04,0.92,-0.27,-140.7,-94.6,-460.0,-0.68,3.06,-0.05,0.0,0.9596353474106715,1.0107917688624102,0.015542550328768057,0.35,0,2,0.0
3.885694982000132,184,6073.11,95.3,5.9,52.8,0.6,-0.4,1.16,-0.06,0.94,-0.27,-141.9,-134.5,-409.0,-0.64,4.09,-0.02,0.0,0.9798469268207152,1.3658696863171098,0.004575648499650087,0.35,0,2,0.0
3.893759991000479,185,6073.12,95.4,6.0,52.9,0.84,-1.11,1.32,-0.11,0.91,-0.2,-143.5,-168.6,-346.0,-0.59,4.94,0.09,0.0,0.9381897462667134,1.9183586734497802,0.03633990141326471,0.35,0,2,0.0
3.9056306880011107,186,6073.13,95.5,6.1,53.1,2.32,-1.96,0.95,-0.13,0.86,-0.18,-145.4,-196.4,-294.0,-0.54,5.66,0.15,0.0,0.8882004278314664,3.1822162088707926,0.08460263545154145,0.35,0,2,0.0
3.9139746010005183,187,6073.14,95.9,6.1,53.3,4.05,-2.38,0.28,-0.1,0.96,-0.22,-147.6,-225.2,-310.0,-0.48,6.53,0.15,0.0,0.9899494936611666,4.705879301469599,0.01680350177059564,0.35,0,2,0.0
3.925541182001325,188,6073.15,96.3,6.1,53.5,4.21,-2.43,-0.24,-0.11,1.1,-0.25,-150.1,-261.2,-348.0,-0.41,7.54,0.3,0.0,1.1334019587066189,4.866888122815235,0.15705084747972697,0.35,0,2,0.0
3.934038507000878,189,6073.16,96.8,6.0,53.8,3.48,-2.76,-0.65,-0.09,1.13,-0.19,-152.9,-293.4,-292.0,-0.32,8.23,-0.03,0.0,1.1493911431710269,4.48893083038712,0.16957923130525232,0.35,0,2,0.0
3.945442174999698,190,6073.17,97.1,5.9,54.1,3.11,-3.44,-1.16,0.0,1.12,-0.15,-156.0,-307.4,-144.0,-0.24,8.38,0.21,0.0,1.1300000000000001,4.780303337655467,0.1471843263715411,0.35,0,2,0.0
3.9537498709996726,191,6073.18,97.5,5.7,54.4,3.32,-3.82,-1.74,0.11,1.15,-0.17,-159.0,-304.8,-2.0,-0.16,8.16,-0.03,0.0,1.1676900273617137,5.351859489934316,0.18117686665858956,0.35,0,2,0.0
3.965702991001308,192,6073.19,97.9,5.4,54.8,3.72,-3.59,-2.57,0.17,1.18,-0.17,-162.0,-288.1,154.0,-0.08,7.48,-0.01,0.0,1.2042425004956434,5.7733352578903645,0.21337475299666886,0.35,0,2,0.0
3.973750971001209,193,6073.2,98.3,5.1,55.1,4.69,-2.86,-3.86,0.34,1.31,-0.17,-164.6,-254.6,298.0,-0.01,6.43,-0.04,0.0,1.3640381226344078,6.713814117176614,0.3657069676327246,0.35,0,3,0.0
3.9856158689999575,194,6073.21,98.8,4.6,55.2,5.14,-1.61,-5.16,0.53,1.59,-0.19,-166.9,-216.1,348.0,0.03,5.43,-0.22,0.0,1.6867424225411538,7.459041493382377,0.6746430421886811,0.35,0,3,0.0
3.9940760620011133,195,6073.22,99.2,4.0,55.2,2.57,-0.1,-5.34,0.53,1.85,-0.22,-168.8,-181.5,335.0,0.08,4.54,-0.25,0.0,1.9369563753476742,5.927098784396967,0.9063598550952974,0.35,0,3,0.0
4.005567795000388,196,6073.23,99.3,3.6,55.1,-1.14,0.86,-4.33,0.26,1.63,-0.12,-170.4,-150.8,305.0,0.12,3.75,-0.18,0.0,1.6549622352186772,4.559396889940598,0.6118784006669744,0.35,0,3,0.0
4.0140427919996,197,6073.24,99.0,3.2,54.9,-3.12,0.68,-2.82,-0.05,1.42,0.07,-171.8,-126.9,233.0,0.16,3.25,0.0,0.0,1.422603247571156,4.260187789288167,0.3719290247590641,0.35,0,3,0.0
4.025521384000967,198,6073.25,98.7,3.0,54.9,-3.47,-0.4,-1.21,-0.38,1.19,0.16,-172.9,-113.0,145.0,0.19,2.99,0.01,0.0,1.259404621239735,3.6966200778549045,0.20455579045909,0.35,0,3,0.0
4.033913548000783,199,6073.26,98.4,3.0,55.0,-1.71,-2.01,0.01,-0.57,0.92,0.21,-174.0,-110.4,43.0,0.22,3.03,0.01,0.0,1.1024518130059018,2.6389960212171593,0.04665092258075165,0.35,0,3,0.0
4.045594498000355,200,6073.27,98.4,3.0,55.3,1.43,-3.81,0.49,-0.58,0.84,0.29,-175.2,-114.8,-29.0,0.25,3.22,-0.02,0.0,1.061178590059185,4.098914490447441,0.005270145641354196,0.35,0,3,0.0
4.053940195000905,201,6073.28,98.7,3.0,55.8,3.17,-6.15,0.75,-0.45,0.97,0.34,-176.4,-123.1,-66.0,0.28,3.46,0.02,0.0,1.122051692213866,6.959446817096889,0.06482038284011438,0.35,0,3,0.0
4.065863998999703,202,6073.29,99.1,2.9,56.5,2.44,-7.34,0.89,-0.2,1.05,0.19,-177.7,-131.5,-68.0,0.32,3.64,0.2,0.0,1.0856334556377674,7.785968147892721,0.027834103338735483,0.35,0,3,0.0
4.07406862300013,203,6073.3,99.2,2.9,57.3,0.32,-7.66,0.72,-0.01,1.1,0.11,-179.0,-136.3,-45.0,0.35,3.73,-0.1,0.0,1.105531546361297,7.700415573201228,0.0467775501810197,0.35,0,3,0.0
4.085550333000356,204,6073.31,99.2,2.8,58.0,-1.73,-7.57,0.32,0.15,1.06,0.09,-180.4,-135.2,10.0,0.39,3.6,0.03,0.0,1.074337004854622,7.771756558204844,0.015271348500857762,0.35,0,3,0.0
4.0938354460013215,205,6073.32,99.0,2.7,58.8,-3.24,-7.42,-0.25,0.28,1.0,0.07,-181.7,-124.2,107.0,0.42,3.14,0.11,0.0,1.0408169867945085,8.10040122463079,0.017883696168070617,0.35,0,3,0.0
4.10576071000105,206,6073.33,98.6,2.5,59.5,-4.29,-7.18,-0.65,0.35,0.91,0.0,-182.7,-102.0,193.0,0.45,2.51,-0.14,0.0,0.9749871794028884,8.389219272375708,0.08203923348849695,0.35,0,3,0.0
4.1139774120001675,207,6073.34,98.2,2.4,60.2,-5.1,-6.39,-0.77,0.35,0.85,-0.12,-183.6,-74.3,258.0,0.47,1.67,-0.18,0.0,0.9270382947861431,8.211881635776297,0.12738835574313745,0.35,0,3,0.0
4.126121979001255,208,6073.35,97.7,2.2,60.7,-5.03,-5.27,-0.65,0.29,0.8,-0.16,-184.1,-45.2,279.0,0.48,0.87,-0.25,0.0,0.8658521813797088,7.314116487997713,0.18480297976658033,0.35,0,3,0.0
4.133850731999701,209,6073.36,97.2,2.1,61.2,-3.68,-4.33,-0.35,0.24,0.78,-0.12,-184.4,-20.2,242.0,0.49,0.28,-0.17,0.0,0.8248636250920512,5.6933118656894255,0.221275705333153,0.35,0,3,0.0
4.145639555001253,210,6073.37,97.0,2.0,61.6,-1.34,-3.58,-0.02,0.2,0.77,-0.11,-184.5,-1.5,188.0,0.49,-0.12,-0.17,0.0,0.8031189202104505,3.8226169046871545,0.23816000201045862,0.35,0,3,0.0
4.153791579999961,211,6073.38,97.0,2.0,61.9,0.54,-3.17,0.27,0.17,0.91,-0.08,-184.4,3.5,55.0,0.49,-0.04,-0.01,0.0,0.9291931984253867,3.226980012333513,0.10984400931961202,0.35,0,3,0.0
4.165610486001242,212,6073.39,97.2,2.0,62.2,2.1,-2.58,0.23,0.13,0.96,-0.13,-184.4,-1.6,-5.0,0.49,0.05,-0.09,0.0,0.9774456506629922,3.334561440429611,0.06035972594036643,0.35,0,3,0.0
4.177944199000194,213,6073.4,97.3,2.1,62.5,1.41,-2.56,0.65,0.1,1.16,-0.05,-184.4,-0.2,15.0,0.49,-0.01,0.06,0.0,1.165375475973302,2.994027387984285,0.12501869738254445,0.35,0,3,0.0
4.185905227001058,214,6073.41,97.4,2.1,62.7,0.25,-2.44,0.81,0.05,1.16,-0.07,-184.4,0.0,-3.0,0.49,0.02,-0.01,0.0,1.1631852818876276,2.583060200614767,0.12037193323093276,0.35,0,3,0.0
4.193988981000075,215,6073.42,97.3,2.2,63.0,-1.38,-2.63,0.94,0.02,1.14,-0.04,-184.5,-3.0,-23.0,0.49,0.12,-0.08,0.0,1.1408768557561328,3.1152688487512594,0.09610223695744935,0.35,0,3,0.0
4.20563208600106,216,6073.43,97.0,2.2,63.2,-2.79,-2.75,1.09,0.02,1.06,-0.07,-184.5,-5.6,-24.0,0.49,0.19,0.09,0.0,1.0624970588194587,4.066288233758153,0.017367991220359702,0.35,0,3,0.0
4.213951884999915,217,6073.44,96.7,2.3,63.5,-3.46,-2.72,1.16,0.03,0.93,-0.09,-184.6,-9.0,-43.0,0.49,0.33,-0.06,0.0,0.934826187052973,4.551439332782543,0.10809682293520351,0.35,0,3,0.0
4.225591026999609,218,6073.45,96.4,2.4,63.8,-3.04,-2.67,1.16,0.07,0.87,-0.1,-184.7,-19.7,-96.0,0.5,0.69,0.0,0.0,0.878521485223896,4.209049773998878,0.16111349426899502,0.35,0,3,0.0
4.234033967000869,219,6073.46,96.1,2.5,64.1,-2.18,-2.67,1.21,0.1,0.86,-0.13,-185.0,-31.3,-99.0,0.51,0.97,0.05,0.0,0.8754998572244315,3.6531356394199217,0.1608524198230903,0.35,0,3,0.0
4.245516303000841,220,6073.47,96.0,2.6,64.4,-1.22,-2.58,1.25,0.14,0.88,-0.16,-185.4,-42.0,-112.0,0.52,1.29,0.18,0.0,0.905317623820502,3.1156540244385287,0.1284139601624793,0.35,0,3,0.0
4.254028887000459,221,6073.48,95.9,2.7,64.6,-0.72,-2.38,1.3,0.15,0.92,-0.18,-185.9,-54.8,-133.0,0.53,1.68,0.09,0.0,0.9493682109698007,2.805851029545225,0.08267610555291682,0.35,0,3,0.0
4.265415113000927,222,6073.49,95.9,2.8,64.9,-0.82,-2.17,1.38,0.15,0.96,-0.19,-186.6,-68.2,-121.0,0.55,1.99,0.13,0.0,0.9900505037623081,2.6992035862453947,0.04115393650520127,0.35,0,3,0.0
4.274021948000154,223,6073.5,95.8,2.9,65.1,-1.15,-1.89,1.46,0.15,0.96,-0.2,-187.3,-80.0,-118.0,0.57,2.31,-0.01,0.0,0.9920181449953422,2.6506980212766598,0.038402569366723815,0.35,0,3,0.0
4.285518480999599,224,6073.51,95.6,3.1,65.3,-1.5,-1.72,1.65,0.14,0.96,-0.19,-188.2,-88.9,-91.0,0.6,2.51,0.03,0.0,0.9885848471426213,2.8161853632174143,0.04099914987505593,0.35,0,3,0.0
4.293868344000657,225,6073.52,95.5,3.2,65.5,-1.57,-1.63,1.85,0.14,0.93,-0.2,-189.1,-96.1,-73.0,0.63,2.67,-0.05,0.0,0.9615092303249096,2.923063461507464,0.06671327135891214,0.35,0,3,0.0
4.305584408000868,226,6073.53,95.4,3.4,65.6,-1.3,-1.52,1.95,0.13,0.89,-0.21,-190.1,-102.5,-61.0,0.65,2.83,0.11,0.0,0.9236341266973628,2.793367143789015,0.10249660748672984,0.35,0,3,0.0
4.313352656001371,227,6073.54,95.3,3.6,65.8,-0.93,-1.45,1.95,0.12,0.86,-0.22,-191.2,-106.0,-38.0,0.68,2.9,0.09,0.0,0.8957678270623476,2.601903149619524,0.12775564897931002,0.35,0,3,0.0
4.325567758000034,228,6073.55,95.2,3.8,66.0,-0.72,-1.38,1.8,0.12,0.83,-0.23,-192.3,-107.4,-23.0,0.71,2.94,0.0,0.0,0.8695976080923866,2.379663841806233,0.15084735059028564,0.35,0,3,0.0
4.3339153899996745,229,6073.56,95.1,3.9,66.1,-0.83,-1.34,1.49,0.14,0.82,-0.24,-193.3,-107.1,-2.0,0.74,2.91,-0.03,0.0,0.8657944328765343,2.169008990299487,0.15155751529001527,0.35,0,3,0.0
4.345691500000612,230,6073.57,95.0,4.0,66.3,-1.32,-1.23,1.05,0.16,0.79,-0.27,-194.4,-106.8,5.0,0.77,2.87,0.0,0.0,0.8500588214941364,2.0875344308537764,0.16394726413896488,0.35,0,3,0.0
4.3579178449999745,231,6073.58,94.9,4.1,66.4,-2.17,-1.02,0.56,0.19,0.75,-0.31,-195.4,-102.5,44.0,0.8,2.69,0.17,0.0,0.833486652562595,2.4622956768024427,0.17690904440909616,0.35,0,3,0.0
4.36591528200006,232,6073.59,94.6,4.1,66.5,-2.99,-0.73,0.0,0.21,0.71,-0.32,-196.4,-95.7,54.0,0.82,2.53,0.09,0.0,0.8065977932030313,3.077823906593748,0.1997219456932866,0.35,0,3,0.0
4.374105333999978,233,6073.6,94.3,4.1,66.5,-3.31,-0.3,-0.55,0.26,0.71,-0.34,-197.3,-88.5,71.0,0.85,2.31,0.08,0.0,0.8290355842785037,3.368768320914931,0.17373847152545785,0.35,0,3,0.0
4.38580562199968,234,6073.61,94.0,4.0,66.5,-2.69,0.3,-0.8,0.29,0.77,-0.32,-198.1,-78.6,96.0,0.87,2.0,0.01,0.0,0.8828363381737296,2.8224280327406044,0.11753896327762714,0.35,0,3,0.0
4.3938124570013315,235,6073.62,93.7,3.9,66.4,-1.83,0.86,-0.7,0.26,0.82,-0.25,-198.9,-69.5,82.0,0.89,1.8,0.03,0.0,0.8958236433584458,2.1397429752192205,0.10246062493105279,0.35,0,3,0.0
4.405593499001043,236,6073.63,93.6,3.9,66.3,-1.04,1.22,-0.5,0.19,0.82,-0.23,-199.5,-63.2,68.0,0.9,1.65,-0.16,0.0,0.8725823743349391,1.6792855623746665,0.12318785607546823,0.35,0,3,0.0
4.4140053749997605,237,6073.64,93.5,3.9,66.2,-0.33,1.5,-0.33,0.14,0.79,-0.22,-200.1,-58.1,51.0,0.92,1.54,0.01,0.0,0.8319254774317228,1.5709232953903256,0.16056785791911077,0.35,0,3,0.0
4.425666572000409,238,6073.65,93.5,3.8,66.0,0.08,1.51,-0.26,0.08,0.75,-0.2,-200.7,-56.9,13.0,0.93,1.57,-0.25,0.0,0.7803204469959761,1.5343076614551594,0.20792943058776037,0.35,0,3,0.0
4.43372968299991,239,6073.66,93.5,3.8,65.9,0.25,1.24,-0.16,0.04,0.75,-0.17,-201.3,-59.7,-19.0,0.95,1.65,0.07,0.0,0.7700649323271382,1.2750294114254777,0.21382124635146627,0.35,0,3,0.0
4.445618359000946,240,6073.67,93.6,3.8,65.8,0.81,0.79,0.09,0.05,0.8,-0.11,-201.9,-64.1,-44.0,0.97,1.83,0.09,0.0,0.8090735442467515,1.135033039166702,0.17131638174321595,0.35,0,3,0.0
4.453878873000576,241,6073.68,93.7,3.8,65.8,1.69,0.16,0.45,0.03,0.85,-0.06,-202.6,-72.4,-75.0,0.99,2.09,0.03,0.0,0.8526429498916882,1.7561890558820823,0.12519203657631361,0.35,0,3,0.0
4.465926488999685,242,6073.69,93.9,3.9,65.8,2.18,-0.62,0.65,0.03,0.9,-0.07,-203.4,-82.1,-85.0,1.01,2.34,0.07,0.0,0.903216474606171,2.3578167867754276,0.07312614162459419,0.35,0,3,0.0
4.473902282001291,243,6073.7,94.2,3.9,65.9,2.13,-1.16,0.61,0.04,0.94,-0.19,-204.3,-92.1,-102.0,1.04,2.64,0.03,0.0,0.9598437372822725,2.500919830782266,0.01616890136952287,0.35,0,3,0.0
4.485585144000652,244,6073.71,94.4,4.0,66.0,1.74,-1.16,0.35,0.09,1.0,-0.33,-205.3,-102.5,-96.0,1.07,2.89,-0.02,0.0,1.0568822072492279,2.120306581605594,0.07925217722548394,0.35,0,3,0.0
4.494006967999667,245,6073.72,94.6,4.0,66.1,1.89,-0.61,0.12,0.15,1.14,-0.35,-206.4,-111.6,-88.0,1.1,3.12,0.12,0.0,1.2019151384353222,1.9896230798822174,0.2197994062433467,0.35,0,3,0.0
4.505939243001194,246,6073.73,94.8,4.0,66.1,2.07,-0.22,0.06,0.19,1.25,-0.26,-207.5,-120.1,-82.0,1.13,3.34,0.33,0.0,1.2908136968594655,2.0825225088819566,0.30252400537414015,0.35,0,3,0.0
4.513820377000229,247,6073.74,95.0,4.0,66.2,1.81,0.05,0.4,0.18,1.36,-0.23,-208.8,-130.7,-116.0,1.16,3.73,0.15,0.0,1.3910068296022131,1.8543462459853608,0.39466279535455007,0.35,1,4,3.0
4.525947991000066,248,6073.75,95.2,4.1,66.2,0.89,0.06,0.82,0.14,1.27,-0.25,-210.2,-150.3,-191.0,1.21,4.39,-0.07,0.0,1.3019216566291538,1.2116517651536682,0.29946606993386093,0.35,0,4,3.0
4.533896464999998,249,6073.76,95.2,4.2,66.2,0.07,0.12,0.87,0.15,1.11,-0.31,-211.8,-150.7,262.0,1.25,2.86,2.92,3.49,1.1621961968617864,0.8810221336606703,0.1565457979631637,0.35,0,4,3.0
4.545577582000988,250,6073.77,95.2,4.3,66.1,0.21,0.62,0.52,0.21,1.01,-0.35,-212.5,-42.6,915.0,1.25,-0.6,3.18,3.49,1.0893576088686396,0.8360023923410747,0.08203306577061653,0.35,0,4,3.0
4.553993075000108,251,6073.78,95.3,4.3,66.0,1.4,1.52,0.26,0.23,1.15,-0.28,-212.2,40.3,474.0,1.24,-1.02,3.73,3.49,1.2057362895757926,2.0827865949251736,0.19444351154821415,0.35,0,4,3.0
4.5659086699997715,252,6073.79,95.5,4.4,65.8,2.68,2.13,0.37,0.2,1.37,-0.08,-212.0,15.1,-96.0,1.23,0.11,3.55,3.49,1.3868309197591464,3.4432833168358368,0.3680273788969366,0.35,0,4,3.0
4.573884942001314,253,6073.8,95.7,4.5,65.6,3.32,2.35,0.97,0.18,1.72,0.02,-212.0,-5.8,-51.0,1.24,0.1,3.55,3.49,1.7295086007302767,4.181602563611229,0.6964909586707055,0.35,0,4,3.0
4.5859192200005054,254,6073.81,96.1,4.7,65.4,2.85,2.57,2.21,0.12,1.98,0.1,-212.1,-4.9,-44.0,1.24,0.22,3.61,3.49,1.9861520586299528,4.428487326390355,0.9340717282389741,0.35,0,4,3.0
4.593862481000542,255,6073.82,96.2,5.0,65.2,-0.06,2.33,3.43,0.0,1.9,0.16,-212.2,-16.5,-112.0,1.24,0.64,3.46,3.49,1.906724940834414,4.146974800984448,0.8375517182345666,0.35,0,4,3.0
4.605684010000914,256,6073.83,95.9,5.4,65.0,-4.06,1.95,4.0,0.01,1.58,0.16,-212.4,-31.4,-126.0,1.25,0.99,3.55,3.49,1.5881120867243599,6.023794485206147,0.5085600868420224,0.35,0,4,3.0
4.613662260000638,257,6073.84,95.4,5.8,64.8,-6.11,2.49,3.94,0.14,1.13,0.07,-212.9,-46.8,-193.0,1.27,1.64,3.95,3.49,1.1407892005098925,7.684777160074325,0.060012456615003984,0.35,0,4,3.0
4.625938963999943,258,6073.85,94.7,6.2,64.5,-5.47,3.41,3.35,0.28,0.85,0.02,-213.6,-80.6,-282.0,1.29,2.53,3.55,3.49,0.8951536181013848,7.2643994934199485,0.18191066327763372,0.35,0,4,3.0
4.6336432690004585,259,6073.86,94.3,6.5,64.2,-3.22,4.61,2.62,0.37,0.72,0.02,-214.5,-101.3,-227.0,1.32,3.03,3.31,3.49,0.8097530487747483,6.203619910987455,0.2619650079521848,0.35,0,4,3.0
4.645887185000902,260,6073.87,94.0,6.8,63.7,-1.2,5.68,2.08,0.38,0.77,0.07,-215.6,-114.7,-113.0,1.35,3.13,3.32,3.49,0.8615103017375938,6.1667495489925646,0.2060035998895524,0.35,0,4,3.0
4.6539467700004025,261,6073.88,93.9,7.1,63.0,0.78,6.66,1.81,0.38,0.77,0.08,-216.8,-107.7,60.0,1.38,2.69,3.36,3.49,0.8623804264940154,6.945509340573952,0.20103080563046816,0.35,0,4,3.0
4.665620870000566,262,6073.89,94.0,7.3,62.4,2.39,7.12,1.47,0.24,0.88,0.13,-217.7,-88.2,193.0,1.4,1.94,3.3,3.49,0.9213576938409967,7.6529340778553685,0.13921246751781713,0.35,0,4,3.0
4.673767180000141,263,6073.9,94.2,7.5,61.7,2.55,6.96,1.4,0.18,0.98,0.16,-218.3,-41.7,419.0,1.41,0.45,3.4,3.49,1.009158064923429,7.543480628993489,0.05038385450667704,0.35,0,4,3.0
4.686091810999642,264,6073.91,94.3,7.6,61.0,2.22,6.57,1.19,0.16,0.98,0.19,-218.4,4.1,332.0,1.41,-0.26,3.37,3.49,1.0109896141899777,7.0362916369349,0.04758125913532596,0.35,0,4,3.0
4.693797543999608,265,6073.92,94.5,7.8,60.4,2.0,5.91,0.58,0.08,0.96,0.15,-218.3,11.1,157.0,1.4,-0.44,3.33,3.49,0.9749358953285082,6.26613916219549,0.08196227843685955,0.35,0,4,3.0
4.705926894001095,266,6073.93,94.6,7.8,59.8,1.58,5.38,-0.18,0.03,0.98,0.08,-218.0,29.5,227.0,1.39,-1.2,3.41,3.49,0.983717439105356,5.610098038359045,0.0717171199668114,0.35,0,4,0.0
4.714014532000874,267,6073.94,94.6,7.8,59.3,0.77,4.87,-0.83,-0.02,0.96,0.11,-217.5,69.4,354.0,1.37,-2.36,3.41,3.49,0.9664884893261791,4.999869998309956,0.08716714835106854,0.35,0,4,0.0
4.725539027000195,268,6073.95,94.6,7.8,58.8,-0.11,4.33,-1.24,-0.04,0.89,0.12,-216.6,94.3,77.0,1.35,-1.99,0.4,0.0,0.8989438247187641,4.505396763882178,0.15161757669931386,0.35,0,4,0.0
4.733640178999849,269,6073.96,94.5,7.6,58.4,-0.61,3.87,-1.5,-0.05,0.82,0.11,-216.1,15.7,-568.0,1.35,0.52,0.17,0.0,0.8288546314040839,4.195116208163965,0.21727263461371416,0.35,0,4,0.0
4.7459131960004015,270,6073.97,94.4,7.5,58.0,0.02,3.27,-1.92,-0.01,0.71,0.11,-216.3,-27.4,-282.0,1.36,0.73,-0.12,0.0,0.7185401867675878,3.7920574890156926,0.321035337665206,0.35,0,4,0.0
4.753899317000105,271,6073.98,94.4,7.3,57.7,1.13,3.04,-2.18,0.0,0.74,0.04,-216.6,-21.7,-31.0,1.36,0.43,-0.02,0.0,0.7410802925459562,3.907799892522646,0.29252532724910074,0.35,0,4,0.0
4.765595595999912,272,6073.99,94.5,7.1,57.4,1.73,3.04,-2.23,-0.02,0.78,0.02,-216.7,-2.6,132.0,1.36,-0.18,-0.03,0.0,0.7805126520435143,4.148180323949285,0.24803110839651177,0.35,0,4,0.0
4.7739399710008,273,6074.0,94.6,6.9,57.1,1.51,2.82,-2.04,-0.03,0.81,0.04,-216.6,12.2,108.0,1.36,-0.41,-0.08,0.0,0.8115417426109394,3.79395571929879,0.21266197747250504,0.35,0,4,0.0
4.7856974940004875,274,6074.01,94.8,6.8,56.8,1.56,2.57,-1.86,-0.04,0.8,0.01,-216.4,19.8,140.0,1.35,-0.75,0.03,0.0,0.8010617953691214,3.5352651951444884,0.21867908622003662,0.35,0,4,0.0
4.793684852000297,275,6074.02,94.9,6.6,56.5,1.68,2.35,-1.66,-0.05,0.84,-0.01,-216.1,37.0,161.0,1.34,-1.22,-0.24,0.0,0.8415461959987698,3.3317412864746867,0.17463079187858055,0.35,0,4,0.0
4.806060818000333,276,6074.03,95.0,6.5,56.3,1.48,2.17,-1.34,-0.06,0.9,-0.03,-215.6,55.7,190.0,1.32,-1.79,-0.02,0.0,0.9024965373894794,2.9487115830477557,0.11140684147811342,0.35,0,4,0.0
4.8138044030001765,277,6074.04,95.1,6.4,56.1,1.03,1.92,-1.03,-0.08,0.94,-0.02,-214.9,77.9,215.0,1.3,-2.41,-0.02,0.0,0.9436100889668358,2.4100207467986663,0.06888742410274185,0.35,0,4,0.0
4.825944272000925,278,6074.05,95.2,6.3,55.9,0.41,1.56,-0.69,-0.1,0.96,-0.01,-213.9,102.1,237.0,1.27,-3.08,-0.07,0.0,0.9652460826131334,1.754365982342339,0.04630640184731549,0.35,0,4,0.0
4.833857833000366,279,6074.06,95.2,6.3,55.7,-0.06,1.11,-0.48,-0.12,0.96,-0.02,-212.7,126.0,237.0,1.24,-3.72,-0.1,0.0,0.9676776322722356,1.210826164236634,0.042997355144449134,0.35,0,4,0.0
4.845911095000702,280,6074.07,95.1,6.2,55.6,-0.39,0.66,-0.42,-0.13,0.94,-0.03,-211.3,151.8,254.0,1.2,-4.43,0.06,0.0,0.9494208761134337,0.874128137060008,0.06002902907718588,0.35,0,4,0.0
4.853922271000556,281,6074.08,95.1,6.2,55.6,-0.51,0.17,-0.44,-0.12,0.92,-0.05,-209.6,176.8,251.0,1.15,-5.12,-0.23,0.0,0.9291393867445292,0.6946941773183363,0.07870430807716855,0.35,0,4,0.0
4.86588998300067,282,6074.09,95.0,6.1,55.6,-0.58,-0.15,-0.48,-0.09,0.91,-0.08,-207.7,202.3,247.0,1.09,-5.78,-0.13,0.0,0.9179324593890337,0.7676587783644501,0.0881130107240109,0.35,0,4,0.0
4.8739733710008295,283,6074.1,95.0,6.1,55.6,-0.62,-0.39,-0.48,-0.05,0.9,-0.11,-205.5,224.0,223.0,1.03,-6.35,0.05,0.0,0.9080748867797193,0.875728268357257,0.09601117166665873,0.35,0,4,0.0
4.885676055000658,284,6074.11,94.9,6.0,55.7,-0.46,-0.52,-0.43,-0.02,0.9,-0.14,-203.1,245.8,232.0,0.96,-6.99,-0.13,0.0,0.9110433579144299,0.816639455328972,0.091181846521309,0.35,0,4,0.0
4.893836936000298,285,6074.12,94.9,6.0,55.7,-0.27,-0.58,-0.31,0.0,0.9,-0.17,-200.4,272.4,260.0,0.89,-7.75,-0.15,0.0,0.9159148432032315,0.7109149034870489,0.08458415400785724,0.35,0,4,0.0
4.9060486770013085,286,6074.13,94.9,6.0,55.8,-0.04,-0.56,-0.18,0.02,0.9,-0.2,-197.5,298.1,242.0,0.8,-8.36,0.02,0.0,0.9221713506718803,0.589576118919347,0.07676109360842431,0.35,0,4,0.0
4.913791590999608,287,6074.14,94.9,6.0,55.8,0.1,-0.54,-0.05,0.02,0.91,-0.21,-194.4,319.6,222.0,0.72,-8.94,-0.16,0.0,0.9341306118525396,0.5514526271584895,0.06350579577920967,0.35,0,4,0.0
4.9258640200005175,288,6074.15,94.9,6.0,55.9,0.09,-0.61,0.13,0.03,0.94,-0.2,-191.1,341.1,223.0,0.62,-9.55,-0.08,0.0,0.9615092303249095,0.630158710167526,0.03540463376070302,0.35,0,4,0.0
4.933934680000675,289,6074.16,94.9,6.0,56.0,-0.21,-0.76,0.44,0.04,0.95,-0.21,-187.5,364.4,228.0,0.52,-10.19,0.03,0.0,0.973755616158387,0.9029396436085858,0.022695082968681057,0.35,0,4,0.0
4.945623105000777,290,6074.17,94.9,6.0,56.0,-0.63,-0.94,0.74,0.03,0.92,-0.22,-183.7,389.1,257.0,0.42,-10.94,-0.05,0.0,0.9464142856064675,1.3520724832641184,0.04903568525018864,0.35,0,4,0.0
4.953833442001269,291,6074.18,94.8,6.1,56.2,-0.96,-1.13,0.93,0.01,0.88,-0.24,-179.6,413.8,212.0,0.3,-11.42,-0.32,0.0,0.9121951545584969,1.75025712396779,0.081589719972196,0.35,0,4,0.0
4.9658909990012035,292,6074.19,94.7,6.2,56.3,-1.15,-1.34,1.04,0.0,0.86,-0.25,-175.4,427.1,175.0,0.19,-11.85,-0.12,0.0,0.8956003573022958,2.049316959379393,0.09622082688382916,0.35,0,4,0.0
4.9739656029996695,293,6074.2,94.6,6.3,56.4,-1.1,-1.54,1.11,0.0,0.83,-0.25,-171.0,449.4,203.0,0.06,-12.44,-0.2,0.0,0.8668333173107734,2.1940145851839725,0.1224881095378445,0.35,0,4,0.0
4.9856794600000285,294,6074.21,94.5,6.4,56.6,-0.76,-1.69,1.1,0.0,0.79,-0.24,-166.3,465.1,188.0,-0.05,-12.94,-0.11,0.0,0.8256512580987205,2.1549245926481975,0.16039676537489944,0.35,0,4,0.0
4.993811252999876,295,6074.22,94.5,6.5,56.8,-0.29,-1.71,1.01,-0.01,0.77,-0.24,-161.5,490.9,219.0,-0.19,-13.55,-0.14,0.0,0.8065977932030313,2.0070625301669103,0.17586122566517692,0.35,0,4,0.0
5.005943865000518,296,6074.23,94.5,6.6,57.0,0.14,-1.68,0.86,-0.02,0.76,-0.25,-156.5,500.1,94.0,-0.32,-13.6,0.04,0.0,0.800312438988674,1.8925115587493777,0.17850364828194354,0.35,0,4,0.0
5.0137969170009455,297,6074.24,94.6,6.6,57.1,0.7,-1.51,0.69,-0.03,0.77,-0.26,-151.5,498.2,-7.0,-0.46,-13.42,0.24,0.0,0.8132650244538984,1.801721399106976,0.16224004156038474,0.35,0,4,0.0
5.026097457001015,298,6074.25,94.7,6.7,57.3,1.25,-1.36,0.54,-0.04,0.8,-0.26,-146.6,482.4,-141.0,-0.59,-12.8,0.05,0.0,0.842140130857092,1.9244999350480634,0.1306976364540472,0.35,0,4,0.0
5.033937928999876,299,6074.26,94.9,6.7,57.4,1.86,-1.16,0.38,-0.04,0.84,-0.28,-142.1,441.8,-418.0,-0.71,-11.2,0.3,0.0,0.8863407922464135,2.224769650997604,0.08476703556343124,0.35,0,4,0.0
5.045601936000821,300,6074.27,95.1,6.7,57.5,2.3,-0.89,0.18,0.0,0.9,-0.28,-138.1,372.6,-606.0,-0.81,-9.26,0.28,0.0,0.9425497334358544,2.47275150389197,0.02798693248651052,0.35,0,4,0.0
5.053944663000948,301,6074.28,95.4,6.7,57.6,2.54,-0.39,-0.04,0.09,0.96,-0.29,-134.9,294.8,-777.0,-0.88,-6.87,0.37,0.0,1.0068763578513502,2.5700778198334775,0.03561289809040569,0.35,0,4,0.0
5.065876011,302,6074.29,95.6,6.7,57.6,2.21,0.24,-0.26,0.14,1.04,-0.31,-132.7,184.2,-1093.0,-0.93,-3.34,0.34,0.0,1.0942120452636226,2.238146554629522,0.12048961379262446,0.35,0,4,0.0
5.073909296001148,303,6074.3,95.8,6.7,57.5,0.94,0.71,-0.2,0.14,1.11,-0.33,-131.8,45.3,-1282.0,-0.93,0.38,0.28,0.0,1.1664475984801033,1.1948640089985136,0.18887066366892302,0.35,0,4,0.0
5.086240620999888,304,6074.31,95.8,6.7,57.5,-0.45,0.76,0.11,0.15,1.07,-0.33,-132.1,-51.5,-894.0,-0.92,2.09,0.25,0.0,1.1297344820797495,0.8900561780022652,0.1491143963231979,0.35,0,4,0.0
5.093960005000554,305,6074.32,95.7,6.7,57.4,-0.13,0.58,0.28,0.1,0.99,-0.27,-133.0,-107.5,-663.0,-0.89,3.56,0.0,0.0,1.0310189135025603,0.6570388116390081,0.04939085119108855,0.35,0,4,0.0
5.105826667000656,306,6074.33,95.8,6.8,57.4,1.08,-0.1,0.15,0.05,0.98,-0.27,-134.4,-156.8,-532.0,-0.84,4.81,0.09,0.0,1.0177426000713539,1.0949429208867465,0.03539224700468446,0.35,0,4,0.0
5.113849233999645,307,6074.34,95.9,6.7,57.4,2.42,-0.51,-0.27,0.11,1.07,-0.28,-136.3,-200.5,-468.0,-0.79,5.99,0.34,0.0,1.1114854924829203,2.48785047782217,0.1265524366279258,0.35,0,4,0.0
5.126112435000323,308,6074.35,96.2,6.7,57.4,3.4,-0.16,-0.73,0.07,1.16,-0.33,-138.6,-244.7,-446.0,-0.72,7.17,0.22,0.0,1.2080562900792329,3.4811635985687315,0.21866076953975366,0.35,0,4,0.0
5.133778965000602,309,6074.36,96.6,6.6,57.4,3.01,-0.05,-1.04,-0.02,1.22,-0.23,-141.4,-285.4,-405.0,-0.64,8.19,0.03,0.0,1.2416521251944925,3.1849960753507998,0.247211472561913,0.35,0,4,0.0
5.145723147999888,310,6074.37,96.8,6.5,57.5,2.58,-0.74,-1.28,-0.05,1.22,-0.16,-144.4,-314.6,-282.0,-0.55,8.76,-0.08,0.0,1.2314625451064274,2.9736173257499026,0.2322814546243709,0.35,0,4,0.0
5.15385549200073,311,6074.38,97.1,6.3,57.6,3.04,-1.41,-1.53,-0.01,1.21,-0.18,-147.6,-320.8,-84.0,-0.47,8.64,-0.08,0.0,1.2233560397529413,3.6838295291720544,0.219691450285467,0.35,0,4,0.0
5.165675227000975,312,6074.39,97.5,6.1,57.7,3.62,-1.72,-1.76,0.06,1.3,-0.15,-150.8,-312.2,42.0,-0.38,8.33,0.0,0.0,1.31,4.377259416575627,0.30020870232187535,0.35,0,4,0.0
5.1737978630008,313,6074.4,97.9,5.9,57.8,3.81,-1.62,-1.99,0.08,1.38,-0.06,-153.8,-296.8,133.0,-0.3,7.83,-0.23,0.0,1.383618444514238,4.593538940729685,0.3663506038993911,0.35,0,5,0.0
5.185946544001126,314,6074.41,98.2,5.6,58.0,3.37,-1.59,-2.62,0.06,1.44,0.01,-156.7,-277.2,176.0,-0.23,7.28,-0.09,0.0,1.4412841496387865,4.555150930540063,0.4155359828434606,0.35,0,5,0.0
5.193944413000281,315,6074.42,98.6,5.3,58.1,3.03,-1.31,-3.51,0.16,1.58,0.06,-159.3,-258.0,183.0,-0.16,6.78,0.16,0.0,1.5892136420255145,4.8184126016770294,0.5521961657255849,0.35,0,5,0.0
5.205674456001361,316,6074.43,98.8,4.9,58.1,1.54,-1.28,-3.71,0.23,1.73,0.17,-161.7,-237.0,217.0,-0.09,6.12,0.1,0.0,1.753482249696301,4.2159340602054005,0.7021354779284439,0.35,0,5,0.0
5.213787673001207,317,6074.44,98.8,4.5,58.2,-1.28,-1.56,-2.96,0.09,1.56,0.15,-163.9,-210.8,254.0,-0.04,5.38,-0.07,0.0,1.5697770542341356,3.5824014292091837,0.508061676816953,0.35,0,5,0.0
5.225844890001099,318,6074.45,98.6,4.3,58.4,-2.9,-2.04,-2.14,-0.08,1.27,0.16,-165.8,-183.0,264.0,0.0,4.65,-0.1,0.0,1.282536549186806,4.141400729221938,0.21640474833423085,0.35,0,5,0.0
5.233778044999781,319,6074.46,98.3,4.1,58.6,-2.93,-3.02,-1.49,-0.14,1.04,0.24,-167.5,-158.3,245.0,0.04,4.02,-0.07,0.0,1.0764757312638313,4.4637876293569345,0.010137051803031039,0.35,0,5,0.0
5.2460843970002315,320,6074.47,98.1,3.9,58.9,-1.89,-4.11,-0.8,-0.15,0.95,0.25,-168.9,-137.3,211.0,0.08,3.5,0.0,0.0,0.9937303457175894,4.593930778755814,0.07115616706834671,0.35,0,5,0.0
5.253921506000552,321,6074.48,98.0,3.8,59.4,-0.85,-5.03,-0.08,-0.15,0.88,0.26,-170.2,-118.7,189.0,0.11,3.02,0.0,0.0,0.9297849213662265,5.1019408071830865,0.13239955959131555,0.35,0,5,0.0
5.265566514999591,322,6074.49,98.0,3.7,59.9,-0.18,-5.83,0.22,-0.15,0.81,0.27,-171.2,-100.8,183.0,0.14,2.53,-0.06,0.0,0.8668909966079934,5.836925560601232,0.19138761466255771,0.35,0,5,0.0
5.27395758000057,323,6074.5,98.0,3.6,60.6,-0.14,-6.71,-0.04,-0.08,0.78,0.24,-172.1,-81.0,196.0,0.16,1.96,-0.29,0.0,0.82,6.711579545829729,0.2335130390451402,0.35,0,5,0.0
5.285676729999977,324,6074.51,98.0,3.5,61.3,-0.98,-7.08,-0.63,0.02,0.77,0.1,-172.8,-61.2,197.0,0.18,1.41,-0.07,0.0,0.7767238891652554,7.175214282514496,0.2712533668822871,0.35,0,5,0.0
5.293846386000951,325,6074.52,97.9,3.3,61.9,-2.28,-6.7,-1.22,0.09,0.8,-0.03,-173.3,-41.5,194.0,0.19,0.9,-0.07,0.0,0.8056053624449133,7.181698963337296,0.23752445573057646,0.35,0,5,0.0
5.305640829999902,326,6074.53,97.6,3.1,62.5,-2.87,-5.91,-1.63,0.14,0.81,-0.09,-173.5,-24.6,161.0,0.19,0.52,-0.02,0.0,0.826922003577121,6.7691875435682825,0.21188365830640143,0.35,0,5,0.0
5.313867677001326,327,6074.54,97.4,2.9,63.1,-2.28,-5.14,-1.78,0.18,0.84,-0.1,-173.7,-13.6,132.0,0.2,0.2,-0.18,0.0,0.864869932417586,5.8979996609019905,0.17045701487661769,0.35,0,5,0.0
5.325588427000184,328,6074.55,97.2,2.6,63.5,-1.09,-4.4,-1.69,0.21,0.88,-0.15,-173.8,-1.8,110.0,0.2,-0.05,0.24,0.0,0.91706052144883,4.837788751072126,0.11590109732846632,0.35,0,5,0.0
5.333995363000213,329,6074.56,97.2,2.5,63.9,0.01,-3.53,-1.13,0.23,0.97,-0.2,-173.8,1.5,23.0,0.2,0.03,-0.14,0.0,1.0167595585978033,3.706467320778641,0.01587801897590313,0.35,0,5,0.0
5.345530223001333,330,6074.57,97.3,2.3,64.2,0.56,-2.68,-0.58,0.22,0.97,-0.21,-173.8,-3.8,-26.0,0.2,0.16,0.08,0.0,1.0165628362280414,2.798642528083928,0.015753246518751762,0.35,0,5,0.0
5.35377468400111,331,6074.58,97.3,2.3,64.4,0.81,-2.16,-0.1,0.23,1.0,-0.16,-173.9,-10.8,-64.0,0.2,0.4,0.0,0.0,1.0385085459446157,2.3090474226399076,0.0060686139338661516,0.35,0,5,0.0
5.366162422000343,332,6074.59,97.4,2.3,64.6,0.49,-1.82,0.31,0.22,1.02,-0.14,-174.0,-21.8,-114.0,0.21,0.8,0.21,0.0,1.0528057750601485,1.9101308855677928,0.019958526188410985,0.35,0,5,0.0
5.373966544000723,333,6074.6,97.4,2.3,64.8,-0.07,-1.52,0.57,0.2,0.97,-0.15,-174.4,-36.8,-128.0,0.22,1.15,0.02,0.0,1.0016985574512924,1.624869225507087,0.03052571759203615,0.35,0,5,0.0
5.385526830999879,334,6074.61,97.4,2.3,64.9,-0.49,-1.26,0.57,0.17,0.94,-0.15,-174.8,-50.9,-140.0,0.23,1.57,0.03,0.0,0.9669539802906858,1.467174154625142,0.06396488885759,0.35,0,5,0.0
5.393847053001082,335,6074.62,97.3,2.4,65.0,-0.8,-0.99,0.52,0.16,0.91,-0.17,-175.4,-66.7,-147.0,0.25,1.98,0.08,0.0,0.9394679345246436,1.3749545447032059,0.08962191593115965,0.35,0,5,0.0
5.405635824001365,336,6074.63,97.3,2.4,65.1,-0.79,-0.67,0.47,0.15,0.9,-0.17,-176.2,-79.1,-120.0,0.27,2.26,0.0,0.0,0.9281163720137686,1.1374972527439353,0.09895400887319394,0.35,0,5,0.0
5.41377760999967,337,6074.64,97.2,2.4,65.2,-0.63,-0.44,0.4,0.14,0.89,-0.18,-177.1,-89.3,-104.0,0.3,2.52,-0.28,0.0,0.9187491496594704,0.8663140308225419,0.1061548066029423,0.35,0,5,0.0
5.425643406000745,338,6074.65,97.2,2.5,65.2,-0.3,-0.24,0.3,0.14,0.91,-0.19,-178.0,-96.2,-75.0,0.32,2.68,-0.01,0.0,0.9401063769595439,0.4874423042781576,0.08310162771681151,0.35,0,5,0.0
5.433827438000662,339,6074.66,97.1,2.5,65.2,-0.23,-0.04,0.28,0.14,0.94,-0.19,-179.0,-101.2,-60.0,0.35,2.82,0.01,0.0,0.9691749068150701,0.3645545226711637,0.052952435904059625,0.35,0,5,0.0
5.44561228800012,340,6074.67,97.1,2.5,65.2,-0.27,0.11,0.32,0.13,0.98,-0.19,-180.1,-105.3,-35.0,0.38,2.88,-0.06,0.0,1.006677704133751,0.4328972164382673,0.01514064581367136,0.35,0,5,0.0
5.45385171900125,341,6074.68,97.1,2.6,65.2,-0.23,0.26,0.37,0.11,0.98,-0.21,-181.1,-105.9,-13.0,0.41,2.87,0.0,0.0,1.008265837961398,0.5073460357586329,0.013281461746303735,0.35,0,5,0.0
5.465687383000841,342,6074.69,97.1,2.6,65.2,-0.35,0.31,0.54,0.09,0.98,-0.21,-182.2,-105.4,3.0,0.44,2.83,0.14,0.0,1.0062802790475425,0.7142828571371428,0.0149616802469561,0.35,0,5,0.0
5.473816440000519,343,6074.7,97.1,2.7,65.2,-0.48,0.35,0.68,0.07,0.96,-0.23,-183.2,-103.3,14.0,0.46,2.78,-0.01,0.0,0.9896464014990405,0.9029396436085859,0.03096364663954887,0.35,0,5,0.0
5.485655615000724,344,6074.71,97.1,2.8,65.2,-0.52,0.37,0.79,0.06,0.93,-0.23,-184.2,-101.3,12.0,0.49,2.75,0.03,0.0,0.9598958276813168,1.0155786527886455,0.0594999360481272,0.35,0,5,0.0
5.493967877000614,345,6074.72,97.1,2.9,65.1,-0.51,0.29,0.84,0.05,0.9,-0.22,-185.2,-100.4,17.0,0.52,2.7,0.01,0.0,0.9278469701410896,1.024597481941079,0.08971781771658716,0.35,0,5,0.0
5.505641768000714,346,6074.73,97.1,3.0,65.1,-0.52,0.16,0.81,0.05,0.88,-0.22,-186.2,-97.4,21.0,0.55,2.63,0.09,0.0,0.9084602357836032,0.9757561170702442,0.10692246103259218,0.35,0,5,0.0
5.513801376000629,347,6074.74,97.1,3.1,65.1,-0.68,0.09,0.72,0.05,0.86,-0.24,-187.2,-96.1,9.0,0.57,2.62,-0.04,0.0,0.8942594701763017,0.99443451267542,0.11870076210709579,0.35,0,5,0.0
5.525713871000335,348,6074.75,97.0,3.1,65.1,-1.01,0.1,0.56,0.07,0.82,-0.27,-188.1,-94.0,23.0,0.6,2.53,-0.08,0.0,0.8661408661412991,1.1591807451816996,0.14388297881925627,0.35,0,5,0.0
5.53382277899982,349,6074.76,96.9,3.2,65.1,-1.37,0.13,0.26,0.1,0.77,-0.28,-189.1,-91.8,22.0,0.62,2.45,-0.1,0.0,0.8254089895318563,1.4004999107461593,0.18092255832012516,0.35,0,5,0.0
5.545643266001207,350,6074.77,96.8,3.2,65.1,-1.81,0.24,-0.05,0.14,0.72,-0.31,-190.0,-89.8,15.0,0.65,2.43,-0.06,0.0,0.7963039620647381,1.8265267586323501,0.2058270340714985,0.35,0,5,0.0
5.5539622329997655,351,6074.78,96.5,3.2,65.1,-2.13,0.55,-0.35,0.18,0.7,-0.35,-190.8,-88.1,16.0,0.67,2.38,0.02,0.0,0.803056660516554,2.227532266881896,0.19509284890728895,0.35,0,5,0.0
5.565512093000507,352,6074.79,96.3,3.1,65.0,-1.9,1.08,-0.52,0.2,0.69,-0.36,-191.7,-86.7,10.0,0.69,2.35,0.0,0.0,0.803554602998452,2.2465084019428905,0.19070300829688314,0.35,0,5,0.0
5.573691122001037,353,6074.8,96.2,3.1,64.8,-0.86,1.41,-0.61,0.2,0.71,-0.31,-192.6,-88.4,-13.0,0.72,2.43,-0.1,0.0,0.8001249902359006,1.7606248890663792,0.19024996863824595,0.35,0,5,0.0
5.5856780750000325,354,6074.81,96.2,3.1,64.7,0.62,1.54,-0.5,0.17,0.76,-0.24,-193.5,-90.7,-19.0,0.74,2.5,0.14,0.0,0.8149233092751734,1.7337819932159868,0.17194261660699361,0.35,0,5,0.0
5.593805837001128,355,6074.82,96.3,3.0,64.5,1.81,1.4,-0.39,0.13,0.81,-0.23,-194.4,-95.4,-52.0,0.77,2.7,-0.1,0.0,0.8519976525789259,2.3212496634356246,0.13217090783717633,0.35,0,5,0.0
5.605649053000889,356,6074.83,96.5,3.0,64.4,2.24,1.33,-0.32,0.09,0.86,-0.24,-195.4,-104.1,-72.0,0.8,2.92,0.15,0.0,0.8973850901368932,2.6246714080052005,0.08504780087362485,0.35,0,5,0.0
5.613859308999963,357,6074.84,96.7,3.0,64.2,1.84,1.26,-0.28,0.05,0.89,-0.23,-196.5,-113.1,-91.0,0.83,3.2,0.16,0.0,0.9205976319760985,2.2475764725588316,0.06059855385373114,0.35,0,5,0.0
5.626136613000199,358,6074.85,96.9,3.0,64.1,1.38,1.16,-0.25,0.01,0.9,-0.22,-197.8,-123.9,-105.0,0.86,3.5,-0.14,0.0,0.9265527507918802,1.8200274723201295,0.053550566337190464,0.35,0,5,0.0
5.633863987999575,359,6074.86,97.0,3.0,64.0,1.43,0.97,-0.16,-0.01,0.94,-0.17,-199.1,-135.2,-108.0,0.9,3.79,0.22,0.0,0.9553009996854395,1.7353385836775483,0.02430627109475858,0.35,0,5,0.0
5.645704311000372,360,6074.87,97.2,2.9,63.9,2.3,0.5,0.07,-0.05,0.99,-0.07,-200.5,-148.1,-129.0,0.94,4.2,0.03,0.0,0.9937303457175894,2.3547611343828483,0.013840613438643623,0.35,0,5,0.0
5.653849823000201,361,6074.88,97.4,3.0,63.9,2.75,-0.34,0.24,-0.1,1.01,-0.05,-202.1,-160.6,-117.0,0.99,4.49,-0.02,0.0,1.0161692772368194,2.7813126397440473,0.035553954058716086,0.35,0,5,0.0
5.665688574001251,362,6074.89,97.7,3.0,64.0,1.68,-1.1,0.15,-0.08,1.05,-0.11,-203.8,-171.2,-105.0,1.03,4.77,-0.06,0.0,1.058772874605314,2.01367822652975,0.0765944003986665,0.35,0,5,0.0
5.673751956999695,363,6074.9,97.7,3.0,64.1,-0.19,-1.37,0.01,-0.04,0.99,-0.32,-205.5,-182.1,-115.0,1.08,5.1,0.09,0.0,1.0412012293500235,1.3831485820402667,0.05784230004050839,0.35,0,5,0.0
5.685685637999995,364,6074.91,97.7,2.9,64.3,-1.14,-1.02,-0.46,0.04,0.87,-0.43,-207.4,-191.9,-94.0,1.14,5.31,0.02,0.0,0.9712878049270464,1.5973728431396346,0.011829701894819356,0.35,0,5,0.0
5.693882346000464,365,6074.92,97.6,2.8,64.3,-1.04,-0.58,-0.63,0.15,1.0,-0.45,-209.4,-199.4,-79.0,1.19,5.5,0.08,0.0,1.1067971810589328,1.3471822445385777,0.12120608075232575,0.35,0,5,0.0
5.7055545920011355,366,6074.93,97.5,2.8,64.4,0.35,0.02,-0.34,0.21,1.13,-0.39,-211.5,-207.0,-85.0,1.25,5.75,-0.14,0.0,1.213713310465037,0.4883646178829912,0.2235597659552614,0.35,0,5,0.0
5.7140327819997765,367,6074.94,97.7,2.8,64.3,1.96,0.6,0.34,0.18,1.3,-0.27,-213.6,-220.5,-136.0,1.31,6.21,0.02,0.0,1.3398880550254937,2.077787284589065,0.3427398203054036,0.35,0,5,0.0
5.725505861000784,368,6074.95,97.9,2.9,64.3,2.69,0.71,1.24,0.09,1.26,-0.27,-216.0,-239.9,-178.0,1.37,6.76,-0.03,0.0,1.2917430084966592,3.0459481282516943,0.2887028783010377,0.35,0,5,0.0
5.733881641001062,369,6074.96,98.2,3.1,64.2,2.02,0.71,1.62,0.07,1.13,-0.34,-218.5,-259.9,-183.0,1.44,7.27,-0.03,0.0,1.1821167455035901,2.6849394779026214,0.17549508300180916,0.35,0,5,0.0
5.745642021000094,370,6074.97,98.4,3.2,64.2,1.34,0.79,1.51,0.11,1.0,-0.38,-221.2,-275.8,-170.0,1.52,7.72,0.18,0.0,1.0754068997360953,2.16790221181676,0.067409532489628,0.35,0,5,0.0
5.75382974599961,371,6074.98,98.5,3.4,64.1,1.35,1.12,1.2,0.13,1.01,-0.36,-224.1,-295.9,-207.0,1.6,8.34,0.02,0.0,1.0800925886237716,2.1252999788265186,0.0706533169497583,0.35,0,5,0.0
5.765622910999809,372,6074.99,98.7,3.5,64.0,1.94,1.64,1.05,0.17,1.22,-0.22,-227.2,-320.6,-235.0,1.69,9.02,0.18,0.0,1.2512793453102309,2.748763358312243,0.23700327216349337,0.35,0,5,0.0
5.7740365999998176,373,6075.0,98.9,3.7,63.8,2.46,1.95,1.53,0.19,1.46,-0.1,-230.6,-347.1,-260.0,1.78,9.78,0.03,0.0,1.475703222196116,3.4921340180468445,0.4521986060683909,0.35,1,6,3.0
5.785570070000176,374,6075.01,99.1,3.9,63.6,2.55,2.41,2.36,0.18,1.7,-0.06,-233.7,-371.5,-349.0,1.89,10.57,-0.03,0.0,1.7105554653386716,4.228498551495554,0.6733098322267277,0.35,0,6,3.0
5.793795854000564,375,6075.02,99.4,4.3,63.4,2.13,2.74,3.63,0.11,1.81,0.08,-238.1,-364.7,382.0,1.98,8.23,3.09,3.49,1.815103302845323,5.022091197897545,0.7623005163387113,0.35,0,6,3.0
5.805613954000364,376,6075.03,99.5,4.7,63.2,0.39,2.34,4.73,0.04,1.66,0.15,-240.8,-219.0,1104.0,2.04,4.22,3.03,3.49,1.667243233604503,5.291559316496415,0.6021516381559338,0.35,0,6,3.0
5.813993497000411,377,6075.04,99.4,5.3,63.1,-2.35,1.98,5.26,0.08,1.35,0.07,-242.0,-86.6,1143.0,2.06,1.1,3.11,3.49,1.354178717895094,6.091838802857476,0.283305379997594,0.35,0,6,3.0
5.825497993000681,378,6075.05,99.0,5.8,63.0,-3.88,2.45,4.9,0.22,1.01,-0.03,-242.2,0.4,832.0,2.05,-0.61,3.36,3.49,1.034117981663601,6.71318851217512,0.03602024910922097,0.35,0,6,3.0
5.833824459001335,379,6075.06,98.6,6.3,62.7,-3.87,3.3,4.02,0.36,0.82,0.01,-242.0,18.1,249.0,2.05,-0.32,3.53,3.49,0.8956003573022957,6.482846596981915,0.17104711600111577,0.35,0,6,3.0
5.845647354000903,380,6075.07,98.2,6.7,62.4,-2.92,3.93,3.03,0.47,0.75,0.1,-241.9,3.8,8.0,2.05,0.0,3.29,3.49,0.890730037665734,5.757794716729661,0.172399086924924,0.35,0,6,3.0
5.85381272000086,381,6075.08,97.9,7.0,62.0,-2.03,4.58,2.23,0.48,0.8,0.12,-241.9,1.0,15.0,2.05,-0.06,3.32,3.49,0.9406380813043878,5.48363018446722,0.12004122242054494,0.35,0,6,3.0
5.865690669999822,382,6075.09,97.7,7.3,61.6,-1.42,5.33,1.83,0.43,0.79,0.06,-241.9,4.5,27.0,2.05,-0.16,3.56,3.49,0.901443287178955,5.8115574504602465,0.15605129621505798,0.35,0,6,3.0
5.873818146001213,383,6075.1,97.5,7.5,61.0,-0.25,5.99,1.46,0.28,0.79,0.06,-241.8,11.2,66.0,2.04,-0.42,3.41,3.49,0.8402975663418288,6.170429482621125,0.2128530767111405,0.35,0,6,3.0
5.885772693000035,384,6075.11,97.5,7.7,60.4,0.93,6.17,1.31,0.15,0.83,0.1,-241.6,34.1,279.0,2.03,-1.56,3.31,3.49,0.8493526947034429,6.375727409480427,0.19972198938253594,0.35,0,6,3.0
5.8939287869998225,385,6075.12,97.6,7.9,59.8,1.92,5.75,1.11,0.1,0.89,0.15,-240.8,92.2,482.0,2.01,-3.19,3.3,3.49,0.9080748867797193,6.162872706782122,0.1381798013601343,0.35,0,6,3.0
5.906039035000504,386,6075.13,97.7,8.1,59.3,2.68,5.17,0.58,0.05,0.94,0.12,-239.5,151.2,563.0,1.96,-4.86,3.23,3.49,0.9489467845985885,5.852153449799483,0.09536174547043974,0.35,0,6,3.0
5.913792322000518,387,6075.14,97.9,8.2,58.8,2.16,4.69,-0.14,0.02,1.02,0.06,-237.5,218.0,640.0,1.9,-6.74,3.13,3.49,1.0219589032832974,5.165394467027664,0.02190263425001615,0.35,0,6,3.0
5.925871168001322,388,6075.15,98.0,8.2,58.4,0.68,4.21,-0.73,-0.01,1.07,0.06,-234.9,287.6,667.0,1.82,-8.6,3.3,3.49,1.0717275773255068,4.326592192476661,0.027308718996349457,0.35,0,6,3.0
5.933897333999994,389,6075.16,97.9,8.2,58.0,-0.78,3.58,-1.13,-0.02,0.99,0.06,-231.6,350.4,619.0,1.72,-10.24,2.85,3.49,0.9920181449953422,3.8342795933525764,0.05135269906713891,0.35,0,6,3.0
5.945590985000308,390,6075.17,97.8,8.1,57.6,-1.15,3.13,-1.39,-0.03,0.92,0.03,-227.7,404.2,546.0,1.61,-11.6,3.03,3.49,0.9209777413162601,3.612685981371755,0.11994524069129664,0.35,0,6,3.0
5.953932517000794,391,6075.18,97.6,8.0,57.3,-0.91,2.73,-1.53,-0.01,0.87,0.02,-223.3,449.9,461.0,1.49,-12.71,3.72,3.49,0.8702873088813832,3.2591256496183143,0.16722295966365008,0.35,0,6,3.0
5.965702153000166,392,6075.19,97.5,7.8,57.0,-0.4,2.41,-1.54,0.0,0.86,0.0,-218.5,495.1,451.0,1.35,-13.92,3.48,3.49,0.86,2.887853874419549,0.1739600631741326,0.35,0,6,0.0
5.973801047000961,393,6075.2,97.5,7.7,56.8,-0.15,2.11,-1.4,0.01,0.89,0.0,-213.3,523.5,290.0,1.21,-14.47,3.73,3.49,0.8900561780022652,2.5366513359151273,0.14102580746842996,0.35,0,6,0.0
5.985630388000573,394,6075.21,97.4,7.6,56.6,-0.26,1.82,-1.21,0.01,0.92,-0.02,-208.0,531.6,-116.0,1.06,-13.37,0.67,0.0,0.9202716990106781,2.200931620927829,0.10859408073081678,0.35,0,6,0.0
5.993820780000533,395,6075.22,97.3,7.5,56.4,-0.43,1.54,-1.0,0.0,0.95,-0.03,-203.5,402.1,-1002.0,0.96,-9.26,0.53,0.0,0.9504735661763561,1.8858685001876456,0.07682436929383596,0.35,0,6,0.0
6.006143549000626,396,6075.23,97.3,7.5,56.2,-0.1,1.04,-1.04,0.06,0.93,-0.03,-200.3,290.0,-952.0,0.88,-6.86,0.34,0.0,0.9324162160752033,1.4741777369096307,0.09298408500708899,0.35,0,6,0.0
6.013891222000893,397,6075.24,97.3,7.3,56.1,0.3,0.86,-1.09,0.06,0.94,-0.11,-197.9,215.2,-757.0,0.83,-5.12,0.23,0.0,0.9483142938920619,1.4204576727238303,0.0755442870464258,0.35,0,6,0.0
6.025876432000587,398,6075.25,97.3,7.2,56.0,-0.08,0.8,-1.16,0.0,0.96,-0.14,-196.1,166.1,-521.0,0.78,-4.1,0.19,0.0,0.9701546268507922,1.411382301150188,0.05262987500594163,0.35,0,6,0.0
6.033982483000727,399,6075.26,97.2,7.1,55.9,-0.83,0.79,-1.03,-0.04,0.97,-0.12,-194.7,137.7,-325.0,0.75,-3.53,0.0,0.0,0.9782126558167197,1.5407465722824114,0.043680409119214,0.35,0,6,0.0
6.045713354000327,400,6075.27,97.1,7.0,55.9,-1.21,0.52,-0.82,-0.07,0.91,-0.11,-193.4,125.4,-164.0,0.71,-3.33,-0.02,0.0,0.9192932067626738,1.551418705572419,0.10054786100979474,0.35,0,6,0.0
6.053970012000718,401,6075.28,97.0,6.9,55.8,-0.89,0.24,-0.72,-0.09,0.88,-0.14,-192.2,122.5,-58.0,0.68,-3.34,-0.02,0.0,0.8956003573022958,1.1696580696938743,0.12175589626076933,0.35,0,6,0.0
6.065852576000907,402,6075.29,96.9,6.9,55.8,-0.34,-0.11,-0.64,-0.11,0.86,-0.14,-190.9,127.9,31.0,0.65,-3.58,0.01,0.0,0.8782368700982668,0.7330075033722371,0.1363369957955023,0.35,0,6,0.0
6.073807132999718,403,6075.3,96.9,6.8,55.8,0.16,-0.58,-0.58,-0.11,0.87,-0.13,-189.6,137.9,85.0,0.61,-3.92,-0.13,0.0,0.8865100112237876,0.8357032966310471,0.1255025775765819,0.35,0,6,0.0
6.085736560000441,404,6075.31,97.0,6.7,55.9,0.33,-1.16,-0.56,-0.11,0.88,-0.12,-188.1,152.7,141.0,0.57,-4.37,0.06,0.0,0.8949301648732151,1.3296992141082133,0.11474077544861139,0.35,0,6,0.0
6.094026893000773,405,6075.32,97.0,6.7,56.1,0.1,-1.72,-0.58,-0.08,0.89,-0.15,-186.4,171.3,175.0,0.52,-4.9,0.0,0.0,0.9060905032059435,1.8179108889051738,0.10150882837356534,0.35,0,6,0.0
6.1055210909999005,406,6075.33,97.0,6.6,56.2,-0.44,-2.16,-0.61,-0.05,0.91,-0.18,-184.6,193.5,208.0,0.46,-5.52,-0.12,0.0,0.9289779329994874,2.2872035327010143,0.07704897060842097,0.35,0,6,0.0
6.113861648000238,407,6075.34,96.9,6.5,56.5,-1.02,-2.46,-0.58,-0.01,0.9,-0.21,-182.5,215.3,223.0,0.41,-6.15,0.11,0.0,0.9242294087508793,2.72550912675045,0.08016154495988848,0.35,0,6,0.0
6.125723709999875,408,6075.35,96.8,6.4,56.7,-1.56,-2.61,-0.46,0.0,0.89,-0.22,-180.2,237.8,216.0,0.34,-6.72,0.26,0.0,0.9167878707749137,3.0752723456630635,0.08585102127713706,0.35,0,6,0.0
6.133860384001309,409,6075.36,96.7,6.3,57.0,-2.03,-2.77,-0.22,-0.01,0.86,-0.22,-177.7,256.4,190.0,0.27,-7.19,0.15,0.0,0.8877499647986475,3.4412497729749285,0.11259114870833531,0.35,0,6,0.0
6.145639653999751,410,6075.37,96.5,6.3,57.3,-2.24,-2.95,0.02,-0.01,0.83,-0.22,-175.0,276.0,207.0,0.19,-7.78,-0.09,0.0,0.8587199776411399,3.7041193285314127,0.13878871314852603,0.35,0,6,0.0
6.154051313000309,411,6075.38,96.3,6.3,57.6,-2.32,-3.09,0.29,0.0,0.8,-0.25,-172.0,300.6,232.0,0.11,-8.45,-0.1,0.0,0.8381527307120106,3.874867739678349,0.15616884087610228,0.35,0,6,0.0
6.165537183000197,412,6075.39,96.1,6.3,57.9,-2.05,-3.09,0.5,-0.01,0.75,-0.28,-168.9,322.4,207.0,0.02,-8.98,0.07,0.0,0.8006247560499238,3.7417375642874795,0.18982287922742525,0.35,0,6,0.0
6.173906407000686,413,6075.4,96.0,6.3,58.2,-1.21,-3.05,0.56,-0.03,0.72,-0.3,-165.5,343.7,233.0,-0.06,-9.68,-0.12,0.0,0.7805767098754612,3.328693437371486,0.20567350689385,0.35,0,6,0.0
6.185712702001183,414,6075.41,96.0,6.3,58.5,-0.38,-2.97,0.5,-0.04,0.72,-0.3,-161.9,371.1,246.0,-0.16,-10.36,-0.15,0.0,0.7810249675906654,3.0356712601992992,0.20112074419507286,0.35,0,6,0.0
6.193959058000473,415,6075.42,96.0,6.3,58.8,0.14,-2.83,0.43,-0.02,0.76,-0.27,-158.0,386.6,152.0,-0.27,-10.61,-0.06,0.0,0.8067837380611981,2.8659029990563187,0.17185473425004938,0.35,0,6,0.0
6.2058982770013245,416,6075.43,96.0,6.4,59.1,0.43,-2.69,0.39,0.0,0.78,-0.27,-154.1,392.5,66.0,-0.38,-10.64,0.11,0.0,0.8254089895318563,2.7519265978583074,0.15016489312380332,0.35,0,6,0.0
6.213735585000904,417,6075.44,96.1,6.4,59.4,0.81,-2.56,0.32,0.0,0.8,-0.29,-150.3,381.7,-122.0,-0.48,-10.0,0.19,0.0,0.8509406559801923,2.704089495560382,0.1221405621419579,0.35,0,6,0.0
6.225603529999717,418,6075.45,96.3,6.4,59.6,1.2,-2.32,0.27,0.04,0.83,-0.34,-146.7,343.6,-340.0,-0.57,-8.73,0.32,0.0,0.8978307190111062,2.625890325204006,0.07374548912882306,0.35,0,6,0.0
6.233941555999991,419,6075.46,96.4,6.4,59.8,1.5,-1.94,0.28,0.08,0.87,-0.36,-143.6,283.8,-570.0,-0.64,-6.8,0.53,0.0,0.9449338601193208,2.468197723035981,0.026109501060196272,0.35,0,6,0.0
6.245863239000755,420,6075.47,96.6,6.4,60.0,1.8,-1.48,0.27,0.13,0.9,-0.36,-141.4,206.6,-703.0,-0.7,-4.62,0.15,0.0,0.9780081799248921,2.345911336772982,0.006825522370467518,0.35,0,6,0.0
6.254030460000649,421,6075.48,96.8,6.4,60.1,2.03,-0.8,0.13,0.18,0.94,-0.37,-139.9,122.5,-821.0,-0.73,-2.22,0.33,0.0,1.0261091559868276,2.185817924713767,0.05382796846375504,0.35,0,6,0.0
6.265548942999885,422,6075.49,97.0,6.4,60.1,1.77,-0.13,0.0,0.19,1.0,-0.36,-139.2,42.2,-812.0,-0.74,-0.09,0.32,0.0,1.0796758772891057,1.7747675904185316,0.10524679597071251,0.35,0,6,0.0
6.273825844000385,423,6075.5,97.2,6.4,60.1,0.9,0.13,0.02,0.14,1.05,-0.38,-139.3,-29.5,-665.0,-0.73,1.41,0.14,0.0,1.1253888216967505,0.9095603333479314,0.14794054557079006,0.35,0,6,0.0
6.285644413001137,424,6075.51,97.2,6.4,60.1,-0.08,0.2,0.28,0.06,1.02,-0.31,-139.9,-79.4,-552.0,-0.7,2.75,0.23,0.0,1.0677546534667972,0.3532704346531139,0.08850024979402005,0.35,0,6,0.0
6.293669155000316,425,6075.52,97.2,6.4,60.1,0.23,-0.73,0.16,0.05,0.98,-0.23,-141.1,-124.2,-471.0,-0.67,3.89,0.35,0.0,1.0078690391117289,0.7819207120929844,0.028042342730172698,0.35,0,6,0.0
6.306009975000052,426,6075.53,97.3,6.4,60.2,2.1,-0.87,-0.42,0.13,1.04,-0.28,-142.6,-171.0,-494.0,-0.62,5.3,0.0,0.0,1.084850220076486,2.311557916211489,0.10292305322103124,0.35,0,6,0.0
6.314027829999759,427,6075.54,97.7,6.3,60.3,3.35,-0.52,-1.09,0.11,1.18,-0.29,-144.7,-222.5,-494.0,-0.56,6.62,0.05,0.0,1.2200819644597654,3.5610391741737413,0.23339170165222434,0.35,0,6,0.0
6.325311055001293,428,6075.55,98.0,6.1,60.3,3.0,-0.48,-1.66,0.09,1.28,-0.19,-147.2,-261.2,-367.0,-0.48,7.4,-0.01,0.0,1.29715072370176,3.462080299473136,0.3042512516763347,0.35,0,6,0.0
6.333659246000025,429,6075.56,98.3,5.9,60.4,1.89,-1.16,-1.96,0.06,1.27,-0.14,-150.0,-279.5,-205.0,-0.41,7.69,0.12,0.0,1.2791012469699183,2.959611460986053,0.28047773944560306,0.35,0,6,0.0
6.345258765000835,430,6075.57,98.4,5.7,60.5,1.62,-1.95,-2.21,0.1,1.22,-0.16,-152.8,-281.0,-36.0,-0.33,7.51,0.0,0.0,1.2345039489608771,3.363183016132188,0.23116283260783055,0.35,0,6,0.0
6.353731995999624,431,6075.58,98.6,5.4,60.7,2.65,-1.98,-2.72,0.15,1.25,-0.17,-155.5,-266.1,109.0,-0.26,6.96,-0.04,0.0,1.2703936397825675,4.282674398083516,0.26171147296093045,0.35,0,6,0.0
6.365520145000119,432,6075.59,99.0,5.1,60.8,4.38,-1.42,-3.72,0.23,1.36,-0.16,-158.0,-242.5,205.0,-0.19,6.26,-0.15,0.0,1.388560405599987,5.919391860655958,0.37228067400278286,0.35,0,7,0.0
6.374064579000333,433,6075.6,99.5,4.7,60.8,4.89,-0.24,-4.73,0.39,1.65,-0.08,-160.2,-215.4,246.0,-0.14,5.54,-0.18,0.0,1.6973508771023156,6.807539937451708,0.6674497225950093,0.35,0,7,0.0
6.385347225001169,434,6075.61,99.8,4.2,60.7,2.34,0.72,-4.89,0.43,1.9,-0.01,-162.2,-187.6,274.0,-0.09,4.73,-0.25,0.0,1.9480759738778157,5.468646999030016,0.8998113229830993,0.35,0,7,0.0
6.393826862000424,435,6075.62,99.9,3.8,60.5,-1.28,1.1,-3.76,0.2,1.64,0.06,-163.9,-161.6,249.0,-0.04,4.11,-0.11,0.0,1.6532392446346051,4.121407526561769,0.5928751018650908,0.35,0,7,0.0
6.405533557001036,436,6075.63,99.6,3.5,60.4,-3.21,0.52,-2.61,-0.14,1.34,0.13,-165.4,-141.9,198.0,-0.01,3.66,-0.18,0.0,1.3535508856337837,4.169724211503682,0.28732300800698396,0.35,0,7,0.0
6.413825720001114,437,6075.64,99.3,3.3,60.4,-3.24,-0.79,-1.57,-0.38,1.07,0.21,-166.7,-131.2,123.0,0.02,3.46,0.01,0.0,1.1547294055318762,3.6860005425935576,0.08673149734697505,0.35,0,7,0.0
6.425576714000272,438,6075.65,99.0,3.1,60.5,-1.66,-2.46,-0.86,-0.42,0.91,0.26,-168.0,-125.4,67.0,0.05,3.37,-0.01,0.0,1.0354226190305098,3.089789636852321,0.03192378337130353,0.35,0,7,0.0
6.433668113000749,439,6075.66,99.0,3.0,60.8,0.57,-3.91,-0.33,-0.39,0.95,0.31,-169.2,-124.6,22.0,0.09,3.39,0.1,0.0,1.072706856508338,3.9650851188845873,0.00525324502439406,0.35,0,7,0.0
6.445548847999817,440,6075.67,99.1,3.0,61.3,1.09,-5.12,0.4,-0.29,0.97,0.28,-170.4,-123.8,14.0,0.12,3.34,0.3,0.0,1.0504284840006957,5.25,0.016684624933583247,0.35,0,7,0.0
6.453732355001193,441,6075.68,99.3,2.9,61.9,0.48,-6.18,0.28,-0.19,0.98,0.24,-171.7,-121.0,36.0,0.15,3.21,0.0,0.0,1.0266937225872184,6.204933520997627,0.03961099862011941,0.35,0,7,0.0
6.465500787000565,442,6075.69,99.3,2.8,62.5,-1.14,-6.83,-0.19,0.02,0.98,0.15,-172.8,-113.2,77.0,0.18,2.93,-0.14,0.0,0.9916148445843275,6.927091741849533,0.07319607909055004,0.35,0,7,0.0
6.473905476001164,443,6075.7,99.0,2.6,63.2,-3.55,-6.55,-0.63,0.14,0.98,0.01,-173.9,-99.8,121.0,0.21,2.51,-0.19,0.0,0.9899999999999999,7.476757318517166,0.07331470520138017,0.35,0,7,0.0
6.485471007001252,444,6075.71,98.6,2.5,63.8,-5.26,-5.82,-0.89,0.22,0.93,-0.07,-174.8,-81.5,178.0,0.23,1.95,-0.26,0.0,0.9582275303913993,7.895068080770425,0.10298543131378113,0.35,0,7,0.0
6.493865813999946,445,6075.72,98.1,2.3,64.3,-5.39,-4.92,-0.86,0.25,0.88,-0.12,-175.4,-60.1,207.0,0.25,1.35,-0.06,0.0,0.9226592003551474,7.348339948587028,0.13578268612303235,0.35,0,7,0.0
6.505557894999583,446,6075.73,97.6,2.2,64.7,-4.19,-4.08,-0.62,0.26,0.83,-0.16,-175.9,-37.1,212.0,0.26,0.77,-0.01,0.0,0.8843641783790205,5.881062829115159,0.17059615393717598,0.35,0,7,0.0
6.5137781360008375,447,6075.74,97.3,2.1,65.1,-2.28,-3.12,-0.24,0.25,0.81,-0.19,-176.1,-19.7,174.0,0.26,0.35,0.01,0.0,0.8687347120957007,3.871743793176403,0.18250110781608586,0.35,0,7,0.0
6.52555054000004,448,6075.75,97.2,2.0,65.3,-0.43,-2.4,0.18,0.19,0.82,-0.14,-176.2,-8.6,111.0,0.26,0.16,0.08,0.0,0.8532877591996735,2.444851733745832,0.1939890994978708,0.35,0,7,0.0
6.534063516999595,449,6075.76,97.2,2.1,65.6,0.51,-2.2,0.62,0.17,0.89,-0.12,-176.3,-7.2,26.0,0.27,0.23,-0.37,0.0,0.9140021881811882,2.341900937272967,0.13060917710602893,0.35,0,7,0.0
6.545572384000479,450,6075.77,97.3,2.1,65.8,1.08,-1.88,0.8,0.13,0.93,-0.14,-176.4,-10.3,-6.0,0.27,0.29,0.23,0.0,0.9494208761134337,2.311017092104686,0.09328667939030777,0.35,0,7,0.0
6.554022124000767,451,6075.78,97.4,2.2,66.0,0.31,-1.76,1.09,0.1,0.98,-0.12,-176.5,-15.8,-62.0,0.27,0.57,-0.02,0.0,0.9923708984044222,2.093274946107176,0.049329923957333044,0.35,0,7,0.0
6.565413051001087,452,6075.79,97.4,2.3,66.1,-0.6,-1.71,1.15,0.06,0.93,-0.12,-176.8,-29.4,-125.0,0.28,1.01,0.04,0.0,0.9396275858019496,2.1462991403809486,0.10003177182860945,0.35,0,7,0.0
6.573773329000687,453,6075.8,97.3,2.4,66.3,-1.34,-1.73,1.12,0.03,0.9,-0.11,-177.2,-43.9,-125.0,0.29,1.35,0.14,0.0,0.9071934744033381,2.458231071319375,0.12981656556267662,0.35,0,7,0.0
6.585508268000922,454,6075.81,97.1,2.5,66.5,-1.76,-1.81,1.12,0.04,0.85,-0.13,-177.7,-56.5,-129.0,0.31,1.69,-0.02,0.0,0.8608135686662938,2.7619015188815115,0.1726725418737266,0.35,0,7,0.0
6.5938693870011775,455,6075.82,97.0,2.6,66.7,-1.65,-1.76,1.0,0.07,0.8,-0.14,-178.3,-68.4,-124.0,0.33,2.02,0.14,0.0,0.8151686941977103,2.611532117359463,0.21395106801546393,0.35,0,7,0.0
6.605586722000226,456,6075.83,96.9,2.7,66.9,-1.35,-1.6,0.83,0.11,0.81,-0.17,-179.1,-81.6,-138.0,0.35,2.41,-0.01,0.0,0.8349251463454674,2.2519769092954753,0.19031072355035272,0.35,0,7,0.0
6.6138145670011,457,6075.84,96.8,2.8,67.1,-0.82,-1.38,0.63,0.13,0.86,-0.17,-180.0,-94.2,-111.0,0.38,2.65,0.01,0.0,0.886227961644181,1.724441938715247,0.13622775008660626,0.35,0,7,0.0
6.625595012999838,458,6075.85,96.7,2.8,67.2,-0.45,-1.19,0.58,0.16,0.89,-0.2,-181.0,-102.0,-88.0,0.41,2.87,-0.13,0.0,0.9261209424259879,1.3982131454109563,0.09440807391870354,0.35,0,7,0.0
6.633934285000578,459,6075.86,96.7,2.9,67.3,-0.24,-1.02,0.66,0.16,0.92,-0.22,-182.1,-108.9,-75.0,0.44,3.04,-0.12,0.0,0.9593747964169165,1.2383860464330176,0.05993113552921947,0.35,0,7,0.0
6.6455693839998276,460,6075.87,96.7,2.9,67.4,-0.21,-0.85,0.82,0.13,0.94,-0.24,-183.2,-114.3,-55.0,0.47,3.15,0.05,0.0,0.9788258272031853,1.1995832609702421,0.03967050264809169,0.35,0,7,0.0
6.6540084570006,461,6075.88,96.7,3.0,67.5,-0.17,-0.67,0.94,0.1,0.92,-0.25,-184.4,-119.2,-54.0,0.5,3.3,-0.12,0.0,0.9585927185202274,1.1667904696216882,0.05870553910442866,0.35,0,7,0.0
6.665374698999585,462,6075.89,96.7,3.1,67.6,-0.26,-0.61,1.02,0.07,0.9,-0.24,-185.6,-124.0,-49.0,0.53,3.44,0.01,0.0,0.9340770846134703,1.2165936051122412,0.08155674955096215,0.35,0,7,0.0
6.6740290760008065,463,6075.9,96.6,3.2,67.6,-0.32,-0.64,1.04,0.05,0.87,-0.24,-186.9,-128.2,-43.0,0.57,3.53,0.27,0.0,0.9038805230781334,1.26237870704476,0.10951824486457296,0.35,0,7,0.0
6.685354666000421,464,6075.91,96.6,3.3,67.7,-0.35,-0.67,1.01,0.05,0.84,-0.26,-188.2,-130.5,-17.0,0.6,3.54,-0.06,0.0,0.8807383266328312,1.2615466697669175,0.13000723248367763,0.35,0,7,0.0
6.69372122599998,465,6075.92,96.6,3.4,67.8,-0.29,-0.72,0.87,0.06,0.81,-0.26,-189.5,-130.2,-5.0,0.64,3.54,-0.01,0.0,0.8528188553262646,1.1659331027121582,0.1547681697144394,0.35,0,7,0.0
6.705866877000517,466,6075.93,96.5,3.4,67.9,-0.32,-0.74,0.64,0.08,0.78,-0.29,-190.8,-129.0,10.0,0.67,3.47,0.1,0.0,0.8360023923410745,1.0293687385966217,0.16815294004563686,0.35,0,7,0.0
6.7138908699998865,467,6075.94,96.5,3.5,68.0,-0.58,-0.64,0.31,0.11,0.75,-0.32,-192.1,-127.2,11.0,0.71,3.45,0.09,0.0,0.8228000972289685,0.9176600677810929,0.17772813045458802,0.35,0,7,0.0
6.725529475999792,468,6075.95,96.4,3.5,68.0,-1.03,-0.4,-0.14,0.14,0.71,-0.33,-193.3,-126.0,18.0,0.74,3.38,0.05,0.0,0.7953615530059269,1.113777356566383,0.20106334118407698,0.35,0,7,0.0
6.733734794999691,469,6075.96,96.3,3.4,68.0,-1.34,-0.09,-0.63,0.19,0.69,-0.33,-194.6,-123.2,17.0,0.78,3.34,-0.24,0.0,0.7880989785553588,1.4834419435893003,0.2041593973219522,0.35,0,7,0.0
6.745562101001269,470,6075.97,96.2,3.4,68.0,-1.37,0.23,-0.99,0.23,0.69,-0.33,-195.8,-122.9,15.0,0.81,3.31,-0.06,0.0,0.7986864215698173,1.7058429001522972,0.1897005152213439,0.35,0,7,0.0
6.753927949001081,471,6075.98,96.0,3.3,68.0,-1.07,0.61,-1.08,0.25,0.71,-0.29,-197.0,-121.2,9.0,0.84,3.29,-0.02,0.0,0.8066597795849251,1.638108665504215,0.1780926140621114,0.35,0,7,0.0
6.766050793001341,472,6075.99,96.0,3.2,67.9,-0.17,0.91,-1.0,0.23,0.72,-0.26,-198.2,-122.4,-7.0,0.88,3.34,-0.13,0.0,0.7993122043357026,1.3627178724886528,0.18173138552510726,0.35,0,7,0.0
6.773842901000535,473,6076.0,96.0,3.1,67.8,1.24,1.08,-0.79,0.19,0.72,-0.22,-199.5,-123.3,-10.0,0.91,3.37,0.01,0.0,0.7764663547121665,1.8243080880158373,0.20048569044567044,0.35,0,7,0.0
6.785559810999985,474,6076.01,96.2,3.0,67.6,2.87,1.12,-0.64,0.12,0.75,-0.22,-200.5,-125.9,-28.0,0.94,3.46,0.1,0.0,0.7907591289387685,3.1465695606485484,0.18246905789468704,0.35,0,7,0.0
6.793937489999735,475,6076.02,96.6,3.0,67.5,3.81,1.2,-0.55,0.07,0.82,-0.22,-202.0,-129.2,-34.0,0.98,3.57,0.02,0.0,0.8518802732778826,4.03219543177163,0.11892095528446145,0.35,0,7,0.0
6.805829468999946,476,6076.03,97.0,2.9,67.4,4.21,1.08,-0.33,0.05,0.94,-0.17,-203.3,-134.6,-48.0,1.01,3.71,0.19,0.0,0.9565563234854495,4.358830118277151,0.013960006975356709,0.35,0,7,0.0
6.813859657000648,477,6076.04,97.4,3.0,67.3,4.25,0.62,0.11,0.05,1.06,-0.06,-204.7,-142.5,-77.0,1.06,3.99,-0.02,0.0,1.0628734637763801,4.2963938366960726,0.09050999064926246,0.35,0,7,0.0
6.825873772000705,478,6076.05,97.8,3.0,67.3,3.86,-0.22,0.63,0.05,1.13,-0.02,-206.2,-151.8,-85.0,1.1,4.24,-0.02,0.0,1.131282458097888,3.9172566931463657,0.15574060527135491,0.35,0,7,0.0
6.833756750000248,479,6076.06,98.1,3.1,67.4,2.64,-0.89,0.96,0.02,1.14,-0.13,-207.8,-161.2,-82.0,1.14,4.47,0.03,0.0,1.1475626344561762,2.9467439658036123,0.16858036599705029,0.35,0,7,0.0
6.845944180000515,480,6076.07,98.3,3.1,67.5,1.02,-1.04,0.99,0.02,1.11,-0.32,-209.5,-165.6,-50.0,1.19,4.53,0.0,0.0,1.1553787257864843,1.7612779451296152,0.1728685281808111,0.35,0,7,0.0
6.853860242001247,481,6076.08,98.3,3.2,67.6,0.32,-0.56,0.86,0.06,1.12,-0.4,-211.2,-168.1,-27.0,1.23,4.57,-0.24,0.0,1.1907980517283356,1.074988372030135,0.20412209704020923,0.35,0,7,0.0
6.8657878169997275,482,6076.09,98.4,3.3,67.6,0.76,-0.25,0.81,0.08,1.11,-0.35,-212.8,-170.3,-31.0,1.28,4.67,-0.08,0.0,1.1666190466471908,1.1385077953180647,0.1763442301198832,0.35,0,7,0.0
6.8738640419996955,483,6076.1,98.5,3.4,67.7,1.78,-0.15,0.97,0.12,1.23,-0.3,-214.6,-175.3,-52.0,1.33,4.85,0.02,0.0,1.2717311036535985,2.0326829560952193,0.27582716138376506,0.35,0,7,0.0
6.885612526000841,484,6076.11,98.8,3.5,67.7,1.99,-0.13,1.34,0.14,1.26,-0.3,-216.4,-186.2,-109.0,1.38,5.24,-0.14,0.0,1.3027662875589006,2.402623566021111,0.30072509838328565,0.35,0,7,0.0
6.893922182000097,485,6076.12,99.0,3.7,67.7,1.74,0.02,1.47,0.15,1.19,-0.42,-218.4,-203.9,-165.0,1.43,5.79,0.18,0.0,1.2708265027138834,2.2779157139806556,0.2634096072675032,0.35,0,7,0.0
6.906018212999697,486,6076.13,99.1,3.8,67.7,1.61,0.58,1.17,0.21,1.12,-0.5,-220.6,-224.9,-205.0,1.5,6.4,0.15,0.0,1.244387399486189,2.0730171248689673,0.23223109395901242,0.35,0,7,0.0
6.913721779001207,487,6076.14,99.3,3.9,67.6,2.16,1.41,0.9,0.28,1.19,-0.45,-223.0,-251.4,-259.0,1.57,7.2,0.03,0.0,1.3026895255585653,2.7319773059086714,0.2847225556307611,0.35,0,7,0.0
6.925778487000571,488,6076.15,99.6,4.0,67.5,2.85,1.92,1.08,0.31,1.4,-0.26,-225.7,-285.5,-326.0,1.65,8.21,0.09,0.0,1.4572920091731787,3.6021243731997927,0.43053853846046697,0.35,1,8,3.0
6.933891804999803,489,6076.16,99.8,4.2,67.3,2.88,2.28,1.67,0.31,1.57,-0.17,-228.9,-322.0,-347.0,1.73,9.18,-0.15,0.0,1.6093166251549134,4.035058859545917,0.5709118913533575,0.35,0,8,3.0
6.945671114999641,490,6076.17,100.1,4.5,67.1,2.99,3.01,2.59,0.26,1.77,-0.1,-232.3,-344.8,-34.0,1.83,8.65,3.25,3.49,1.7917868176767011,4.970744411051528,0.7383144421976424,0.35,0,8,3.0
6.953818583000611,491,6076.18,100.3,4.8,66.8,1.92,3.43,3.43,0.13,1.75,0.02,-235.1,-240.2,844.0,1.89,4.95,2.99,3.49,1.75493589626516,5.216914797080742,0.6874342503703792,0.35,0,8,3.0
6.965782637000302,492,6076.19,100.4,5.3,66.5,-0.58,3.27,3.93,0.06,1.56,0.06,-236.6,-119.4,1000.0,1.92,2.05,3.16,3.49,1.5623059879549845,5.145308542740659,0.4849082552189996,0.35,0,8,3.0
6.973821297000541,493,6076.2,100.2,5.7,66.3,-3.0,3.45,3.98,0.09,1.24,-0.02,-237.2,-35.8,827.0,1.92,0.11,3.37,3.49,1.2434226956268732,6.061592200074169,0.16270446363307056,0.35,0,8,3.0
6.986039643999902,494,6076.21,99.8,6.2,66.0,-3.9,4.04,3.49,0.19,0.98,-0.03,-237.2,9.4,397.0,1.92,-0.19,3.43,3.49,0.9986991538997116,6.611482435883801,0.0803786965322093,0.35,0,8,3.0
6.993833573000302,495,6076.22,99.3,6.5,65.6,-3.35,4.86,2.83,0.34,0.85,0.0,-237.2,0.5,93.0,1.92,-0.02,3.49,3.49,0.9154780172128657,6.546067521802689,0.1603278365546742,0.35,0,8,3.0
7.006013436999638,496,6076.23,99.0,6.9,65.1,-2.27,5.92,2.05,0.43,0.81,0.03,-237.2,0.2,33.0,1.92,0.0,3.44,3.49,0.9175510884958941,6.66346756576484,0.15508966996621287,0.35,0,8,3.0
7.014019827000084,497,6076.24,98.7,7.1,64.4,-1.85,6.99,1.44,0.43,0.87,0.07,-237.2,0.0,13.0,1.92,-0.01,3.45,3.49,0.9729850975220535,7.3726657322843545,0.09766254772125227,0.35,0,8,3.0
7.025630756999817,498,6076.25,98.5,7.4,63.7,-1.48,7.99,1.25,0.37,0.82,0.06,-237.2,0.2,6.0,1.92,-0.01,3.65,3.49,0.90160967164289,8.22149621419362,0.1656572141284075,0.35,0,8,3.0
7.033974973999648,499,6076.26,98.3,7.6,62.9,-0.58,8.55,1.2,0.22,0.8,0.11,-237.1,4.6,80.0,1.92,-0.37,3.4,3.49,0.8369587803470372,8.653259501482664,0.2257019433157751,0.35,0,8,3.0
7.0454820089998975,500,6076.27,98.1,7.9,62.1,0.38,8.31,1.16,0.16,0.78,0.17,-236.9,32.6,245.0,1.91,-1.3,3.63,3.49,0.8141867107733951,8.399172578296033,0.24350453263162875,0.35,0,8,3.0
7.054012507000152,501,6076.28,98.2,8.1,61.3,2.09,7.68,0.78,0.12,0.81,0.15,-236.3,71.4,404.0,1.89,-2.66,3.24,3.49,0.8324662155306966,7.997430837462741,0.22072052731684066,0.35,0,8,3.0
7.0656438960013475,502,6076.29,98.3,8.2,60.5,2.92,7.31,0.25,0.04,0.89,0.03,-235.2,135.1,575.0,1.85,-4.5,3.34,3.49,0.8914033879226622,7.875595215601167,0.15854768782637763,0.35,0,8,3.0
7.073909390001063,503,6076.3,98.5,8.3,59.8,2.54,7.01,-0.33,-0.02,0.97,0.05,-233.4,202.3,643.0,1.79,-6.33,3.13,3.49,0.9714936952960631,7.463283459711281,0.0768882328439171,0.35,0,8,3.0
7.085806924000281,504,6076.31,98.6,8.4,59.2,1.36,6.28,-0.88,-0.09,0.97,0.1,-230.9,267.3,625.0,1.71,-7.98,3.1,3.49,0.9792854537876073,6.485553176098397,0.06771454486532547,0.35,0,8,3.0
7.0939759770008095,505,6076.32,98.6,8.3,58.6,0.15,5.36,-1.36,-0.12,0.93,0.06,-227.8,323.6,563.0,1.62,-9.42,3.54,3.49,0.9396275858019496,5.531880331315927,0.10522496459396358,0.35,0,8,3.0
7.1057243480008765,506,6076.33,98.5,8.2,58.0,-0.52,4.59,-1.7,-0.14,0.88,0.02,-224.2,371.8,489.0,1.52,-10.62,3.59,3.49,0.8912911982062877,4.92224542256885,0.15049012514583304,0.35,0,8,3.0
7.113962067000102,507,6076.34,98.4,8.1,57.6,-0.51,3.98,-1.9,-0.13,0.83,0.01,-220.2,412.9,438.0,1.41,-11.75,3.51,3.49,0.8401785524517987,4.439650887175702,0.19757071548231553,0.35,0,8,0.0
7.1259213110006385,508,6076.35,98.3,8.0,57.2,-0.1,3.51,-1.96,-0.08,0.81,0.0,-215.8,450.6,345.0,1.27,-12.53,3.33,3.49,0.8139410298049854,4.021405227031964,0.21933207336654625,0.35,0,8,0.0
7.133976844001154,509,6076.36,98.2,7.8,56.8,0.33,3.21,-1.92,-0.05,0.82,-0.03,-211.1,437.3,-366.0,1.16,-10.32,0.65,0.0,0.8220705565825842,3.7549167767075744,0.20697849565716842,0.35,0,8,0.0
7.145925590000843,510,6076.37,98.2,7.7,56.5,0.72,2.86,-1.83,0.0,0.83,-0.04,-207.5,319.1,-891.0,1.07,-7.25,0.34,0.0,0.8309632964216891,3.470864445638867,0.1941240407017022,0.35,0,8,0.0
7.153853863999757,511,6076.38,98.3,7.5,56.2,1.47,2.56,-1.93,0.08,0.85,-0.08,-204.9,222.9,-834.0,1.02,-5.17,0.22,0.0,0.857496355677387,3.526953359487477,0.1642391618170841,0.35,0,8,0.0
7.165708656000788,512,6076.39,98.4,7.4,55.9,1.67,2.65,-1.95,0.08,0.9,-0.15,-203.2,165.9,-609.0,0.98,-3.92,-0.04,0.0,0.9159148432032314,3.6897018849766168,0.10370426080541506,0.35,0,8,0.0
7.173957077000523,513,6076.4,98.5,7.2,55.6,0.94,2.82,-1.8,0.02,0.96,-0.19,-201.8,131.1,-376.0,0.94,-3.3,0.04,0.0,0.9788258272031853,3.475053956415641,0.03997741126935184,0.35,0,8,0.0
7.186117709999962,514,6076.41,98.5,7.1,55.3,0.1,2.88,-1.47,-0.02,0.95,-0.17,-200.6,116.6,-192.0,0.91,-3.08,0.34,0.0,0.9652978814852957,3.235011591942137,0.0524352498474967,0.35,0,8,0.0
7.193853484999636,515,6076.42,98.5,7.0,55.0,-0.28,2.75,-1.14,-0.05,0.92,-0.17,-199.4,113.7,-51.0,0.88,-3.16,0.04,0.0,0.9369098142297368,2.990066888883926,0.07920685076099454,0.35,0,8,0.0
7.205624318001355,516,6076.43,98.4,6.9,54.7,-0.33,2.5,-0.9,-0.06,0.89,-0.16,-198.2,122.4,52.0,0.84,-3.47,-0.07,0.0,0.9062560344626678,2.6774801586566426,0.10766341791750245,0.35,0,8,0.0
7.213961870000276,517,6076.44,98.4,6.9,54.5,-0.06,2.21,-0.71,-0.07,0.87,-0.16,-196.9,135.2,107.0,0.81,-3.84,-0.2,0.0,0.8873556220591606,2.32202497833249,0.12403255371458932,0.35,0,8,0.0
7.22572122100064,518,6076.45,98.3,6.9,54.3,0.03,1.8,-0.64,-0.1,0.86,-0.16,-195.4,152.1,161.0,0.77,-4.37,-0.16,0.0,0.8804544281222054,1.9106281689538653,0.12831507269851372,0.35,0,8,0.0
7.23380465000082,519,6076.46,98.3,6.8,54.1,0.05,1.37,-0.67,-0.11,0.87,-0.16,-193.8,171.4,186.0,0.72,-4.91,0.02,0.0,0.891403387922662,1.5258767971235425,0.11501879064009601,0.35,0,8,0.0
7.246109432000594,520,6076.47,98.3,6.8,54.0,-0.08,0.96,-0.72,-0.12,0.89,-0.17,-191.9,192.8,202.0,0.66,-5.5,-0.1,0.0,0.9140021881811882,1.2026637102698325,0.0905715905739386,0.35,0,8,0.0
7.253933023999707,521,6076.48,98.3,6.7,53.9,-0.2,0.57,-0.78,-0.12,0.91,-0.19,-189.8,214.3,211.0,0.61,-6.1,-0.08,0.0,0.9373366524360391,0.9865596788841514,0.0658923837927059,0.35,0,8,0.0
7.265607778999765,522,6076.49,98.2,6.6,53.8,-0.45,0.19,-0.79,-0.1,0.94,-0.21,-187.5,235.9,214.0,0.54,-6.67,-0.19,0.0,0.9683491106000975,0.9288164511893618,0.034182327116074496,0.35,0,8,0.0
7.273990622001293,523,6076.5,98.2,6.6,53.8,-0.86,-0.2,-0.58,-0.08,0.97,-0.22,-185.0,258.0,228.0,0.47,-7.32,0.02,0.0,0.9978476837674174,1.0564090116995406,0.004590078869779579,0.35,0,8,0.0
7.285686012999577,524,6076.51,98.1,6.5,53.9,-1.29,-0.58,-0.27,-0.07,0.97,-0.21,-182.6,281.0,245.0,0.4,-7.94,0.04,0.0,0.9949371839468057,1.439930553880985,0.00735056711658344,0.35,0,8,0.0
7.293897949000893,525,6076.52,97.9,6.5,54.0,-1.62,-0.95,0.15,-0.06,0.94,-0.2,-179.6,304.2,223.0,0.32,-8.51,-0.01,0.0,0.9629122493768578,1.8839851379456263,0.03858799165280069,0.35,0,8,0.0
7.305606449001061,526,6076.53,97.8,6.5,54.1,-1.77,-1.26,0.54,-0.06,0.9,-0.21,-176.4,324.2,215.0,0.23,-9.09,-0.12,0.0,0.926120942425988,2.2387719848166765,0.07387171263159709,0.35,0,8,0.0
7.313955859000998,527,6076.54,97.6,6.6,54.2,-1.72,-1.49,0.83,-0.07,0.83,-0.23,-173.0,350.5,264.0,0.13,-9.9,0.0,0.0,0.8641180474911978,2.4222716610652903,0.13315711541505948,0.35,0,8,0.0
7.325510951999604,528,6076.55,97.5,6.6,54.4,-1.02,-1.66,0.9,-0.07,0.78,-0.23,-169.3,374.8,215.0,0.03,-10.38,0.04,0.0,0.8162107570964745,2.1461593603458247,0.17744311769358712,0.35,0,8,0.0
7.334049896000579,529,6076.56,97.5,6.7,54.6,-0.17,-1.83,0.83,-0.05,0.75,-0.23,-165.4,393.8,226.0,-0.07,-11.03,0.05,0.0,0.7860661549767932,2.016606059695349,0.20343596541700304,0.35,0,8,0.0
7.345529539001291,530,6076.57,97.5,6.7,54.8,0.49,-1.93,0.73,-0.02,0.77,-0.23,-161.3,420.6,231.0,-0.19,-11.65,-0.12,0.0,0.8038656604184556,2.12082531105228,0.1819237307758338,0.35,0,8,0.0
7.353812192999612,531,6076.58,97.6,6.8,55.0,0.64,-2.04,0.73,0.01,0.8,-0.22,-157.0,434.5,148.0,-0.3,-11.93,-0.19,0.0,0.8297590011563599,2.2592255310172114,0.1529097822371709,0.35,0,8,0.0
7.365728714001307,532,6076.59,97.7,6.8,55.2,0.58,-2.16,0.8,0.04,0.79,-0.25,-152.6,442.9,91.0,-0.42,-12.08,0.1,0.0,0.8295782060782456,2.375289456045305,0.1500287657689795,0.35,0,8,0.0
7.373928525999872,533,6076.6,97.8,6.9,55.4,0.76,-2.15,0.83,0.04,0.76,-0.3,-148.1,441.1,-15.0,-0.54,-11.85,0.25,0.0,0.8180464534487024,2.4267261897461774,0.15832930803055223,0.35,0,8,0.0
7.3855544489997556,534,6076.61,97.9,6.9,55.6,1.43,-1.72,0.68,0.0,0.77,-0.37,-143.9,417.1,-259.0,-0.66,-10.73,0.29,0.0,0.8542833253669417,2.3378836583542815,0.11965058739006662,0.35,0,8,0.0
7.3939142230010475,535,6076.62,98.1,7.0,55.8,1.99,-1.12,0.49,-0.02,0.82,-0.34,-140.1,353.5,-583.0,-0.75,-8.61,0.37,0.0,0.8879189152169245,2.3355085099395376,0.08429469758928221,0.35,0,8,0.0
7.405604399000367,536,6076.63,98.3,7.0,55.9,2.31,-0.79,0.31,0.0,0.89,-0.32,-137.2,262.2,-879.0,-0.82,-5.74,0.25,0.0,0.9457801012920498,2.46095509914342,0.025904841283873714,0.35,0,8,0.0
7.413863552999828,537,6076.64,98.6,7.0,56.0,2.08,-0.48,0.22,0.01,0.98,-0.33,-135.4,142.4,-1192.0,-0.85,-2.03,0.56,0.0,1.034117981663601,2.14597297280278,0.06118437830592394,0.35,0,8,0.0
7.425663965001149,538,6076.65,98.7,7.0,56.0,1.15,-0.66,0.37,0.02,1.07,-0.32,-135.0,-1.9,-1247.0,-0.84,1.35,0.35,0.0,1.1170049238924598,1.3765899897936205,0.141189894124087,0.35,0,8,0.0
7.433979552000892,539,6076.66,98.8,7.1,56.1,0.08,-1.15,0.7,0.02,1.08,-0.29,-135.6,-84.2,-827.0,-0.82,2.91,0.36,0.0,1.118436408563312,1.3486660075793413,0.13976895121904054,0.35,0,8,0.0
7.44541576499978,540,6076.67,98.8,7.1,56.3,-0.23,-2.0,0.85,0.06,1.05,-0.17,-136.8,-127.6,-535.0,-0.78,3.91,0.18,0.0,1.065363787633126,2.1852688621769176,0.08496240368307728,0.35,0,8,0.0
7.4538340470007824,541,6076.68,98.9,7.1,56.5,0.48,-2.82,0.65,0.12,1.06,-0.2,-138.3,-167.2,-464.0,-0.74,5.09,0.21,0.0,1.0853570840972109,2.9334791630417283,0.102856586144219,0.35,0,8,0.0
7.465621823001129,542,6076.69,99.0,7.1,56.8,0.7,-2.65,0.33,0.07,1.13,-0.25,-140.3,-214.9,-493.0,-0.68,6.49,0.02,0.0,1.1594395197680643,2.7606883199665986,0.17340024137877097,0.35,0,8,0.0
7.4739639070012345,543,6076.7,99.1,7.1,57.1,0.84,-2.66,-0.06,0.03,1.1,-0.22,-142.8,-264.5,-463.0,-0.6,7.68,0.0,0.0,1.1221853679316978,2.7901254452085125,0.13342316775155638,0.35,0,8,0.0
7.485635380000531,544,6076.71,99.3,7.0,57.4,1.52,-3.12,-0.5,0.04,1.04,-0.18,-145.7,-295.3,-293.0,-0.52,8.19,0.07,0.0,1.0562196741208716,3.5063941592467898,0.06610832446191561,0.35,0,8,0.0
7.493968335000318,545,6076.72,99.5,6.8,57.7,2.45,-3.83,-1.02,0.04,1.01,-0.17,-148.7,-302.2,-107.0,-0.44,8.19,0.35,0.0,1.024987804805501,4.659592256839648,0.034178926043614166,0.35,0,8,0.0
7.50589860600121,546,6076.73,99.9,6.6,58.1,3.62,-4.11,-1.65,0.15,1.07,-0.21,-151.7,-295.8,38.0,-0.36,7.84,-0.24,0.0,1.1006816070054046,5.720052447312,0.10767527367864749,0.35,0,8,0.0
7.513759671001026,547,6076.74,100.4,6.3,58.4,4.98,-3.47,-2.42,0.26,1.23,-0.2,-154.5,-275.1,175.0,-0.29,7.15,-0.25,0.0,1.2729886095327012,6.534347710368649,0.2743826306818252,0.35,0,8,0.0
7.5260381839998445,548,6076.75,100.9,6.0,58.7,5.09,-2.49,-3.32,0.3,1.4,-0.09,-157.1,-246.7,252.0,-0.22,6.34,-0.18,0.0,1.4346079603849966,6.567389131154023,0.42728194190343816,0.35,0,9,0.0
7.533816630000729,549,6076.76,101.4,5.6,58.8,4.14,-1.57,-4.55,0.41,1.54,-0.08,-159.3,-217.3,278.0,-0.16,5.54,-0.21,0.0,1.595650337636664,6.348779410248871,0.5765578327720033,0.35,0,9,0.0
7.545605561001139,550,6076.77,101.7,5.1,58.8,2.1,-0.37,-5.45,0.5,1.71,0.0,-161.3,-188.4,279.0,-0.11,4.79,0.02,0.0,1.7816004041310722,5.852298693675845,0.7472577412810835,0.35,0,9,0.0
7.5539611900003365,551,6076.78,101.7,4.5,58.7,-1.79,0.13,-5.06,0.36,1.53,0.11,-163.0,-162.4,255.0,-0.07,4.14,0.05,0.0,1.5756268593801008,5.368854626454324,0.5304585125995098,0.35,0,9,0.0
7.565502295999977,552,6076.79,101.4,4.1,58.6,-4.04,-0.21,-4.25,0.08,1.26,0.2,-164.5,-142.5,202.0,-0.03,3.66,-0.17,0.0,1.2782800945019837,5.867554857008156,0.2284495127669648,0.35,0,9,0.0
7.5739605910002865,553,6076.8,100.9,3.7,58.6,-4.41,-1.25,-2.92,-0.2,1.09,0.31,-165.8,-127.5,154.0,0.0,3.33,0.08,0.0,1.1507388930595857,5.434795304332997,0.09889014509807548,0.35,0,9,0.0
7.585550661000525,554,6076.81,100.6,3.5,58.8,-2.39,-3.2,-1.39,-0.41,0.91,0.33,-167.0,-117.8,107.0,0.03,3.12,-0.18,0.0,1.0512373661547614,4.228971506170265,0.000599154170613847,0.35,0,9,0.0
7.593966533000639,555,6076.82,100.6,3.3,59.2,1.02,-4.9,-0.52,-0.49,0.8,0.25,-168.1,-111.9,69.0,0.06,2.98,0.05,0.0,0.9708758932015977,5.031977742399106,0.07934141458130184,0.35,0,9,0.0
7.6058509800004686,556,6076.83,100.9,3.2,59.7,4.0,-6.11,-0.31,-0.5,0.9,0.16,-169.2,-107.2,61.0,0.09,2.83,0.04,0.0,1.0419213022104885,7.309459624349806,0.008130085460962944,0.35,0,9,0.0
7.613951625000482,557,6076.84,101.4,3.0,60.4,4.36,-6.99,-0.24,-0.31,1.07,0.09,-170.2,-98.6,88.0,0.11,2.54,0.13,0.0,1.1176314240392493,8.24180198742969,0.0662284356404419,0.35,0,9,0.0
7.625507267999637,558,6076.85,101.7,2.8,61.1,2.41,-7.26,-0.46,-0.08,1.26,-0.04,-171.1,-84.9,134.0,0.13,2.1,0.07,0.0,1.2631706139710503,7.663373930586971,0.20753227306079802,0.35,0,9,0.0
7.633773752000707,559,6076.86,101.8,2.6,61.8,-1.05,-6.97,-0.65,0.12,1.3,-0.14,-171.9,-67.2,169.0,0.15,1.58,-0.13,0.0,1.3130118049735884,7.078552111837562,0.2522259947820693,0.35,0,9,0.0
7.645875600999716,560,6076.87,101.6,2.4,62.4,-3.48,-6.34,-0.85,0.29,1.19,-0.2,-172.4,-47.4,191.0,0.16,1.02,0.02,0.0,1.2410479442793498,7.282067014248083,0.1766568914060742,0.35,0,9,0.0
7.653912584000864,561,6076.88,101.2,2.2,63.0,-4.29,-5.56,-1.04,0.38,1.09,-0.26,-172.7,-24.7,212.0,0.17,0.41,-0.22,0.0,1.1832582135780847,7.099246438883496,0.11648981749071297,0.35,0,9,0.0
7.665565414999946,562,6076.89,100.8,2.0,63.4,-3.9,-4.55,-0.99,0.38,1.02,-0.34,-172.8,-7.1,172.0,0.17,0.02,0.0,0.0,1.1403508232118746,6.073927888936449,0.07211077858201276,0.35,0,9,0.0
7.673951593000311,563,6076.9,100.5,1.9,63.8,-2.89,-3.26,-0.62,0.31,0.95,-0.35,-172.8,2.5,86.0,0.17,-0.06,-0.12,0.0,1.0588200980336555,4.40046588442633,0.009231547664282358,0.35,0,9,0.0
7.685844913001347,564,6076.91,100.3,1.8,64.1,-1.21,-2.29,-0.16,0.21,0.9,-0.27,-172.8,-1.1,-11.0,0.17,0.11,-0.21,0.0,0.9628083921528727,2.5949566470367094,0.1031383884741639,0.35,0,9,0.0
7.693892553999831,565,6076.92,100.3,1.8,64.3,0.37,-1.9,0.35,0.14,0.9,-0.22,-172.9,-7.1,-40.0,0.17,0.26,0.1,0.0,0.9370165420097982,1.967079052809012,0.12635163384489356,0.35,0,9,0.0
7.7055766619996575,566,6076.93,100.4,1.8,64.4,1.11,-1.57,0.79,0.11,0.92,-0.24,-173.0,-16.2,-87.0,0.18,0.58,-0.03,0.0,0.9571311299921239,2.078725571113224,0.10411230494531654,0.35,0,9,0.0
7.713929810000991,567,6076.94,100.5,1.9,64.6,0.74,-1.27,1.02,0.08,0.91,-0.22,-173.3,-30.5,-135.0,0.19,1.03,0.14,0.0,0.9396275858019495,1.7891059219621401,0.1191835321527811,0.35,0,9,0.0
7.725653417001013,568,6076.95,100.6,2.0,64.7,-0.05,-1.11,1.03,0.06,0.88,-0.21,-173.7,-50.6,-194.0,0.2,1.66,0.12,0.0,0.906697303403953,1.5150907563575193,0.14907153825976194,0.35,0,9,0.0
7.733924055000898,569,6076.96,100.5,2.1,64.9,-0.67,-1.02,0.97,0.07,0.86,-0.2,-174.4,-73.6,-210.0,0.22,2.25,0.16,0.0,0.8857200460642177,1.5589098755219943,0.1666478196875073,0.35,0,9,0.0
7.745671337001113,570,6076.97,100.5,2.2,65.0,-0.78,-0.87,0.87,0.11,0.84,-0.2,-175.3,-94.6,-207.0,0.25,2.8,0.15,0.0,0.8704596486914256,1.456777265061478,0.17827005271909346,0.35,0,9,0.0
7.753984652001236,571,6076.98,100.4,2.2,65.1,-0.66,-0.65,0.75,0.16,0.86,-0.21,-176.3,-112.2,-175.0,0.28,3.23,0.01,0.0,0.8996110270555825,1.191889256600629,0.1461363008678379,0.35,0,9,0.0
7.765474564999749,572,6076.99,100.4,2.3,65.1,-0.66,-0.33,0.72,0.18,0.88,-0.22,-177.6,-124.9,-129.0,0.31,3.51,0.05,0.0,0.9247702417357513,1.030970416646375,0.11855754446391575,0.35,0,9,0.0
7.773939419999806,573,6077.0,100.3,2.4,65.1,-0.72,-0.04,0.74,0.2,0.89,-0.22,-178.9,-133.8,-93.0,0.35,3.71,0.06,0.0,0.9383496150156402,1.0332473082471592,0.10287860776034641,0.35,0,9,0.0
7.785434288000033,574,6077.01,100.2,2.5,65.2,-0.82,0.18,0.8,0.2,0.88,-0.22,-179.9,-136.7,-71.0,0.39,3.75,0.01,0.0,0.9288702815786497,1.1596551211459378,0.11011078237339011,0.35,0,9,0.0
7.79363757900137,575,6077.02,100.1,2.5,65.1,-0.92,0.41,0.9,0.18,0.86,-0.23,-181.6,-137.7,-14.0,0.43,3.7,0.07,0.0,0.9082400563727632,1.3507405376311175,0.12812618742769122,0.35,0,9,0.0
7.80598511000062,576,6077.03,100.0,2.6,65.1,-0.82,0.63,0.95,0.15,0.82,-0.24,-183.0,-133.1,29.0,0.46,3.55,0.0,0.0,0.8674675786448736,1.4042079618062275,0.1655206918524692,0.35,0,9,0.0
7.813994391999586,577,6077.04,100.0,2.8,65.0,-0.58,0.8,0.95,0.12,0.82,-0.23,-184.3,-127.7,43.0,0.5,3.41,-0.09,0.0,0.8600581375697807,1.370729732660673,0.16947153026901085,0.35,0,9,0.0
7.825592793000396,578,6077.05,99.9,2.9,65.0,-0.49,0.87,0.93,0.1,0.81,-0.23,-185.5,-120.9,71.0,0.53,3.16,0.04,0.0,0.8479386770280031,1.3645145656972666,0.1779591709945727,0.35,0,9,0.0
7.833917064001071,579,6077.06,99.8,3.0,64.9,-0.58,0.92,0.87,0.09,0.79,-0.24,-186.6,-112.8,75.0,0.56,2.96,-0.17,0.0,0.8305419917138447,1.3927311298308802,0.19144873918255645,0.35,0,9,0.0
7.845868375001373,580,6077.07,99.8,3.1,64.8,-0.82,0.94,0.71,0.08,0.77,-0.25,-187.7,-102.4,107.0,0.59,2.62,-0.03,0.0,0.8135109095765096,1.4353048456686823,0.2043102248934936,0.35,0,9,0.0
7.853957839000941,581,6077.08,99.7,3.1,64.7,-1.19,0.91,0.49,0.08,0.75,-0.25,-188.5,-90.1,126.0,0.61,2.23,-0.04,0.0,0.7946068210127571,1.5761662348876784,0.21875002718810121,0.35,0,9,0.0
7.865538615000332,582,6077.09,99.5,3.2,64.7,-1.69,0.86,0.16,0.1,0.71,-0.27,-189.4,-74.6,136.0,0.63,1.86,-0.17,0.0,0.7661592523751182,1.9029713607934302,0.24225364390922532,0.35,0,9,0.0
7.873937632000889,583,6077.1,99.3,3.2,64.6,-2.21,0.92,-0.24,0.12,0.67,-0.29,-190.1,-61.1,134.0,0.65,1.48,-0.09,0.0,0.7398648525237566,2.4058470441821527,0.2631770828853752,0.35,0,9,0.0
7.885509413999898,584,6077.11,99.1,3.2,64.5,-2.38,1.04,-0.65,0.14,0.65,-0.28,-190.6,-47.9,129.0,0.66,1.15,-0.11,0.0,0.7214568594171104,2.677405460515833,0.27595337447218105,0.35,0,9,0.0
7.893930471000203,585,6077.12,98.8,3.1,64.3,-1.97,1.13,-0.94,0.15,0.66,-0.26,-191.0,-36.1,118.0,0.67,0.85,-0.04,0.0,0.7250517222929685,2.4579259549465684,0.2669113413643964,0.35,0,9,0.0
7.906011016000775,586,6077.13,98.7,3.0,64.2,-0.81,1.09,-0.98,0.14,0.72,-0.2,-191.3,-28.9,72.0,0.68,0.74,0.08,0.0,0.7602631123499285,1.6746940019000487,0.2270659522812878,0.35,0,9,0.0
7.913885641000888,587,6077.14,98.7,3.0,64.1,0.47,0.82,-0.84,0.09,0.79,-0.16,-191.6,-26.7,25.0,0.68,0.74,0.06,0.0,0.8110487038396647,1.2644761761298628,0.17275475357572057,0.35,0,9,0.0
7.925534240999696,588,6077.15,98.8,2.9,64.0,1.3,0.54,-0.63,0.04,0.85,-0.17,-191.8,-28.2,-4.0,0.69,0.8,-0.01,0.0,0.8677557259966655,1.5422386326376345,0.11372677679034537,0.35,0,9,0.0
7.933931689000019,589,6077.16,99.0,2.8,64.0,1.7,0.29,-0.5,-0.01,0.88,-0.19,-192.2,-33.5,-43.0,0.7,0.99,-0.01,0.0,0.9003332716277901,1.795577901401106,0.07952624653603635,0.35,0,9,0.0
7.945505009000044,590,6077.17,99.2,2.8,64.0,1.82,-0.04,-0.46,-0.06,0.9,-0.2,-192.5,-41.0,-76.0,0.71,1.25,0.0,0.0,0.9239047569960879,1.877658115845374,0.05483566594438383,0.35,0,9,0.0
7.953796543000863,591,6077.18,99.4,2.7,64.0,1.82,-0.58,-0.48,-0.08,0.93,-0.18,-193.0,-51.4,-99.0,0.73,1.54,-0.27,0.0,0.9506313691436865,1.9695684806576288,0.027546872720849436,0.35,0,9,0.0
7.9657864600012545,592,6077.19,99.5,2.6,64.1,1.62,-1.31,-0.43,-0.06,1.0,-0.16,-193.6,-63.9,-124.0,0.74,1.92,0.1,0.0,1.0144949482377918,2.127298756639509,0.03559037224579076,0.35,0,9,0.0
7.973870937999891,593,6077.2,99.7,2.5,64.2,1.11,-1.81,-0.26,-0.02,1.1,-0.19,-194.4,-78.6,-145.0,0.77,2.34,0.26,0.0,1.1164676439557037,2.1391119652790502,0.1348118066044286,0.35,0,9,0.0
7.985517084000094,594,6077.21,99.8,2.5,64.4,0.23,-2.04,0.0,0.01,1.17,-0.22,-195.3,-96.6,-173.0,0.79,2.86,0.13,0.0,1.1905460931858118,2.0529247428973134,0.20471245071784594,0.35,0,9,0.0
7.993903631000649,595,6077.22,99.8,2.4,64.6,-0.8,-2.05,0.34,0.04,1.14,-0.3,-196.4,-115.9,-191.0,0.83,3.4,0.18,0.0,1.1794914158229386,2.2266791416816205,0.18978461788787326,0.35,0,9,0.0
8.005953087000307,596,6077.23,99.7,2.4,64.8,-1.46,-1.98,0.52,0.08,1.03,-0.36,-197.7,-137.3,-212.0,0.86,4.0,0.2,0.0,1.0940292500660116,2.5144383070578606,0.10223600308832737,0.35,0,9,0.0
8.013918626000304,597,6077.24,99.6,2.5,65.0,-1.11,-1.86,0.64,0.14,1.01,-0.4,-199.2,-160.7,-226.0,0.91,4.65,0.26,0.0,1.0953081758117211,2.258605764625602,0.10144463025735617,0.35,0,9,0.0
8.025809890001256,598,6077.25,99.5,2.5,65.2,-0.12,-1.69,0.91,0.16,1.04,-0.37,-201.0,-184.2,-229.0,0.96,5.28,0.1,0.0,1.1153923076657828,1.9231744590650115,0.11909818686918949,0.35,0,9,0.0
8.033976575999986,599,6077.26,99.6,2.6,65.4,0.91,-1.54,1.36,0.15,1.13,-0.35,-203.0,-207.3,-235.0,1.02,5.93,0.07,0.0,1.1924344845734711,2.2470647520710214,0.1922175565013402,0.35,0,9,0.0
8.045406905999698,600,6077.27,99.7,2.7,65.6,1.32,-1.32,1.87,0.13,1.17,-0.34,-205.2,-233.0,-256.0,1.08,6.66,-0.07,0.0,1.225316285699329,2.642290672882149,0.220597370474654,0.35,0,9,0.0
8.053995379999833,601,6077.28,99.8,2.9,65.7,1.09,-1.03,2.17,0.12,1.14,-0.37,-207.8,-259.9,-261.0,1.15,7.38,0.09,0.0,1.2045331045679069,2.637783160155512,0.19581790555636736,0.35,0,9,0.0
8.065473884000312,602,6077.29,99.9,3.1,65.8,1.0,-0.63,2.2,0.17,1.07,-0.4,-210.5,-282.5,-220.0,1.23,7.9,0.15,0.0,1.1549025932952095,2.4973786256793344,0.1432636463979966,0.35,0,9,0.0
8.07387845500125,603,6077.3,100.1,3.3,65.9,1.57,-0.2,2.07,0.23,1.07,-0.39,-213.5,-301.7,-212.0,1.31,8.49,0.06,0.0,1.1618519699169942,2.605724467398654,0.14720876255938564,0.35,0,9,0.0
8.08556096600114,604,6077.31,100.3,3.5,66.0,2.05,0.34,1.87,0.26,1.13,-0.33,-216.7,-325.6,-234.0,1.4,9.14,0.06,0.0,1.2055704044144413,2.7955321496988725,0.18710865311569602,0.35,0,9,0.0
8.093975781999688,605,6077.32,100.5,3.7,65.9,2.35,0.69,1.73,0.31,1.24,-0.24,-220.1,-344.9,-175.0,1.5,9.52,-0.09,0.0,1.3004999038831184,2.9985829986845456,0.27639738953268567,0.35,0,9,0.0
8.105630938000104,606,6077.33,100.7,3.9,65.9,2.05,1.11,1.83,0.33,1.35,-0.21,-223.6,-357.2,-143.0,1.59,9.87,0.02,0.0,1.4055248130146976,2.963697015553378,0.3737938526909794,0.35,1,10,3.0
8.11404008700083,607,6077.34,100.9,4.1,65.8,1.76,1.61,2.11,0.33,1.45,-0.18,-227.3,-371.3,-139.0,1.7,10.24,0.03,0.0,1.4979319076646975,3.1846192865082004,0.45687692839415983,0.35,0,10,3.0
8.12567795799987,608,6077.35,101.0,4.4,65.6,1.79,2.08,2.73,0.26,1.5,-0.1,-231.0,-377.7,71.0,1.8,9.59,2.76,3.49,1.525647403563484,3.8708397021834937,0.4749005758070872,0.35,0,10,3.0
8.133882932001143,609,6077.36,101.2,4.7,65.5,1.46,2.31,3.23,0.19,1.42,-0.05,-234.2,-264.6,1003.0,1.86,5.33,3.24,3.49,1.433527118683145,4.230910067585933,0.3751246851082135,0.35,0,10,3.0
8.145612539001377,610,6077.37,101.3,5.1,65.3,0.27,2.59,3.46,0.18,1.3,-0.01,-235.8,-123.8,1178.0,1.89,1.91,3.01,3.49,1.3124404748406688,4.330427230655193,0.24895728044042253,0.35,0,10,3.0
8.153997467999943,611,6077.38,101.2,5.5,65.1,-0.97,2.87,3.29,0.19,1.13,-0.06,-236.2,-14.5,1017.0,1.89,-0.54,3.52,3.49,1.1474319151914851,4.472348376412553,0.08226974637541407,0.35,0,10,3.0
8.165398881001238,612,6077.39,101.0,5.9,64.8,-1.82,3.44,2.83,0.2,0.99,-0.04,-236.0,25.0,388.0,1.89,-0.54,3.65,3.49,1.0107917688624102,4.8119538651155,0.05328299195458763,0.35,0,10,3.0
8.173965457999657,613,6077.4,100.8,6.2,64.5,-1.94,3.76,2.15,0.23,0.91,0.02,-235.9,7.6,3.0,1.88,0.02,3.57,3.49,0.938829057922687,4.745914032091184,0.1227407888364247,0.35,0,10,3.0
8.185431682000853,614,6077.41,100.6,6.4,64.2,-1.87,4.37,1.52,0.25,0.93,0.01,-235.9,-0.4,-1.0,1.88,-0.01,3.62,3.49,0.9630680142129112,4.990410804733414,0.09653179589527638,0.35,0,10,3.0
8.19392196500121,615,6077.42,100.3,6.7,63.7,-2.01,5.23,1.1,0.27,0.96,0.04,-235.9,0.2,1.0,1.88,-0.01,3.67,3.49,0.9980480950335009,5.709903676945873,0.06032068077319308,0.35,0,10,3.0
8.205340877000708,616,6077.43,100.0,6.9,63.2,-2.33,5.95,0.96,0.25,0.95,0.1,-235.9,0.1,-1.0,1.88,0.0,3.36,3.49,0.9874208829065749,6.461656134459648,0.06952893504211666,0.35,0,10,3.0
8.213791748001313,617,6077.44,99.8,7.1,62.6,-1.89,6.4,1.08,0.21,0.87,0.09,-235.9,0.4,4.0,1.88,-0.03,3.45,3.49,0.899499861033897,6.760066567719582,0.15430095777649877,0.35,0,10,3.0
8.225613720000183,618,6077.45,99.6,7.3,61.9,-0.41,6.55,1.23,0.16,0.83,0.1,-235.8,9.5,126.0,1.88,-0.59,3.16,3.49,0.8511756575466664,6.67708768850612,0.19857265803845492,0.35,0,10,3.0
8.233887913000217,619,6077.46,99.5,7.5,61.3,1.02,6.11,1.11,0.17,0.84,0.13,-235.5,40.3,257.0,1.87,-1.48,3.11,3.49,0.8668333173107734,6.293218572399977,0.17925669830886082,0.35,0,10,3.0
8.24562194200007,620,6077.47,99.6,7.7,60.8,2.06,5.56,0.72,0.15,0.9,0.05,-234.9,81.6,425.0,1.84,-2.94,3.24,3.49,0.9137833441248533,5.972905490630167,0.1296605380648852,0.35,0,10,3.0
8.254013886000394,621,6077.48,99.8,7.8,60.2,1.8,5.44,0.2,0.09,0.99,-0.02,-233.7,137.6,524.0,1.8,-4.49,3.47,3.49,0.9942836617384396,5.733550383488402,0.04817701604227298,0.35,0,10,3.0
8.265480684000067,622,6077.49,99.8,7.9,59.7,0.71,5.17,-0.32,0.02,0.99,0.0,-231.9,199.5,597.0,1.75,-6.21,3.34,3.49,0.9902019995940222,5.22832669216452,0.051213504622956596,0.35,0,10,3.0
8.27401030100009,623,6077.5,99.7,7.9,59.2,-0.27,4.61,-0.86,-0.02,0.94,0.01,-229.4,261.5,598.0,1.67,-7.82,3.45,3.49,0.9402659198333203,4.697297095138863,0.09912659269598523,0.35,0,10,3.0
8.285397630999796,624,6077.51,99.6,7.9,58.8,-0.73,4.05,-1.27,-0.04,0.88,-0.02,-226.4,316.0,541.0,1.59,-9.17,3.29,3.49,0.8811356308764275,4.30677373447921,0.1550917440198205,0.35,0,10,3.0
8.293861746000402,625,6077.52,99.5,7.8,58.3,-0.5,3.65,-1.58,-0.05,0.84,-0.04,-222.9,361.8,465.0,1.49,-10.33,3.78,3.49,0.8424369412602939,4.008603248015448,0.18991462496323508,0.35,0,10,0.0
8.305545144001371,626,6077.53,99.4,7.7,58.0,0.0,3.31,-1.77,-0.03,0.83,-0.05,-219.0,407.9,470.0,1.37,-11.65,3.51,3.49,0.8320456718233681,3.7535316703073125,0.19629977651215758,0.35,0,10,0.0
8.313907896001183,627,6077.54,99.4,7.6,57.6,0.3,3.14,-1.84,-0.02,0.86,-0.08,-214.8,418.5,-144.0,1.26,-10.14,0.61,0.0,0.8639444426582069,3.6517393116157675,0.1611129855637724,0.35,0,10,0.0
8.325509285999942,628,6077.55,99.4,7.5,57.3,0.26,2.95,-1.77,0.0,0.9,-0.07,-211.3,306.7,-784.0,1.18,-7.11,0.22,0.0,0.9027181176868004,3.450072463007118,0.11989252432447528,0.35,0,10,0.0
8.334040298001128,629,6077.56,99.4,7.3,57.0,0.62,2.62,-1.82,0.07,0.92,-0.09,-208.9,222.7,-716.0,1.13,-5.34,0.12,0.0,0.9270382947861432,3.2497999938457753,0.09366090028062979,0.35,0,10,0.0
8.345624458001112,630,6077.57,99.4,7.2,56.7,0.69,2.61,-1.76,0.07,0.96,-0.16,-207.0,172.2,-527.0,1.08,-4.2,0.25,0.0,0.9757561170702441,3.222700730753633,0.04404421643659828,0.35,0,10,0.0
8.353388790999816,631,6077.58,99.4,7.0,56.4,0.07,2.72,-1.54,0.02,0.98,-0.19,-205.5,142.1,-329.0,1.04,-3.65,0.03,0.0,0.9984487968844471,3.1264836478062703,0.02092450588994743,0.35,0,10,0.0
8.36526695700013,632,6077.59,99.3,6.9,56.1,-0.58,2.75,-1.23,0.0,0.96,-0.14,-204.2,129.5,-166.0,1.01,-3.46,-0.08,0.0,0.9701546268507922,3.0678657076215052,0.04823430240513027,0.35,0,10,0.0
8.373992232000091,633,6077.6,99.2,6.8,55.8,-0.87,2.54,-0.93,-0.04,0.93,-0.13,-202.9,130.4,-18.0,0.97,-3.64,0.19,0.0,0.9398936110007345,2.841372907592384,0.07692541189008417,0.35,0,10,0.0
8.385442222001075,634,6077.61,99.1,6.8,55.6,-0.84,2.15,-0.72,-0.07,0.9,-0.13,-201.5,141.8,83.0,0.93,-4.03,-0.07,0.0,0.9120307012376283,2.417953680284219,0.10269255522012655,0.35,0,10,0.0
8.393983560001288,635,6077.62,99.0,6.7,55.4,-0.52,1.74,-0.58,-0.1,0.88,-0.13,-200.0,157.9,142.0,0.89,-4.51,-0.08,0.0,0.8951536181013848,1.9064102391667959,0.11717824558924272,0.35,0,10,0.0
8.40563773500071,636,6077.63,99.0,6.7,55.2,-0.42,1.25,-0.55,-0.12,0.88,-0.13,-198.3,176.9,173.0,0.84,-5.04,-0.11,0.0,0.8976079322287654,1.428775699681374,0.11242945283262495,0.35,0,10,0.0
8.413918080001167,637,6077.64,98.9,6.6,55.1,-0.54,0.73,-0.64,-0.14,0.89,-0.12,-196.4,196.4,188.0,0.79,-5.56,-0.08,0.0,0.9089004345911602,1.1109005356016353,0.09911421146082566,0.35,0,10,0.0
8.425643864000449,638,6077.65,98.8,6.6,55.1,-0.79,0.19,-0.73,-0.14,0.89,-0.12,-194.3,217.0,206.0,0.73,-6.17,-0.05,0.0,0.9089004345911602,1.092291169972549,0.09713192723160913,0.35,0,10,0.0
8.433987600999899,639,6077.66,98.7,6.5,55.1,-1.04,-0.33,-0.74,-0.12,0.9,-0.15,-192.0,238.7,211.0,0.66,-6.75,-0.09,0.0,0.9202716990106781,1.3183702059740277,0.08404544955584936,0.35,0,10,0.0
8.44544223900084,640,6077.67,98.6,6.4,55.1,-1.24,-0.82,-0.67,-0.09,0.9,-0.17,-189.4,260.3,214.0,0.59,-7.33,0.0,0.0,0.9203260291874832,1.6306133815224257,0.08231129699146333,0.35,0,10,0.0
8.45394177200069,641,6077.68,98.5,6.4,55.2,-1.42,-1.23,-0.47,-0.06,0.89,-0.2,-186.7,281.5,216.0,0.51,-7.93,-0.15,0.0,0.9141662868428261,1.936543312193146,0.08670161854939795,0.35,0,10,0.0
8.46558145200106,642,6077.69,98.4,6.3,55.3,-1.61,-1.53,-0.16,-0.04,0.88,-0.23,-183.7,305.1,234.0,0.44,-8.56,0.01,0.0,0.910439454329611,2.226791413671249,0.08861988204136073,0.35,0,10,0.0
8.473944925999604,643,6077.7,98.2,6.3,55.5,-1.63,-1.71,0.12,-0.02,0.84,-0.25,-180.4,332.3,245.0,0.34,-9.3,-0.19,0.0,0.8766413177577246,2.3654597861726585,0.11996965824098227,0.35,0,10,0.0
8.485561688999951,644,6077.71,98.1,6.3,55.7,-1.36,-1.84,0.37,-0.01,0.82,-0.26,-177.0,352.1,206.0,0.24,-9.79,-0.06,0.0,0.8602906485601246,2.317779109406244,0.1335939208898106,0.35,0,10,0.0
