host_time_s,seq,device_time_s,roll,pitch,yaw,gyro_x,gyro_y,gyro_z,accel_x,accel_y,accel_z,belt_length,belt_velocity,belt_acceleration,motor_pos,motor_vel,motor_iq_meas,motor_iq_set,acc_mag,gyro_mag,acc_residual,threshold,heel_strike,hs_count,torque_cmd_nm
3.069428624000466,1,5899.26,94.7,4.6,54.2,0.82,1.57,-1.09,-0.04,0.96,-0.04,-228.7,315.7,20.0,1.61,-7.78,-0.37,0.0,0.9616652224137047,2.0797596014924418,0.0,0.35,0,0,0.0
3.077878640000563,2,5899.27,94.8,4.5,54.0,0.83,1.38,-1.09,-0.04,0.98,-0.06,-224.9,279.4,-130.0,1.54,-7.72,0.16,0.0,0.9826494797230597,1.944582217341298,0.020564572163167982,0.35,0,0,0.0
3.085755801999767,3,5899.28,94.9,4.3,53.9,0.76,1.21,-1.13,0.0,0.98,-0.07,-222.1,293.9,91.0,1.46,-8.31,0.0,0.0,0.9824968193332739,1.8217025004099874,0.020003673537914546,0.35,0,0,0.0
3.09385652400033,4,5899.29,94.9,4.2,53.7,0.36,1.04,-0.98,-0.01,0.97,-0.07,-219.0,316.8,180.0,1.38,-8.94,-0.21,0.0,0.9725739046468397,1.4736349615830915,0.009879143674450641,0.35,0,0,0.0
3.1056449719999364,5,5899.3,94.9,4.0,53.6,0.23,0.9,-0.92,-0.02,0.95,-0.06,-215.7,335.1,163.0,1.28,-9.34,0.04,0.0,0.9521029356114811,1.3074020039758238,0.010379988853689848,0.35,0,0,0.0
3.11390014600056,6,5899.31,94.9,3.9,53.6,0.15,0.58,-0.82,-0.02,0.95,-0.05,-212.2,351.7,181.0,1.19,-9.88,0.02,0.0,0.9515250916292223,1.0155294185792945,0.010738676179229634,0.35,0,0,0.0
3.1252729429998,7,5899.32,94.9,3.8,53.5,0.03,0.29,-0.67,-0.03,0.94,-0.07,-208.5,373.5,206.0,1.08,-10.42,-0.02,0.0,0.9430800602281866,0.7306846104852627,0.01880003342865999,0.35,0,0,0.0
3.133803610000541,8,5899.33,94.9,3.7,53.5,-0.19,0.04,-0.54,-0.03,0.94,-0.1,-204.7,386.5,117.0,0.98,-10.61,-0.25,0.0,0.9457801012920498,0.5738466694161429,0.015777992517500783,0.35,0,0,0.0
3.1450917729998764,9,5899.34,94.9,3.6,53.5,-0.28,-0.17,-0.46,-0.04,0.95,-0.12,-200.8,398.4,155.0,0.87,-11.12,-0.26,0.0,0.9583840566286566,0.56471231613982,0.003110556437276202,0.35,0,0,0.0
3.1538408739997976,10,5899.35,94.9,3.5,53.5,-0.3,-0.42,-0.39,-0.04,0.95,-0.14,-196.7,411.7,98.0,0.76,-11.23,0.14,0.0,0.9610931276416453,0.6469157595854347,0.0003934557158016272,0.35,0,0,0.0
3.165426323000247,11,5899.36,94.8,3.5,53.6,-0.44,-0.58,-0.3,-0.03,0.95,-0.18,-192.5,415.5,62.0,0.64,-11.36,-0.06,0.0,0.9673675619949224,0.7874007874011811,0.005763359064725915,0.35,0,0,0.0
3.1737706730000355,12,5899.37,94.8,3.5,53.6,-0.5,-0.7,-0.25,-0.02,0.97,-0.2,-188.3,419.1,25.0,0.53,-11.35,0.04,0.0,0.9906058752097122,0.8958236433584459,0.028421638833925456,0.35,0,0,0.0
3.1853196379997826,13,5899.38,94.7,3.4,53.7,-0.73,-0.77,-0.18,0.0,0.98,-0.2,-184.2,417.7,13.0,0.42,-11.39,-0.01,0.0,1.000199980003999,1.0761970079869205,0.03725542875564791,0.35,0,0,0.0
3.1937962510000943,14,5899.39,94.7,3.4,53.8,-0.96,-0.83,-0.08,0.01,0.97,-0.21,-180.0,416.2,-50.0,0.3,-11.05,0.06,0.0,0.9925220400575495,1.271573827978541,0.028985939033014607,0.35,0,0,0.0
3.205430218999936,15,5899.4,94.6,3.4,53.9,-1.13,-0.88,0.07,0.01,0.96,-0.2,-175.9,396.8,-149.0,0.2,-10.49,0.04,0.0,0.9806630410084801,1.4339456056629203,0.016784401184266273,0.35,0,0,0.0
3.2138087450002786,16,5899.41,94.4,3.4,54.0,-1.19,-0.96,0.27,0.01,0.94,-0.2,-172.1,375.6,-210.0,0.1,-9.8,0.04,0.0,0.9610931276416453,1.5526107045875988,0.0027298019389171424,0.35,0,0,0.0
3.2253974900004323,17,5899.42,94.3,3.5,54.1,-1.14,-1.08,0.5,0.0,0.93,-0.19,-168.6,343.0,-318.0,0.01,-8.75,-0.07,0.0,0.9492101980067429,1.6480291259562132,0.014320476942343174,0.35,0,0,0.0
3.2338563849998536,18,5899.43,94.2,3.5,54.2,-0.94,-1.2,0.73,0.0,0.92,-0.19,-165.4,307.9,-316.0,-0.07,-7.93,0.22,0.0,0.9394147114027969,1.690118339052032,0.023633644275363408,0.35,0,0,0.0
3.2453508110002076,19,5899.44,94.2,3.6,54.3,-0.65,-1.35,0.88,-0.01,0.92,-0.2,-162.5,279.5,-293.0,-0.14,-7.14,0.13,0.0,0.941541289588513,1.7376420805217627,0.021076924767854277,0.35,0,0,0.0
3.2536734330005856,20,5899.45,94.1,3.7,54.5,-0.34,-1.45,0.97,0.0,0.92,-0.2,-159.9,249.2,-297.0,-0.21,-6.35,0.21,0.0,0.9414881836751856,1.777357589231835,0.02070743006755804,0.35,0,0,0.0
3.2650212910002665,21,5899.46,94.1,3.8,54.6,-0.23,-1.5,1.03,-0.02,0.92,-0.2,-157.6,221.1,-281.0,-0.27,-5.55,-0.19,0.0,0.9417005893594843,1.8340665200586375,0.020085123895594137,0.35,0,0,0.0
3.273622849000276,22,5899.47,94.1,3.9,54.8,-0.37,-1.61,1.09,-0.03,0.91,-0.18,-155.6,195.5,-248.0,-0.32,-4.94,0.1,0.0,0.9281163720137686,1.9791664912280624,0.03299595441648362,0.35,0,0,0.0
3.285239466999883,23,5899.48,94.1,4.0,55.0,-0.56,-1.75,1.17,-0.02,0.9,-0.18,-153.7,173.6,-219.0,-0.37,-4.38,0.32,0.0,0.9180413934022801,2.1783020910791966,0.042209514367412715,0.35,0,0,0.0
3.29379721100031,24,5899.49,94.0,4.1,55.2,-0.49,-1.87,1.17,-0.02,0.87,-0.19,-152.1,152.1,-225.0,-0.41,-3.71,0.0,0.0,0.890730037665734,2.259623862504554,0.06813045270187967,0.35,0,0,0.0
3.3053878030004853,25,5899.5,94.0,4.2,55.4,-0.13,-1.93,1.14,-0.01,0.86,-0.21,-150.8,128.0,-229.0,-0.44,-3.05,-0.02,0.0,0.8853247991556544,2.245306215196493,0.07206497738772011,0.35,0,0,0.0
3.313741982000465,26,5899.51,94.0,4.3,55.6,0.22,-1.88,1.05,0.0,0.86,-0.21,-149.7,102.3,-248.0,-0.46,-2.47,0.05,0.0,0.8852683209061533,2.1645553815968763,0.07067902652447688,0.35,0,0,0.0
3.3256040750002285,27,5899.52,94.1,4.3,55.7,0.48,-1.75,0.94,0.02,0.89,-0.2,-148.8,79.3,-225.0,-0.48,-1.86,0.11,0.0,0.9124143795447329,2.043648697795196,0.042662308528179316,0.35,0,0,0.0
3.3339040500004558,28,5899.53,94.1,4.4,55.9,0.58,-1.63,0.81,0.03,0.91,-0.21,-148.2,58.4,-227.0,-0.5,-1.27,0.2,0.0,0.9343982020530648,1.9103402838238008,0.020264916299450486,0.35,0,0,0.0
3.34527531599997,29,5899.54,94.2,4.5,56.1,0.7,-1.49,0.68,0.05,0.93,-0.24,-147.8,32.5,-255.0,-0.5,-0.45,0.15,0.0,0.9617692030835673,1.7811513130556875,0.006963963036430987,0.35,0,0,0.0
3.3538186240002688,30,5899.55,94.3,4.5,56.2,0.67,-1.37,0.66,0.06,0.95,-0.25,-147.7,0.1,-287.0,-0.5,0.33,0.02,0.0,0.9841747812253675,1.6617460696508357,0.02878215035466658,0.35,0,0,0.0
3.3653338270005406,31,5899.56,94.4,4.6,56.4,0.55,-1.34,0.8,0.05,0.95,-0.26,-147.8,-17.1,-179.0,-0.5,0.61,0.13,0.0,0.9862048468751307,1.6547205202087756,0.030195971684341183,0.35,0,0,0.0
3.3737156160004815,32,5899.57,94.4,4.7,56.5,0.36,-1.39,1.02,0.02,0.95,-0.23,-148.0,-29.0,-148.0,-0.49,1.02,0.07,0.0,0.9776502442080194,1.7612779451296152,0.021208541636885347,0.35,0,0,0.0
3.3851743260001967,33,5899.58,94.5,4.8,56.7,0.34,-1.73,1.08,0.0,0.94,-0.16,-148.4,-44.3,-161.0,-0.47,1.51,-0.09,0.0,0.9535197952848173,2.0675831301304433,0.0028634691405903245,0.35,0,0,0.0
3.3938123500001893,34,5899.59,94.6,4.9,56.9,1.01,-2.17,0.82,0.01,0.95,-0.15,-149.0,-65.0,-219.0,-0.45,2.23,0.09,0.0,0.9618211892030659,2.5300988122996304,0.005329166282105113,0.35,0,0,0.0
3.4052893180005412,35,5899.6,94.7,4.9,57.1,1.84,-2.34,0.33,0.03,1.0,-0.17,-149.9,-94.3,-271.0,-0.43,3.07,0.3,0.0,1.014790618797789,2.9950125208419416,0.05713262395929175,0.35,0,0,0.0
3.4136344700000336,36,5899.61,95.0,4.9,57.4,2.21,-2.5,-0.21,0.06,1.06,-0.18,-151.0,-125.1,-287.0,-0.39,3.86,-0.05,0.0,1.0768472500777444,3.3433815217530887,0.11680547013446207,0.35,0,0,0.0
3.4251661120006247,37,5899.62,95.3,4.8,57.6,1.89,-2.68,-0.66,0.08,1.1,-0.22,-152.5,-152.8,-257.0,-0.35,4.43,-0.04,0.0,1.124633273560764,3.3451606837340417,0.16129966374513205,0.35,0,0,0.0
3.4336201470005108,38,5899.63,95.6,4.7,57.9,1.39,-2.64,-0.76,0.1,1.1,-0.24,-154.2,-171.2,-200.0,-0.3,4.85,-0.03,0.0,1.1303096920755835,3.0788471868541967,0.1636365606147525,0.35,0,0,0.0
3.444866352000645,39,5899.64,95.8,4.6,58.2,1.37,-2.65,-0.73,0.1,1.07,-0.16,-156.0,-185.9,-153.0,-0.25,5.2,0.0,0.0,1.0865081684000355,3.0712049752499424,0.11743833620042043,0.35,0,0,0.0
3.45320159899984,40,5899.65,96.0,4.5,58.4,2.02,-2.75,-0.77,0.13,1.07,-0.19,-157.9,-195.3,-107.0,-0.2,5.4,0.07,0.0,1.0944861808172819,3.497970840358736,0.12290802164531345,0.35,0,0,0.0
3.464906707999944,41,5899.66,96.3,4.4,58.7,2.76,-2.35,-0.99,0.17,1.16,-0.17,-159.9,-198.9,-38.0,-0.14,5.38,-0.23,0.0,1.1846518475906749,3.7576854578317223,0.20881221465033228,0.35,0,0,0.0
3.473805796999841,42,5899.67,96.6,4.3,58.9,3.01,-1.93,-1.54,0.19,1.24,-0.09,-161.9,-195.3,23.0,-0.09,5.21,-0.05,0.0,1.2576963067449949,3.893147826630784,0.2762195403285592,0.35,0,0,0.0
3.485243936000188,43,5899.68,96.9,4.1,59.0,3.14,-1.38,-2.57,0.31,1.37,-0.08,-163.8,-186.7,76.0,-0.04,4.89,0.06,0.0,1.4069115110766564,4.2858954723604725,0.4169260497670163,0.35,0,1,0.0
3.4938242150001315,44,5899.69,97.2,3.8,59.1,2.7,-0.58,-3.56,0.43,1.55,-0.12,-165.6,-174.0,113.0,0.0,4.56,-0.1,0.0,1.613009609394811,4.505552130427524,0.6105636651234676,0.35,0,1,0.0
3.505239801999778,45,5899.7,97.4,3.4,59.0,0.37,0.29,-3.57,0.4,1.59,-0.1,-167.2,-162.2,124.0,0.04,4.19,-0.04,0.0,1.642589419179364,3.6008193512032785,0.6273406054098603,0.35,0,1,0.0
3.5137193470000057,46,5899.71,97.2,3.1,58.9,-1.6,0.73,-2.89,0.15,1.34,0.03,-168.7,-148.0,132.0,0.08,3.79,0.07,0.0,1.348703080740902,3.3830459648074545,0.32678518163197023,0.35,0,1,0.0
3.5253050430001167,47,5899.72,97.1,2.9,58.8,-1.86,0.25,-1.89,-0.09,1.22,0.16,-170.1,-132.6,142.0,0.12,3.43,-0.04,0.0,1.2337341690980275,2.6634939459289186,0.20757994458931384,0.35,0,1,0.0
3.5336592550002024,48,5899.73,96.9,2.7,58.8,-0.9,-0.57,-0.87,-0.28,1.09,0.18,-171.4,-120.6,117.0,0.15,3.12,-0.14,0.0,1.1396929411029972,1.375427206361718,0.11126794226239789,0.35,0,1,0.0
3.545224735999909,49,5899.74,96.9,2.7,58.9,0.81,-1.25,-0.16,-0.37,1.02,0.17,-172.5,-111.4,94.0,0.18,2.94,0.0,0.0,1.098271369015873,1.4980654191322889,0.06844944277176812,0.35,0,1,0.0
3.5537515169999097,50,5899.75,97.1,2.7,59.1,1.71,-2.1,0.23,-0.39,1.04,0.22,-173.6,-105.6,66.0,0.21,2.79,-0.09,0.0,1.1322985472038725,2.7179036038829634,0.10042708854057225,0.35,0,1,0.0
3.5652685889999702,51,5899.76,97.2,2.7,59.4,0.82,-3.13,0.62,-0.29,1.04,0.26,-174.6,-99.7,68.0,0.23,2.58,-0.24,0.0,1.1105404089901458,3.294495409011826,0.07709557132030875,0.35,0,1,0.0
3.5737835480003923,52,5899.77,97.2,2.7,59.8,-0.78,-4.09,0.61,-0.18,0.99,0.22,-175.5,-91.8,76.0,0.26,2.36,-0.01,0.0,1.03,4.208158742252958,0.003375940916440223,0.35,0,1,0.0
3.5852046750005684,53,5899.78,97.1,2.7,60.2,-2.3,-4.81,0.48,-0.05,0.89,0.16,-176.4,-81.6,104.0,0.28,2.02,-0.05,0.0,0.9056489386070079,5.35317662701316,0.12517246226324374,0.35,0,1,0.0
3.5936954759999935,54,5899.79,96.8,2.7,60.7,-2.79,-5.1,0.19,0.06,0.82,0.08,-177.1,-66.2,156.0,0.3,1.48,-0.02,0.0,0.8260750571225353,5.816373440555549,0.200651416872762,0.35,0,1,0.0
3.605158107000534,55,5899.8,96.6,2.6,61.2,-2.44,-4.89,0.04,0.15,0.82,0.02,-177.6,-44.9,191.0,0.31,0.93,0.07,0.0,0.8338465086573187,5.465098352271439,0.18902236603121902,0.35,0,1,0.0
3.6136406550003812,56,5899.81,96.4,2.6,61.7,-1.71,-4.53,-0.02,0.21,0.82,-0.02,-177.9,-24.6,205.0,0.31,0.35,-0.2,0.0,0.8466994744299774,4.842045022508568,0.17264601225338905,0.35,0,1,0.0
3.625232219999816,57,5899.82,96.3,2.5,62.1,-1.03,-4.1,-0.07,0.24,0.85,-0.05,-178.1,-6.8,159.0,0.31,0.03,-0.18,0.0,0.8846468221838588,4.227978240246749,0.1320046912095174,0.35,0,1,0.0
3.63390150899977,58,5899.83,96.2,2.5,62.5,-0.76,-3.69,-0.08,0.25,0.9,-0.08,-178.1,1.0,84.0,0.31,-0.05,-0.04,0.0,0.9374966666607407,3.768302004882305,0.07757174979798287,0.35,0,1,0.0
3.6451970630005235,59,5899.84,96.2,2.4,62.8,-0.78,-3.35,-0.03,0.23,0.93,-0.07,-178.1,-0.1,10.0,0.31,0.02,0.09,0.0,0.960572745813663,3.4397383621432605,0.053405757232159345,0.35,0,1,0.0
3.6535925289999795,60,5899.85,96.1,2.4,63.2,-0.85,-3.14,0.0,0.21,0.93,-0.08,-178.1,0.0,13.0,0.31,-0.01,0.0,0.0,0.9567653839891994,3.253013987058771,0.05606885667549055,0.35,0,1,0.0
3.665099054000166,61,5899.86,96.0,2.4,63.5,-0.97,-2.83,0.0,0.18,0.94,-0.11,-178.1,0.0,-1.0,0.31,0.0,-0.09,0.0,0.9633794683301071,2.9916216338300536,0.048465676887891274,0.35,0,1,0.0
3.6738388310004666,62,5899.87,96.0,2.4,63.7,-0.87,-2.44,0.02,0.14,0.95,-0.11,-178.1,-0.4,-9.0,0.31,0.05,0.0,0.0,0.9665402216152207,2.5905404841461173,0.04439882513072224,0.35,0,1,0.0
3.6851960490002966,63,5899.88,95.9,2.4,63.9,-0.41,-2.19,0.13,0.11,0.97,-0.09,-178.1,-4.3,-36.0,0.31,0.2,-0.11,0.0,0.9803570778037969,2.231837807727076,0.029970329563303144,0.35,0,1,0.0
3.6939126650004255,64,5899.89,95.9,2.4,64.2,0.25,-2.05,0.29,0.08,1.0,-0.1,-178.2,-11.2,-68.0,0.32,0.45,0.06,0.0,1.0081666528902848,2.0854495918146765,0.0021175393872789883,0.35,0,1,0.0
3.7052182940005878,65,5899.9,96.0,2.5,64.4,0.51,-2.03,0.48,0.07,1.02,-0.1,-178.4,-21.3,-89.0,0.32,0.74,0.03,0.0,1.027277956543408,2.1474170531128784,0.01665388898052722,0.35,0,1,0.0
3.713652270000239,66,5899.91,96.0,2.5,64.6,0.29,-2.07,0.61,0.07,1.03,-0.1,-178.7,-33.7,-121.0,0.33,1.12,0.01,0.0,1.0372077901751413,2.1774067144197016,0.026052048160015273,0.35,0,1,0.0
3.72516560799977,67,5899.92,96.0,2.6,64.8,-0.28,-2.14,0.71,0.07,1.02,-0.1,-179.1,-48.7,-151.0,0.35,1.59,0.09,0.0,1.027277956543408,2.2720255280255985,0.015799770237716393,0.35,0,1,0.0
3.7337595180006247,68,5899.93,96.0,2.6,65.0,-0.79,-2.24,0.77,0.07,1.0,-0.09,-179.7,-67.0,-166.0,0.37,2.09,0.05,0.0,1.0064790112068904,2.4969181003789456,0.004899191596825281,0.35,0,1,0.0
3.7452646609999647,69,5899.94,95.9,2.7,65.3,-1.07,-2.35,0.82,0.08,0.98,-0.1,-180.5,-83.9,-165.0,0.39,2.53,-0.01,0.0,0.9883319280484669,2.7092065259038485,0.022585349260143883,0.35,0,1,0.0
3.7537765100005345,70,5899.95,95.8,2.8,65.5,-1.08,-2.4,0.89,0.09,0.96,-0.12,-181.4,-99.1,-149.0,0.42,2.88,0.0,0.0,0.9716480844420988,2.7782188538702277,0.0384838090091818,0.35,0,1,0.0
3.7652479030002723,71,5899.96,95.7,2.9,65.8,-0.97,-2.38,0.97,0.11,0.94,-0.13,-182.5,-110.3,-107.0,0.45,3.09,0.23,0.0,0.9553009996854395,2.747034764978412,0.05373427589052426,0.35,0,1,0.0
3.7738552500004516,72,5899.97,95.7,3.0,66.0,-0.77,-2.32,1.07,0.13,0.94,-0.15,-183.7,-115.5,-57.0,0.48,3.16,0.01,0.0,0.960728889958036,2.6683702891465417,0.04734025790556928,0.35,0,1,0.0
3.7850867240003936,73,5899.98,95.6,3.1,66.2,-0.5,-2.16,1.16,0.14,0.93,-0.17,-184.8,-117.4,-24.0,0.51,3.15,0.0,0.0,0.9557196241576292,2.5022389973781483,0.05130253323185652,0.35,0,1,0.0
3.793898679999984,74,5899.99,95.6,3.2,66.5,-0.27,-1.95,1.26,0.15,0.92,-0.18,-186.0,-115.0,8.0,0.55,3.09,-0.05,0.0,0.9493682109698007,2.3373061416938947,0.05650086749129124,0.35,0,1,0.0
3.8051539640000556,75,5900.0,95.6,3.3,66.6,-0.14,-1.77,1.29,0.15,0.91,-0.19,-187.1,-112.1,25.0,0.58,2.99,-0.07,0.0,0.9416474924301557,2.19467537462833,0.06293715431031766,0.35,0,1,0.0
3.8136218480003663,76,5900.01,95.6,3.4,66.8,-0.18,-1.53,1.26,0.16,0.89,-0.21,-188.1,-107.0,70.0,0.6,2.76,-0.02,0.0,0.9283318372220141,1.9902009948746382,0.07472775332809001,0.35,0,1,0.0
3.825247771999784,77,5900.02,95.6,3.5,67.0,-0.28,-1.3,1.19,0.16,0.88,-0.22,-189.2,-98.5,77.0,0.63,2.57,0.0,0.0,0.9210863151735563,1.7845167413056118,0.08033380986901684,0.35,0,1,0.0
3.8338228430002346,78,5900.03,95.5,3.6,67.1,-0.41,-1.03,1.09,0.16,0.87,-0.21,-190.2,-92.0,69.0,0.65,2.39,-0.17,0.0,0.9091754506144565,1.5547025438970632,0.09039978093955436,0.35,0,1,0.0
3.8451009939999494,79,5900.04,95.5,3.7,67.2,-0.61,-0.86,0.95,0.16,0.85,-0.21,-191.0,-82.8,91.0,0.68,2.1,-0.1,0.0,0.8900561780022651,1.4192251407017844,0.10732867248071087,0.35,0,1,0.0
3.853813652000099,80,5900.05,95.4,3.8,67.3,-0.97,-0.7,0.75,0.18,0.82,-0.21,-191.8,-72.4,101.0,0.7,1.81,-0.03,0.0,0.8653900854527974,1.411878181713989,0.129354869729575,0.35,0,1,0.0
3.8652102530004413,81,5900.06,95.3,3.9,67.4,-1.31,-0.52,0.48,0.2,0.8,-0.21,-192.4,-61.6,104.0,0.71,1.51,-0.1,0.0,0.8509406559801924,1.4889257872708097,0.1409282132181363,0.35,0,1,0.0
3.8737163040004816,82,5900.07,95.2,3.9,67.4,-1.56,-0.32,0.17,0.21,0.78,-0.22,-193.0,-49.3,122.0,0.72,1.14,0.14,0.0,0.8371977066380438,1.601530517973354,0.15157773930907925,0.35,0,1,0.0
3.8851879530002407,83,5900.08,95.0,3.9,67.4,-1.67,-0.12,-0.11,0.23,0.78,-0.23,-193.4,-34.9,138.0,0.73,0.74,0.05,0.0,0.8451035439518639,1.677915373312969,0.140798463955354,0.35,0,1,0.0
3.893876533999901,84,5900.09,94.8,3.9,67.4,-1.44,0.19,-0.41,0.24,0.78,-0.26,-193.6,-22.2,128.0,0.74,0.4,-0.08,0.0,0.8565045242145543,1.509238218440018,0.12680953401881045,0.35,0,1,0.0
3.9050939590006237,85,5900.1,94.7,3.8,67.4,-0.92,0.56,-0.64,0.24,0.82,-0.26,-193.7,-9.6,118.0,0.74,0.12,0.06,0.0,0.8930845424706442,1.252836781069266,0.08842492544746616,0.35,0,1,0.0
3.9135333250005715,86,5900.11,94.6,3.8,67.3,-0.32,0.91,-0.75,0.21,0.89,-0.25,-193.8,-3.2,65.0,0.74,0.06,-0.19,0.0,0.9479978902930112,1.2218837915284744,0.032841346072597144,0.35,0,1,0.0
3.9253450189999057,87,5900.12,94.6,3.7,67.2,0.01,1.13,-0.75,0.17,0.94,-0.22,-193.8,-3.0,11.0,0.74,0.12,0.09,0.0,0.9802550688468793,1.356281681657612,0.0005724841683544257,0.35,0,1,0.0
3.9337738610001907,88,5900.13,94.6,3.6,67.1,-0.12,1.25,-0.74,0.12,0.96,-0.21,-193.9,-6.6,-22.0,0.74,0.22,0.03,0.0,0.99,1.4575664650368434,0.008988998045070917,0.35,0,1,0.0
3.9451258250001047,89,5900.14,94.6,3.6,66.9,-0.64,1.32,-0.77,0.08,0.93,-0.21,-194.0,-10.7,-38.0,0.75,0.38,0.1,0.0,0.9567653839891994,1.6567739737212195,0.023760705606415078,0.35,0,1,0.0
3.9538273540001683,90,5900.15,94.5,3.5,66.8,-1.04,1.34,-0.83,0.04,0.9,-0.21,-194.1,-16.0,-46.0,0.75,0.52,0.06,0.0,0.925040539652182,1.8884120313109636,0.05437583894456377,0.35,0,1,0.0
3.965220849000616,91,5900.16,94.4,3.4,66.6,-1.13,1.28,-0.85,0.02,0.88,-0.19,-194.3,-25.0,-91.0,0.76,0.86,0.16,0.0,0.900499861188218,1.9073017590302799,0.07733818706035722,0.35,0,1,0.0
3.973546307000106,92,5900.17,94.2,3.3,66.5,-0.86,1.12,-0.77,0.01,0.89,-0.16,-194.7,-38.3,-122.0,0.77,1.25,0.09,0.0,0.9043229511629128,1.6083842824399894,0.07204479514394913,0.35,0,1,0.0
3.98525647400038,93,5900.18,94.2,3.3,66.4,-0.42,0.84,-0.62,0.03,0.91,-0.14,-195.1,-51.9,-127.0,0.79,1.58,-0.08,0.0,0.9211948762341223,1.125344391730816,0.054069412671284844,0.35,0,1,0.0
3.9937175980003303,94,5900.19,94.3,3.2,66.3,0.02,0.6,-0.46,0.08,0.97,-0.14,-195.7,-61.8,-103.0,0.8,1.82,0.0,0.0,0.9833107342035883,0.7563068160475616,0.007885516392217462,0.35,0,1,0.0
4.00516000800053,95,5900.2,94.3,3.2,66.3,0.07,0.45,-0.32,0.11,1.01,-0.15,-196.4,-72.0,-107.0,0.82,2.14,0.01,0.0,1.026985881110349,0.5565968020030299,0.05052945003299858,0.35,0,1,0.0
4.013818522999827,96,5900.21,94.3,3.2,66.3,-0.24,0.29,-0.22,0.14,1.02,-0.17,-197.2,-83.0,-103.0,0.85,2.4,0.0,0.0,1.0435037134576954,0.4360045871318328,0.06570633673273818,0.35,0,1,0.0
4.025469488999988,97,5900.22,94.3,3.2,66.2,-0.62,0.2,-0.26,0.16,0.99,-0.23,-198.1,-93.0,-97.0,0.87,2.67,-0.01,0.0,1.0288828893513586,0.7014271166700072,0.05006380237387331,0.35,0,1,0.0
4.033570436000446,98,5900.23,94.2,3.2,66.2,-0.77,0.31,-0.35,0.19,0.99,-0.27,-199.1,-101.2,-82.0,0.9,2.84,0.21,0.0,1.043599540053559,0.9008329478876758,0.06348484401455212,0.35,0,1,0.0
4.0452134080005635,99,5900.24,94.1,3.1,66.2,-0.51,0.56,-0.35,0.21,1.04,-0.29,-200.2,-108.6,-86.0,0.93,3.08,0.07,0.0,1.0999090871522066,0.8343860018001261,0.11739850329093582,0.35,0,1,0.0
4.053854124999816,100,5900.25,94.1,3.1,66.1,0.03,0.84,-0.17,0.2,1.09,-0.29,-201.3,-116.0,-71.0,0.96,3.25,0.01,0.0,1.145512985522207,0.8575546629807338,0.1597423536277175,0.35,0,1,0.0
4.065162036999936,101,5900.26,94.1,3.1,66.0,0.58,1.05,0.19,0.18,1.16,-0.25,-202.5,-122.2,-68.0,1.0,3.44,0.07,0.0,1.2002083152519816,1.2144957801491119,0.21014892969034216,0.35,0,1,0.0
4.073714793999898,102,5900.27,94.2,3.2,65.9,0.8,1.14,0.75,0.14,1.19,-0.24,-203.8,-131.9,-97.0,1.03,3.77,-0.17,0.0,1.2220065466273085,1.5818027689949212,0.22730821784435562,0.35,0,1,0.0
4.0851412649999475,103,5900.28,94.3,3.3,65.8,0.54,1.02,1.17,0.1,1.12,-0.24,-205.2,-144.1,-118.0,1.07,4.13,0.06,0.0,1.1497825881443848,1.6434415109762806,0.15198257417420336,0.35,0,1,0.0
4.093656033000116,104,5900.29,94.3,3.4,65.7,0.46,0.9,1.44,0.1,1.09,-0.25,-206.7,-158.0,-134.0,1.12,4.53,0.22,0.0,1.1227644454648535,1.7593180496999399,0.12246514286477872,0.35,0,1,0.0
4.1052103330002865,105,5900.3,94.3,3.6,65.6,0.57,0.97,1.6,0.09,1.09,-0.2,-208.4,-171.5,-133.0,1.16,4.85,-0.11,0.0,1.1118453129819814,1.9559652348648737,0.10931509017426855,0.35,0,1,0.0
4.113743874000647,106,5900.31,94.4,3.8,65.5,0.52,0.93,1.66,0.09,1.11,-0.14,-210.2,-184.8,-130.0,1.22,5.21,-0.02,0.0,1.122408125416063,1.9725364381932213,0.11748034455618317,0.35,0,1,0.0
4.125113085000521,107,5900.32,94.5,3.9,65.4,0.52,1.02,1.62,0.09,1.16,-0.15,-212.2,-196.9,-123.0,1.27,5.55,-0.03,0.0,1.173115510084152,1.9837338531163904,0.16482397463978682,0.35,0,1,0.0
4.133722964000299,108,5900.33,94.6,4.1,65.3,0.8,1.27,1.5,0.09,1.19,-0.13,-214.2,-210.4,-138.0,1.33,5.95,0.16,0.0,1.2004582458378132,2.1220037700249264,0.18832337618557915,0.35,0,1,0.0
4.145227806000548,109,5900.34,94.7,4.3,65.2,1.31,1.41,1.48,0.12,1.3,-0.05,-216.4,-224.9,-137.0,1.39,6.3,0.1,0.0,1.3064838307457158,2.427879733429974,0.2884619818716121,0.35,0,1,0.0
4.153750477999893,110,5900.35,94.8,4.5,65.1,1.12,1.4,1.68,0.12,1.33,-0.03,-218.8,-238.8,-134.0,1.46,6.66,0.01,0.0,1.335739495560418,2.456990028469794,0.3113632937525881,0.35,0,1,0.0
4.165223650999906,111,5900.36,94.8,4.7,65.0,0.72,1.53,1.75,0.13,1.31,-0.07,-221.2,-248.8,-104.0,1.52,6.88,-0.05,0.0,1.3182943525631898,2.4334748817277734,0.28803978774025274,0.35,0,1,0.0
4.173713537000367,112,5900.37,94.9,4.9,64.8,0.28,1.92,1.66,0.18,1.28,-0.07,-223.8,-258.4,-109.0,1.6,7.21,0.14,0.0,1.294488315899375,2.5535073918044566,0.25894907605490913,0.35,0,1,0.0
4.185166680000293,113,5900.38,94.8,5.1,64.6,-0.42,2.45,1.35,0.24,1.18,-0.07,-226.5,-272.0,-128.0,1.67,7.59,0.16,0.0,1.2061923561356207,2.8286746012929807,0.16724005396533181,0.35,0,1,0.0
4.19354687699979,114,5900.39,94.7,5.2,64.3,-0.94,3.2,0.95,0.29,1.11,-0.06,-229.3,-284.9,-126.0,1.75,7.94,0.01,0.0,1.148825487182453,3.467866779448138,0.10767572131192082,0.35,0,1,0.0
4.205237756000315,115,5900.4,94.6,5.3,64.0,-1.22,3.94,0.7,0.29,1.06,-0.02,-232.2,-299.2,-147.0,1.83,8.41,0.17,0.0,1.099136024339117,4.183539171562757,0.056826533299213056,0.35,0,1,0.0
4.213810168999771,116,5900.41,94.4,5.4,63.5,-1.24,4.63,0.55,0.25,0.97,0.0,-235.3,-315.5,-141.0,1.92,8.71,-0.07,0.0,1.0016985574512924,4.824624337707548,0.039798714916839284,0.35,0,1,0.0
4.225227253000412,117,5900.42,94.3,5.5,63.0,-0.94,5.31,0.48,0.14,0.92,0.02,-238.5,-319.4,-34.0,2.0,8.61,-0.06,0.0,0.9308061022576076,5.4138803089835665,0.10847734670831366,0.35,0,1,0.0
4.233728348000113,118,5900.43,94.1,5.6,62.5,-0.32,5.75,0.33,0.08,0.87,0.08,-241.7,-315.7,1.0,2.09,8.55,-0.24,0.0,0.8773254812211941,5.768344649897403,0.15871880838983254,0.35,0,1,0.0
4.245225923000362,119,5900.44,94.1,5.7,61.9,0.13,5.91,0.32,0.05,0.89,0.11,-244.8,-311.2,58.0,2.17,8.25,-0.23,0.0,0.8981647955692763,5.920084458856985,0.1351219041609154,0.35,0,1,0.0
4.253563060000488,120,5900.45,94.0,5.7,61.3,0.25,5.99,0.35,0.04,0.89,0.09,-247.8,-293.7,164.0,2.25,7.59,-0.16,0.0,0.8954328562209453,6.0054225496629305,0.13509676663906145,0.35,0,1,0.0
4.2652098059998025,121,5900.46,94.0,5.8,60.7,0.1,5.95,0.46,0.04,0.89,0.1,-250.6,-267.0,243.0,2.32,6.81,-0.13,0.0,0.8964931678490361,5.968592798976991,0.1313557259107513,0.35,0,1,0.0
4.273813038999833,122,5900.47,93.9,5.9,60.1,0.03,5.61,0.45,0.03,0.88,0.14,-253.0,-235.3,307.0,2.38,5.85,0.0,0.0,0.8915716460273958,5.628099146248226,0.13355170277774364,0.35,0,1,0.0
4.285217389000536,123,5900.48,93.9,6.0,59.6,0.1,5.1,0.28,0.04,0.9,0.13,-255.1,-196.1,379.0,2.43,4.65,-0.07,0.0,0.9102197536858888,5.108659315319431,0.11260552321686557,0.35,0,1,0.0
4.293907918000514,124,5900.49,93.8,6.0,59.1,0.02,4.8,-0.02,0.04,0.91,0.07,-256.8,-150.6,435.0,2.47,3.4,-0.05,0.0,0.9135644476444998,4.800083332609966,0.10707561267308952,0.35,0,1,0.0
4.305103226000028,125,5900.5,93.8,6.0,58.6,0.08,4.71,-0.45,0.03,0.9,0.04,-258.0,-104.3,455.0,2.5,2.13,-0.2,0.0,0.9013878188659974,4.73212425872356,0.11686719662256007,0.35,0,1,0.0
4.3136659769998005,126,5900.51,93.8,6.0,58.1,0.16,4.55,-0.9,0.02,0.91,0.04,-258.7,-56.7,470.0,2.51,0.83,-0.08,0.0,0.9110982383914481,4.640915857888397,0.10501364155516724,0.35,0,1,0.0
4.325196081000286,127,5900.52,93.7,5.9,57.7,0.05,4.33,-1.14,0.0,0.91,0.03,-258.9,-10.0,461.0,2.51,-0.35,-0.17,0.0,0.910494371207203,4.4778342979614605,0.10350515856462417,0.35,0,1,0.0
4.333772859999954,128,5900.53,93.7,5.8,57.3,-0.2,4.08,-1.23,0.0,0.89,0.01,-258.8,26.1,349.0,2.5,-1.11,0.04,0.0,0.8900561780022652,4.266063759486021,0.12146448473417071,0.35,0,1,0.0
4.34520890100066,129,5900.54,93.6,5.7,56.9,-0.43,3.88,-1.24,0.0,0.86,0.0,-258.3,51.1,277.0,2.49,-1.74,-0.24,0.0,0.86,4.0959614255996115,0.1484902494817072,0.35,0,1,0.0
4.353880626000318,130,5900.55,93.5,5.6,56.5,-0.4,3.83,-1.16,0.01,0.86,-0.01,-257.6,73.8,242.0,2.46,-2.35,0.11,0.0,0.860116271209887,4.021753348976041,0.14540649870638378,0.35,0,1,0.0
4.365177425000184,131,5900.56,93.4,5.5,56.1,-0.13,3.78,-1.04,0.01,0.85,-0.02,-256.8,96.5,230.0,2.44,-2.92,0.0,0.0,0.8502940667792525,3.922613924413158,0.15212412907427786,0.35,0,1,0.0
4.3736873870002455,132,5900.57,93.4,5.3,55.7,0.31,3.69,-1.01,0.0,0.87,-0.04,-255.6,118.3,224.0,2.4,-3.55,0.03,0.0,0.8709190547921202,3.8382678384917326,0.12886915824018197,0.35,0,1,0.0
4.385218557000371,133,5900.58,93.4,5.2,55.3,0.74,3.52,-0.97,-0.02,0.93,-0.05,-254.3,140.0,218.0,2.36,-4.14,-0.01,0.0,0.9315578350268973,3.725439571379463,0.06686577044529673,0.35,0,1,0.0
4.393852764999792,134,5900.59,93.4,5.0,55.0,0.7,3.29,-0.85,-0.03,0.97,-0.05,-252.7,162.4,223.0,2.32,-4.74,-0.11,0.0,0.9717509969122748,3.4693803481313488,0.026139156388720775,0.35,0,1,0.0
4.40504374000011,135,5900.6,93.4,4.9,54.7,0.24,3.03,-0.78,-0.04,0.98,-0.05,-251.0,183.9,218.0,2.27,-5.34,-0.09,0.0,0.982089608946149,3.1379770553654467,0.015484533467749584,0.35,0,1,0.0
4.413651093999761,136,5900.61,93.4,4.8,54.4,-0.35,2.75,-0.79,-0.04,0.96,-0.05,-249.0,207.0,225.0,2.21,-5.96,0.07,0.0,0.9621330469326994,2.8825509535826073,0.03473227357157527,0.35,0,1,0.0
4.425086459999875,137,5900.62,93.3,4.6,54.1,-0.72,2.52,-0.84,-0.04,0.92,-0.05,-246.7,231.0,244.0,2.14,-6.68,-0.01,0.0,0.9222255689363639,2.7521627858831317,0.07314695653655257,0.35,0,1,0.0
4.433731502999763,138,5900.63,93.2,4.5,53.8,-0.71,2.31,-0.88,-0.04,0.9,-0.05,-244.2,256.8,244.0,2.07,-7.3,-0.03,0.0,0.9022749026765623,2.5718864671676314,0.09123567034042701,0.35,0,1,0.0
4.44523733799997,139,5900.64,93.2,4.3,53.6,-0.48,2.08,-0.86,-0.04,0.89,-0.05,-241.5,278.3,219.0,2.0,-7.88,0.03,0.0,0.8923003978481686,2.3013908837918,0.0991859716654443,0.35,0,1,0.0
4.453805805000229,140,5900.65,93.1,4.2,53.4,-0.13,1.77,-0.83,-0.05,0.89,-0.06,-238.6,302.0,255.0,1.91,-8.65,-0.21,0.0,0.893420393767682,1.959260064412073,0.09610465623101228,0.35,0,1,0.0
4.465215541999896,141,5900.66,93.1,4.2,53.3,0.13,1.44,-0.81,-0.05,0.89,-0.09,-235.4,331.9,272.0,1.82,-9.4,0.01,0.0,0.8959352655186645,1.6572869395490932,0.09171798879042914,0.35,0,1,0.0
4.473917696000171,142,5900.67,93.1,4.1,53.1,0.24,1.16,-0.77,-0.05,0.92,-0.11,-231.9,355.2,235.0,1.72,-9.97,-0.02,0.0,0.9279008567729636,1.412834031300209,0.05855734958540748,0.35,0,1,0.0
4.485106125000129,143,5900.68,93.1,4.0,53.0,0.11,0.93,-0.71,-0.05,0.94,-0.13,-228.2,378.0,238.0,1.62,-10.64,-0.15,0.0,0.9502631214563679,1.1752021102772068,0.03547118320396314,0.35,0,1,0.0
4.493624804000319,144,5900.69,93.1,4.0,52.9,-0.09,0.69,-0.61,-0.05,0.95,-0.14,-224.2,403.5,247.0,1.51,-11.35,0.05,0.0,0.9615612304996494,0.9253647929330356,0.023689612677468053,0.35,0,1,0.0
4.505116897000335,145,5900.7,93.1,3.9,52.9,-0.45,0.46,-0.45,-0.05,0.96,-0.14,-220.0,432.6,299.0,1.39,-12.25,-0.25,0.0,0.9714422267947795,0.7852388171760233,0.013532444054691117,0.35,0,1,0.0
4.513667717000317,146,5900.71,93.0,3.9,52.8,-0.75,0.24,-0.29,-0.05,0.94,-0.15,-215.4,460.4,242.0,1.26,-12.78,-0.17,0.0,0.9532051195833979,0.8391662528962899,0.03113416024075122,0.35,0,1,0.0
4.525218067999958,147,5900.72,92.9,3.9,52.8,-0.92,0.0,-0.13,-0.05,0.92,-0.15,-210.7,481.6,258.0,1.13,-13.54,-0.05,0.0,0.9334880824091971,0.9291393867445293,0.049834173466652976,0.35,0,1,0.0
4.533631551999861,148,5900.73,92.8,3.8,52.8,-0.92,-0.26,0.0,-0.05,0.92,-0.15,-205.7,505.8,199.0,0.99,-13.95,-0.12,0.0,0.9334880824091971,0.9560334722173696,0.04883748999731996,0.35,0,1,0.0
4.545136034000279,149,5900.74,92.8,3.9,52.9,-0.89,-0.5,0.16,-0.04,0.93,-0.17,-200.5,528.0,275.0,0.84,-14.86,-0.16,0.0,0.9462557793746891,1.0332956982393762,0.035348397171191426,0.35,0,1,0.0
4.5537410540000565,150,5900.75,92.7,3.9,52.9,-1.01,-0.7,0.32,-0.05,0.94,-0.18,-195.0,555.1,226.0,0.69,-15.35,-0.14,0.0,0.9583840566286566,1.2698425099200294,0.022755717518879504,0.35,0,1,0.0
4.56518949600013,151,5900.76,92.6,3.9,53.0,-1.15,-0.9,0.52,-0.05,0.94,-0.18,-189.3,575.1,226.0,0.53,-15.97,0.0,0.0,0.9583840566286566,1.5501290268877619,0.02230060316850191,0.35,0,1,0.0
4.573741672000324,152,5900.77,92.4,4.0,53.1,-1.3,-1.16,0.73,-0.05,0.94,-0.18,-183.4,601.0,283.0,0.37,-16.84,-0.06,0.0,0.9583840566286566,1.88904737897174,0.021854591105131882,0.35,0,1,0.0
4.5852348240005085,153,5900.78,92.3,4.1,53.3,-1.45,-1.37,0.94,-0.07,0.92,-0.19,-177.2,625.0,193.0,0.2,-17.19,0.02,0.0,0.942019108086455,2.2052210773525633,0.03745514885438683,0.35,0,1,0.0
4.593789958000343,154,5900.79,92.2,4.2,53.4,-1.5,-1.65,1.12,-0.08,0.88,-0.16,-170.8,644.2,197.0,0.02,-17.66,-0.37,0.0,0.8979977728257459,2.495375723212839,0.07984695443279399,0.35,0,1,0.0
4.605390090000583,155,5900.8,92.1,4.3,53.6,-1.25,-1.95,1.19,-0.09,0.85,-0.14,-164.3,660.0,232.0,-0.15,-18.46,-0.22,0.0,0.8661408661412991,2.6040545309190435,0.10946978389489592,0.35,0,1,0.0
4.61361755300004,156,5900.81,92.0,4.4,53.8,-0.67,-2.17,1.19,-0.1,0.83,-0.14,-157.5,680.9,131.0,-0.34,-18.5,0.17,0.0,0.8476437931112337,2.5639617781862505,0.12540751978646214,0.35,0,1,0.0
4.625107698000647,157,5900.82,92.0,4.5,54.1,0.03,-2.27,1.12,-0.12,0.82,-0.14,-150.7,676.1,-53.0,-0.52,-17.92,0.25,0.0,0.8404760555780276,2.53144227664784,0.1299237521732749,0.35,0,1,0.0
4.633762907000346,158,5900.83,92.0,4.6,54.3,0.64,-2.33,1.0,-0.17,0.84,-0.13,-144.3,625.8,-533.0,-0.68,-15.41,0.27,0.0,0.8668333173107734,2.6150525807333205,0.1014951606317186,0.35,0,1,0.0
4.64521415299987,159,5900.84,92.1,4.7,54.5,0.51,-2.35,1.04,-0.22,0.87,-0.12,-138.8,501.6,-1090.0,-0.81,-11.57,0.3,0.0,0.9053728513711906,2.619961831783051,0.061696514039875305,0.35,0,1,0.0
4.6536884280003505,160,5900.85,92.2,4.8,54.8,0.51,-3.08,0.84,-0.09,0.84,-0.08,-134.8,360.1,-1326.0,-0.9,-7.52,0.67,0.0,0.8485870609430713,3.232970770050357,0.11611265837863471,0.35,0,1,0.0
4.665064292999887,161,5900.86,92.3,4.8,55.1,1.7,-3.15,0.27,0.09,0.84,-0.2,-132.3,199.5,-1573.0,-0.94,-2.78,0.9,0.0,0.8681589716175258,3.589623935734773,0.09460993275009666,0.35,0,1,0.0
4.673695757000132,162,5900.87,92.6,4.8,55.4,2.39,-2.75,-0.38,0.19,0.93,-0.26,-131.5,25.5,-1610.0,-0.94,1.38,0.36,0.0,0.9841747812253676,3.6631953264875188,0.020977759320590317,0.35,0,1,0.0
4.685252654000578,163,5900.88,92.8,4.7,55.7,1.58,-2.24,-0.83,0.33,1.05,-0.32,-132.1,-92.5,-1186.0,-0.91,3.83,0.25,0.0,1.1462111498323508,2.864070529857811,0.1793538453690221,0.35,0,1,0.0
4.693886044999999,164,5900.89,92.9,4.6,55.8,0.42,-1.4,-0.83,0.34,1.08,-0.37,-133.6,-177.9,-945.0,-0.85,6.01,0.22,0.0,1.1911758896149636,1.6808628736455569,0.21983221344860215,0.35,0,1,0.0
4.705199153000649,165,5900.9,92.9,4.5,56.0,0.86,-1.03,-1.07,0.28,0.97,-0.33,-136.0,-254.7,-814.0,-0.78,8.01,0.3,0.0,1.0621675950620975,1.7162167695253419,0.08900744051782128,0.35,0,1,0.0
4.713775764999809,166,5900.91,93.1,4.4,56.1,1.83,-1.04,-1.4,0.18,1.03,-0.24,-139.0,-326.1,-736.0,-0.69,9.9,0.25,0.0,1.072800074571213,2.5279438284898657,0.09764712162639799,0.35,0,1,0.0
4.725270457000079,167,5900.92,93.3,4.2,56.1,2.41,-1.0,-1.8,0.12,1.15,-0.23,-142.7,-392.7,-664.0,-0.58,11.52,0.21,0.0,1.1788977903109326,3.169873814523222,0.19966994061879528,0.35,0,1,0.0
4.737852031999864,168,5900.93,93.6,4.0,56.2,3.03,-0.58,-2.24,0.12,1.21,-0.23,-147.0,-434.1,-388.0,-0.46,11.97,0.02,0.0,1.2374974747448981,3.8124663932945038,0.25310423255170567,0.35,0,1,0.0
4.745897554999829,169,5900.94,94.0,3.8,56.2,3.79,0.0,-2.69,0.12,1.31,-0.14,-151.4,-442.1,-151.0,-0.34,11.97,0.1,0.0,1.3229134514396625,4.6476015319732396,0.3317498050615407,0.35,0,1,0.0
4.753946567000639,170,5900.95,94.4,3.5,56.2,3.72,0.24,-3.02,0.05,1.38,-0.06,-155.8,-433.6,47.0,-0.22,11.48,-0.27,0.0,1.3822083779228078,4.797541036822927,0.38322383691379225,0.35,0,2,0.0
4.765286670000023,171,5900.96,94.7,3.2,56.1,3.89,0.35,-3.28,0.07,1.48,-0.02,-160.0,-411.5,185.0,-0.11,10.75,-0.01,0.0,1.481789458728871,5.100294109166646,0.4731488193654583,0.35,0,2,0.0
4.773871702000179,172,5900.97,95.1,2.8,56.1,4.07,0.65,-3.44,0.12,1.61,0.07,-163.9,-377.2,331.0,-0.01,9.56,-0.06,0.0,1.6159826731744373,5.368519348945293,0.5951951931348043,0.35,0,2,0.0
4.785109260999889,173,5900.98,95.4,2.5,55.9,2.92,0.79,-3.16,0.07,1.74,0.14,-167.3,-331.0,407.0,0.07,8.36,-0.17,0.0,1.7470260444538313,4.374482826575045,0.7117137931259143,0.35,0,2,0.0
4.7938442109998505,174,5900.99,95.6,2.3,55.9,0.73,0.41,-1.95,-0.03,1.67,0.22,-170.3,-290.8,396.0,0.14,7.33,-0.1,0.0,1.684695818241382,2.122145141124895,0.6363958955751958,0.35,0,2,0.0
4.805209176000062,175,5901.0,95.6,2.1,55.8,-0.56,-0.4,-0.66,-0.19,1.43,0.25,-173.0,-250.7,409.0,0.21,6.17,-0.1,0.0,1.4640696704733691,0.9535197952848175,0.40745435285103926,0.35,0,2,0.0
4.813659150000603,176,5901.01,95.5,2.1,56.0,-0.93,-1.73,0.26,-0.31,1.2,0.35,-174.7,-216.9,525.0,0.26,5.17,-0.23,0.0,1.2878664527038508,1.9812622239370539,0.2266261123798905,0.35,0,2,0.0
4.825285619000169,177,5901.02,95.4,2.1,56.2,-0.96,-3.73,0.75,-0.34,1.04,0.43,-177.0,-168.7,441.0,0.3,4.11,-0.09,0.0,1.175627492022877,3.923901120058965,0.1120994086649385,0.35,0,2,0.0
4.833760401000291,178,5901.03,95.3,2.2,56.7,-0.95,-5.64,1.11,-0.31,1.0,0.36,-178.4,-129.8,409.0,0.34,3.04,0.12,0.0,1.107113363662457,5.826165119527595,0.04271357469842818,0.35,0,2,0.0
4.845315917000335,179,5901.04,95.2,2.3,57.4,-1.52,-6.83,1.44,-0.3,0.93,0.26,-179.4,-92.1,374.0,0.36,2.08,-0.17,0.0,1.0111874208078344,7.14373151791135,0.05214812079307052,0.35,0,2,0.0
4.85370361600053,180,5901.05,95.1,2.3,58.1,-1.87,-7.73,1.33,-0.28,0.84,0.2,-180.1,-58.1,342.0,0.37,1.2,-0.1,0.0,0.9077444574328174,8.063417389667983,0.15247926248472587,0.35,0,2,0.0
4.865288886000599,181,5901.06,94.9,2.4,58.9,-1.78,-8.41,0.89,-0.18,0.82,0.13,-180.5,-28.8,296.0,0.38,0.47,0.0,0.0,0.8495292814258965,8.642256649741432,0.20648054972181396,0.35,0,2,0.0
4.873838063000221,182,5901.07,94.8,2.4,59.8,-2.08,-8.45,0.51,-0.05,0.85,0.02,-180.6,-5.6,223.0,0.38,-0.01,0.26,0.0,0.8517041739947033,8.717166970983175,0.20021954400994701,0.35,0,2,0.0
4.885110635999808,183,5901.08,94.6,2.3,60.6,-2.21,-8.1,0.19,0.07,0.88,-0.03,-180.6,3.4,108.0,0.38,-0.12,0.17,0.0,0.8832893070789434,8.398226003150905,0.16526172270719286,0.35,0,2,0.0
4.893789626000398,184,5901.09,94.4,2.3,61.4,-1.98,-7.79,0.06,0.2,0.92,-0.06,-180.6,3.0,11.0,0.38,0.0,0.09,0.0,0.9433981132056605,8.03791639667893,0.10304985824886626,0.35,0,2,0.0
4.905205419000595,185,5901.1,94.3,2.2,62.2,-1.4,-7.1,-0.08,0.31,0.89,-0.14,-180.6,-3.5,-35.0,0.38,0.16,-0.06,0.0,0.9527853903162034,7.237154136813724,0.09178932951555696,0.35,0,2,0.0
4.913613659000475,186,5901.11,94.2,2.2,62.8,-1.26,-6.19,-0.03,0.35,0.95,-0.16,-180.7,-10.1,-68.0,0.38,0.41,0.11,0.0,1.024987804805501,6.317008785809943,0.01919517672573412,0.35,0,2,0.0
4.925250095000592,187,5901.12,94.0,2.2,63.4,-1.57,-5.07,0.14,0.37,0.92,-0.21,-180.8,-22.9,-120.0,0.39,0.81,0.08,0.0,1.0136074190730848,5.309369077395167,0.029964051208987375,0.35,0,2,0.0
4.933765002000655,188,5901.13,93.9,2.1,63.8,-1.4,-4.09,0.36,0.32,0.88,-0.16,-181.2,-38.2,-151.0,0.4,1.27,0.0,0.0,0.9499473669630334,4.337937297840991,0.09175162125265812,0.35,0,2,0.0
4.945119615000294,189,5901.14,93.8,2.2,64.2,-0.72,-3.62,0.64,0.29,0.85,-0.1,-181.7,-58.3,-194.0,0.42,1.86,0.11,0.0,0.9036592278065886,3.7459845167859407,0.13527896520092086,0.35,0,2,0.0
4.9537990520002495,190,5901.15,93.8,2.2,64.6,0.18,-3.14,0.94,0.26,0.85,-0.12,-182.4,-81.6,-216.0,0.44,2.48,0.24,0.0,0.8969392398596462,3.2826209040947756,0.13915897408490607,0.35,0,2,0.0
4.96521220700015,191,5901.16,93.8,2.3,64.9,0.46,-2.72,1.08,0.23,0.85,-0.12,-183.4,-104.1,-218.0,0.47,3.08,0.16,0.0,0.8887069258197552,2.9624989451474915,0.1444434623623011,0.35,0,2,0.0
4.973899039000571,192,5901.17,93.9,2.4,65.1,0.42,-2.33,1.08,0.19,0.88,-0.1,-184.6,-126.3,-223.0,0.51,3.7,-0.11,0.0,0.9058145505565695,2.6022490272838996,0.12478912087297711,0.35,0,2,0.0
4.985294850000173,193,5901.18,93.9,2.5,65.3,0.06,-2.06,1.04,0.16,0.91,-0.07,-186.0,-146.0,-189.0,0.55,4.15,0.27,0.0,0.92660671268883,2.3084193726444076,0.10191701956590227,0.35,0,2,0.0
4.997823767999762,194,5901.19,93.9,2.7,65.5,-0.35,-1.87,1.03,0.15,0.9,-0.07,-187.6,-161.0,-155.0,0.59,4.53,0.1,0.0,0.9150956234186677,2.163400101691779,0.11115954665934324,0.35,0,2,0.0
5.005735347000154,195,5901.2,93.9,2.8,65.7,-0.71,-1.8,1.04,0.13,0.9,-0.06,-189.3,-172.0,-114.0,0.64,4.78,-0.02,0.0,0.9113177272499422,2.1967475958789624,0.11263869397150739,0.35,0,2,0.0
5.01380341300046,196,5901.21,93.8,3.0,65.9,-0.77,-1.68,1.0,0.13,0.86,-0.08,-191.0,-177.9,-65.0,0.69,4.87,0.06,0.0,0.8734414691323054,2.101261525845843,0.14750465304736138,0.35,0,2,0.0
5.025264982000408,197,5901.22,93.8,3.1,66.1,-0.49,-1.59,0.99,0.13,0.87,-0.08,-192.8,-179.6,-17.0,0.74,4.84,-0.3,0.0,0.8832893070789434,1.93605268523354,0.1349036787987088,0.35,0,2,0.0
5.037645037999937,198,5901.23,93.8,3.2,66.2,-0.12,-1.54,1.01,0.13,0.86,-0.11,-194.6,-174.5,30.0,0.78,4.69,-0.09,0.0,0.8766983517721474,1.8455622449540954,0.13866474142339458,0.35,0,2,0.0
5.045889050000369,199,5901.24,93.8,3.3,66.4,0.24,-1.35,0.95,0.14,0.86,-0.13,-196.3,-167.7,65.0,0.83,4.45,-0.11,0.0,0.8809653795694811,1.6681127060243863,0.1317097593535398,0.35,0,2,0.0
5.0538600230001975,200,5901.25,93.8,3.4,66.5,0.36,-1.17,0.85,0.15,0.88,-0.14,-197.9,-156.0,110.0,0.87,4.07,-0.32,0.0,0.903603895520598,1.4903019828209314,0.10688981853437429,0.35,0,2,0.0
5.065088772000308,201,5901.26,93.9,3.5,66.6,0.24,-0.97,0.69,0.15,0.89,-0.16,-199.3,-140.8,145.0,0.91,3.62,-0.05,0.0,0.916624241442479,1.2143310915891101,0.09199208316024343,0.35,0,2,0.0
5.073790395999822,202,5901.27,93.9,3.5,66.7,0.0,-0.81,0.52,0.17,0.89,-0.16,-200.6,-123.6,163.0,0.94,3.14,-0.19,0.0,0.9201086892318755,0.9625487000666513,0.08673748266342995,0.35,0,2,0.0
5.08521871999983,203,5901.28,93.9,3.6,66.8,-0.17,-0.66,0.37,0.19,0.9,-0.18,-201.8,-106.6,166.0,0.97,2.7,0.05,0.0,0.9372833082905083,0.7754998388136519,0.06817160633270114,0.35,0,2,0.0
5.093576021000445,204,5901.29,93.9,3.6,66.9,-0.39,-0.48,0.21,0.2,0.91,-0.21,-202.7,-90.6,154.0,0.99,2.29,-0.04,0.0,0.9550916186418977,0.6531462317123172,0.04935603006168543,0.35,0,2,0.0
5.1053362800003015,205,5901.3,93.8,3.6,66.9,-0.82,-0.26,0.03,0.21,0.89,-0.23,-203.5,-75.0,160.0,1.01,1.84,0.09,0.0,0.9429209935090002,0.8607554821202128,0.06029612209069124,0.35,0,2,0.0
5.113750176000394,206,5901.31,93.7,3.6,66.9,-1.7,0.07,-0.27,0.23,0.85,-0.24,-204.2,-61.1,132.0,1.03,1.53,-0.04,0.0,0.9126883367283707,1.7227303909782286,0.08871820329389424,0.35,0,2,0.0
5.1251774000002115,207,5901.32,93.5,3.5,66.9,-2.56,0.45,-0.6,0.25,0.8,-0.25,-204.7,-51.3,108.0,1.04,1.27,0.06,0.0,0.8746427842267951,2.6676019193275446,0.1242284806795605,0.35,0,2,0.0
5.133696136999788,208,5901.33,93.2,3.5,66.8,-2.98,0.9,-0.96,0.28,0.75,-0.25,-205.2,-42.6,81.0,1.05,1.09,0.23,0.0,0.8386894538504702,3.257606483294138,0.15697817483476761,0.35,0,2,0.0
5.145350535000034,209,5901.34,92.9,3.4,66.7,-2.88,1.33,-1.15,0.3,0.74,-0.25,-205.5,-38.5,39.0,1.06,1.06,0.04,0.0,0.8367197858303579,3.374285109471338,0.15576888599778238,0.35,0,2,0.0
5.153817979000451,210,5901.35,92.6,3.2,66.5,-2.2,1.92,-1.16,0.28,0.72,-0.27,-205.9,-39.6,7.0,1.08,1.08,0.03,0.0,0.8183520025025905,3.141973901864877,0.17065393593903877,0.35,0,2,0.0
5.165224688000308,211,5901.36,92.4,3.2,66.3,-0.97,2.55,-1.01,0.23,0.7,-0.27,-206.3,-41.2,-20.0,1.09,1.19,0.19,0.0,0.7847292526725379,2.909209514627642,0.20019115205370963,0.35,0,2,0.0
5.173743891000413,212,5901.37,92.4,3.1,66.0,0.71,2.88,-0.87,0.17,0.7,-0.24,-206.8,-49.3,-78.0,1.1,1.49,0.1,0.0,0.7592759709091286,3.09118100408242,0.2211315451407766,0.35,0,2,0.0
5.185414519000005,213,5901.38,92.6,3.0,65.7,2.38,2.9,-0.82,0.11,0.72,-0.23,-207.4,-63.8,-130.0,1.12,1.92,-0.1,0.0,0.7638062581571323,3.840156246821215,0.21226923273491738,0.35,0,2,0.0
5.193527219000316,214,5901.39,92.9,2.9,65.4,3.59,2.73,-0.8,0.09,0.8,-0.2,-208.1,-81.3,-170.0,1.14,2.45,0.05,0.0,0.8295179322956197,4.580502155877672,0.1436264074245015,0.35,0,2,0.0
5.205913876000523,215,5901.4,93.2,2.9,65.2,4.08,2.53,-0.64,0.07,0.92,-0.18,-209.1,-101.1,-185.0,1.17,2.98,0.11,0.0,0.9400531899844817,4.84323239169875,0.03242932674092669,0.35,0,2,0.0
5.213741182999911,216,5901.41,93.7,2.8,64.9,4.04,2.35,-0.46,0.04,1.0,-0.15,-210.2,-120.6,-198.0,1.2,3.54,0.01,0.0,1.0119782606360672,4.696349646267834,0.03870582903244557,0.35,0,2,0.0
5.225255979999929,217,5901.42,94.1,2.8,64.7,3.77,1.97,-0.35,0.02,1.08,-0.1,-211.6,-142.6,-213.0,1.24,4.15,-0.02,0.0,1.0848041297856494,4.268055763459516,0.10930106421838726,0.35,0,2,0.0
5.233730574000219,218,5901.43,94.4,2.8,64.5,3.08,1.51,-0.35,0.02,1.1,-0.12,-213.2,-163.4,-202.0,1.29,4.67,0.04,0.0,1.1067068265805537,3.448042923166706,0.1285796857930257,0.35,0,2,0.0
5.245256142000471,219,5901.44,94.7,2.7,64.4,1.76,1.07,-0.47,0.02,1.08,-0.2,-214.9,-181.0,-180.0,1.34,5.12,0.08,0.0,1.0985444915887568,2.112676028169014,0.11800900378520418,0.35,0,2,0.0
5.25376303900066,220,5901.45,94.8,2.7,64.3,0.54,0.97,-0.68,0.06,1.04,-0.31,-216.9,-195.3,-139.0,1.39,5.43,0.1,0.0,1.0868762579061153,1.3018832512940628,0.10421395470051142,0.35,0,2,0.0
5.265159837999818,221,5901.46,94.8,2.6,64.2,0.27,1.23,-0.79,0.11,1.08,-0.33,-218.9,-204.0,-92.0,1.45,5.61,-0.21,0.0,1.1346365056704284,1.4865732407116712,0.14893471841552808,0.35,0,2,0.0
5.273788883000634,222,5901.47,94.9,2.5,64.0,0.74,1.44,-0.63,0.1,1.09,-0.27,-220.9,-209.3,-63.0,1.5,5.75,-0.07,0.0,1.1273863579093018,1.7372679701185998,0.13885087924131345,0.35,0,2,0.0
5.284967145999872,223,5901.48,95.0,2.5,63.9,1.46,1.49,-0.35,0.1,1.17,-0.22,-223.1,-213.2,-47.0,1.56,5.85,0.12,0.0,1.1946966142079753,2.1152304838953127,0.20203791282918726,0.35,0,2,0.0
5.293721881000238,224,5901.49,95.2,2.5,63.7,1.81,1.38,0.25,0.06,1.25,-0.23,-225.2,-219.3,-65.0,1.62,6.05,0.08,0.0,1.2723993083933989,2.2897598127314573,0.27414579487431856,0.35,0,2,0.0
5.305107144000431,225,5901.5,95.4,2.6,63.6,1.93,1.15,0.88,0.02,1.25,-0.25,-227.5,-226.7,-74.0,1.68,6.27,0.18,0.0,1.2749117616525467,2.4128406495249535,0.271125083170797,0.35,0,2,0.0
5.329626964000454,227,5901.52,96.0,2.8,63.4,2.39,0.97,1.82,0.0,1.4,-0.15,-232.2,-246.3,-111.0,1.82,6.86,0.03,0.0,1.4080127840328722,3.1568021794214474,0.3961415834401001,0.35,1,3,3.0
5.337751195000237,228,5901.53,96.2,3.0,63.4,2.44,0.83,2.38,-0.06,1.52,-0.04,-234.8,-263.0,-156.0,1.89,7.37,0.01,0.0,1.5217095649301806,3.5081191541907466,0.49964159705066025,0.35,0,3,3.0
5.3457978410006035,229,5901.54,96.4,3.3,63.3,2.13,0.32,2.96,-0.09,1.64,0.09,-237.5,-278.5,-136.0,1.96,7.69,0.08,3.49,1.6449316095205904,3.66072397211262,0.6104063688082486,0.35,0,3,3.0
5.353597033000369,230,5901.55,96.6,3.6,63.4,0.69,-0.51,3.62,-0.09,1.68,0.15,-240.1,-222.2,714.0,2.02,4.08,2.99,3.49,1.6890825912311096,3.7202956871732655,0.6414662035083925,0.35,0,3,3.0
5.365844552000453,231,5901.56,96.5,4.0,63.5,-1.61,-1.08,3.86,-0.06,1.5,0.06,-241.2,-74.1,1185.0,2.03,0.32,2.93,3.49,1.5023980830658699,4.319502286143625,0.44568606143628964,0.35,0,3,3.0
5.373868261000098,232,5901.57,96.3,4.4,63.7,-3.35,-1.16,3.29,0.06,1.19,0.02,-241.2,33.6,861.0,2.02,-1.37,3.58,3.49,1.1916794871105234,4.836548356007619,0.1322681161713244,0.35,0,3,3.0
5.3853502840001966,233,5901.58,95.9,4.6,63.8,-4.01,-0.71,2.33,0.26,1.04,-0.03,-240.7,44.2,222.0,2.01,-0.96,3.4,3.49,1.0724271537032248,4.691812016694616,0.01275546710874531,0.35,0,3,3.0
5.393847830000595,234,5901.59,95.5,4.8,63.9,-4.36,-0.78,1.49,0.42,1.04,0.05,-240.4,26.4,-10.0,2.0,-0.61,3.52,3.49,1.1227199116431488,4.673125292563854,0.0617872605476959,0.35,0,3,3.0
5.40519073500036,235,5901.6,95.1,4.9,63.9,-3.71,1.19,0.9,0.6,0.98,-0.18,-240.2,22.2,-11.0,2.0,-0.59,3.43,3.49,1.1630993078838967,3.9987748123644073,0.10012332365267507,0.35,0,3,3.0
5.413909654000236,236,5901.61,94.7,5.0,63.6,-3.05,3.24,0.64,0.6,0.96,-0.08,-240.0,20.0,-32.0,1.99,-0.47,3.43,3.49,1.1349008767288886,4.495519992169982,0.07048639464771367,0.35,0,3,3.0
5.425255611000466,237,5901.62,94.4,5.1,63.2,-2.4,4.62,0.74,0.48,0.92,0.05,-239.8,13.2,-69.0,1.99,-0.21,3.5,3.49,1.0388936422945325,5.258516901180408,0.02501042299090961,0.35,0,3,3.0
5.4338144499997725,238,5901.63,94.2,5.3,62.7,-0.78,5.86,1.07,0.27,0.81,0.05,-239.7,2.4,-81.0,1.99,0.0,3.5,3.49,0.8552777326693359,6.007736678650289,0.20445380596378415,0.35,0,3,3.0
5.445039674999862,239,5901.64,94.1,5.4,62.1,0.6,6.51,1.2,0.13,0.88,0.09,-239.7,0.1,-31.0,1.99,0.0,3.54,3.49,0.8940917178902844,6.646811265561856,0.16232702432797896,0.35,0,3,3.0
5.453276836000441,240,5901.65,94.2,5.6,61.4,1.36,6.69,1.52,0.03,0.92,0.18,-239.7,1.6,13.0,1.99,-0.1,3.33,3.49,0.9379232377972091,6.9940045753488045,0.11612559433263314,0.35,0,3,3.0
5.464873986000384,241,5901.66,94.3,5.8,60.8,1.64,6.24,1.64,0.0,0.95,0.22,-239.6,19.7,186.0,1.98,-0.92,3.43,3.49,0.9751410154434075,6.657086449791681,0.07732966035270605,0.35,0,3,3.0
5.47760194500006,242,5901.67,94.4,6.0,60.2,1.29,5.57,1.37,0.02,0.95,0.22,-239.2,55.7,342.0,1.97,-2.12,3.12,3.49,0.9753460924205315,5.879277166455074,0.07558209170807029,0.35,0,3,3.0
5.485829590000321,243,5901.68,94.4,6.2,59.7,0.52,4.82,0.79,0.0,0.93,0.18,-238.3,111.9,493.0,1.94,-3.65,3.09,3.49,0.9472592042308167,4.911914087196559,0.10159560029982939,0.35,0,3,3.0
5.497890999999981,244,5901.69,94.4,6.2,59.3,-0.07,4.15,0.07,-0.02,0.91,0.13,-236.7,173.2,581.0,1.88,-5.48,3.47,3.49,0.9194563611178075,4.151180554974693,0.12681047454458172,0.35,0,3,3.0
5.509808988999794,245,5901.7,94.3,6.2,58.9,-0.1,3.57,-0.58,-0.06,0.89,0.11,-234.5,237.3,603.0,1.82,-7.14,3.41,3.49,0.8987769467448529,3.618190155312459,0.14454009113918553,0.35,0,3,0.0
5.51783399299984,246,5901.71,94.3,6.2,58.5,0.0,3.12,-1.1,-0.08,0.85,0.08,-231.8,293.1,553.0,1.73,-8.63,3.55,3.49,0.857496355677387,3.308232156303424,0.18210426856251838,0.35,0,3,0.0
5.529888801000197,247,5901.72,94.3,6.1,58.2,0.2,2.74,-1.43,-0.07,0.85,0.06,-228.5,344.7,530.0,1.64,-9.98,1.69,0.0,0.8549853799919622,3.097176133189716,0.18092293936298431,0.35,0,3,0.0
5.537657358000615,248,5901.73,94.3,5.9,58.0,0.26,2.48,-1.59,-0.03,0.86,0.03,-225.0,322.9,-394.0,1.55,-7.36,0.46,0.0,0.8610458756651703,2.9573805977587666,0.17136519481598078,0.35,0,3,0.0
5.545891739000581,249,5901.74,94.3,5.8,57.7,0.41,2.22,-1.65,0.02,0.85,0.02,-222.5,214.5,-739.0,1.5,-4.82,0.34,0.0,0.8504704580407245,2.7962474854704835,0.17830180019161812,0.35,0,3,0.0
5.553814109000086,250,5901.75,94.3,5.6,57.5,0.85,2.08,-1.77,0.1,0.87,-0.03,-220.9,141.9,-683.0,1.46,-3.06,0.11,0.0,0.8762419757121888,2.8603845895263804,0.14947967686975072,0.35,0,3,0.0
5.564939648000291,251,5901.76,94.3,5.5,57.3,0.95,2.27,-1.78,0.11,0.88,-0.09,-219.8,96.8,-463.0,1.44,-2.26,0.17,0.0,0.891403387922662,3.0370709573534826,0.131631899366092,0.35,0,3,0.0
5.573745421999774,252,5901.77,94.4,5.3,57.0,0.76,2.53,-1.69,0.09,0.91,-0.12,-219.0,73.6,-268.0,1.42,-1.83,0.23,0.0,0.9222797840135064,3.136016581588815,0.0987403932097426,0.35,0,3,0.0
5.585244939999939,253,5901.78,94.5,5.2,56.7,0.49,2.7,-1.45,0.06,0.92,-0.11,-218.3,66.4,-99.0,1.4,-1.84,-0.03,0.0,0.9284934033152847,3.1036430207096948,0.09067623842980499,0.35,0,3,0.0
5.593682185000034,254,5901.79,94.5,5.1,56.5,0.36,2.7,-1.16,0.01,0.91,-0.1,-217.6,73.2,37.0,1.38,-2.15,-0.08,0.0,0.9155326318597279,2.9606080456554866,0.10156426968765464,0.35,0,3,0.0
5.605236314000649,255,5901.8,94.6,4.9,56.2,0.3,2.57,-0.89,-0.01,0.91,-0.1,-216.8,90.3,153.0,1.35,-2.77,-0.05,0.0,0.9155326318597279,2.736238293716393,0.09953298429390145,0.35,0,3,0.0
5.613807292999809,256,5901.81,94.6,4.8,55.9,0.29,2.33,-0.62,-0.03,0.91,-0.08,-215.7,112.0,192.0,1.32,-3.31,-0.11,0.0,0.9140021881811882,2.428456299792113,0.09904215941299244,0.35,0,3,0.0
5.625116746000458,257,5901.82,94.6,4.8,55.7,0.19,1.99,-0.45,-0.06,0.9,-0.09,-214.4,134.6,220.0,1.28,-3.94,-0.13,0.0,0.9064766957842877,2.0490729611216874,0.10443629877369498,0.35,0,3,0.0
5.6336081930003274,258,5901.83,94.6,4.7,55.5,0.17,1.7,-0.38,-0.09,0.89,-0.08,-213.0,157.3,222.0,1.24,-4.55,-0.2,0.0,0.8981091247727082,1.750228556503407,0.11054779238956902,0.35,0,3,0.0
5.6451528380002856,259,5901.84,94.6,4.7,55.4,0.1,1.31,-0.38,-0.11,0.9,-0.07,-211.3,181.3,235.0,1.2,-5.19,0.03,0.0,0.9093954035511727,1.367662239004938,0.0972762833388825,0.35,0,3,0.0
5.653837316000136,260,5901.85,94.6,4.7,55.3,-0.21,0.88,-0.43,-0.12,0.9,-0.07,-209.2,206.9,250.0,1.13,-5.95,-0.02,0.0,0.910659101969557,1.0016985574512924,0.0940923332220881,0.35,0,3,0.0
5.665118173999872,261,5901.86,94.5,4.6,55.2,-0.41,0.46,-0.48,-0.12,0.91,-0.08,-206.9,232.1,242.0,1.06,-6.61,0.0,0.0,0.9213576938409967,0.7810889834071404,0.08172586652363545,0.35,0,3,0.0
5.673818953000591,262,5901.87,94.5,4.6,55.2,-0.61,0.1,-0.48,-0.1,0.92,-0.1,-204.5,253.3,221.0,1.0,-7.14,-0.11,0.0,0.9308061022576077,0.7826237921249264,0.07083190894488389,0.35,0,3,0.0
5.684805447000144,263,5901.88,94.4,4.6,55.2,-0.73,-0.13,-0.42,-0.08,0.91,-0.13,-201.8,276.7,242.0,0.92,-7.85,-0.03,0.0,0.9227133899537819,0.8521736912155878,0.07734612882373548,0.35,0,3,0.0
5.693669717000375,264,5901.89,94.3,4.5,55.2,-0.87,-0.32,-0.3,-0.07,0.91,-0.13,-198.9,303.8,261.0,0.83,-8.59,-0.04,0.0,0.9219002115196634,0.9743202758846805,0.07659612111269698,0.35,0,3,0.0
5.705230167000082,265,5901.9,94.2,4.5,55.2,-1.15,-0.52,-0.1,-0.06,0.9,-0.13,-195.6,326.0,223.0,0.75,-9.1,-0.02,0.0,0.9113177272499422,1.2660568707605515,0.08543503327476976,0.35,0,3,0.0
5.7138042240003415,266,5901.91,94.1,4.5,55.3,-1.26,-0.72,0.18,-0.06,0.9,-0.14,-192.3,346.4,215.0,0.66,-9.68,-0.21,0.0,0.9127978965795221,1.462326912834473,0.082275766666286,0.35,0,3,0.0
5.725174676000279,267,5901.92,94.0,4.5,55.4,-1.21,-0.93,0.5,-0.06,0.88,-0.15,-188.7,368.7,224.0,0.55,-10.32,-0.04,0.0,0.8947066558375432,1.6059265238484606,0.0983596672600997,0.35,0,3,0.0
5.73371541600045,268,5901.93,93.9,4.6,55.5,-0.86,-1.13,0.73,-0.05,0.85,-0.17,-184.9,393.9,250.0,0.46,-11.0,-0.13,0.0,0.8682741502543997,1.5966840639274882,0.12229632938637836,0.35,0,3,0.0
5.74519463300021,269,5901.94,93.9,4.7,55.6,-0.15,-1.34,0.86,-0.02,0.84,-0.18,-180.7,424.5,271.0,0.33,-11.85,0.08,0.0,0.8593020423576333,1.59928108848945,0.12864306853748186,0.35,0,3,0.0
5.753722211000422,270,5901.95,93.9,4.7,55.8,0.28,-1.57,1.02,0.0,0.84,-0.21,-176.3,445.3,219.0,0.22,-12.32,-0.08,0.0,0.8658521813797087,1.8930662957223658,0.11965107092509841,0.35,0,3,0.0
5.765222298000481,271,5901.96,94.0,4.8,55.9,0.57,-1.61,1.04,0.03,0.83,-0.24,-171.6,472.0,258.0,0.08,-13.13,-0.03,0.0,0.8645229898620395,1.9996499693696397,0.11856065719391229,0.35,0,3,0.0
5.773878539000179,272,5901.97,94.0,4.9,56.1,0.78,-1.52,0.98,0.03,0.84,-0.24,-166.8,487.9,166.0,-0.03,-13.4,-0.02,0.0,0.8741281370600079,1.9695684806576288,0.10677639979602493,0.35,0,3,0.0
5.785116089000439,273,5901.98,94.1,5.0,56.3,0.9,-1.37,0.89,0.01,0.87,-0.22,-161.7,510.9,211.0,-0.19,-14.1,-0.06,0.0,0.897440805847383,1.8652077632263921,0.08179445638847693,0.35,0,3,0.0
5.793742019000092,274,5901.99,94.3,5.1,56.4,1.04,-1.3,0.85,0.0,0.9,-0.18,-156.5,523.2,136.0,-0.33,-14.35,-0.04,0.0,0.9178235124467012,1.8692511869730084,0.06018351479337547,0.35,0,3,0.0
5.805340327000522,275,5902.0,94.4,5.2,56.5,1.46,-1.32,0.77,0.01,0.91,-0.17,-151.3,535.4,123.0,-0.46,-14.66,-0.02,0.0,0.9257969539807311,2.1135041991914756,0.05116587179415866,0.35,0,3,0.0
5.813824632999967,276,5902.01,94.6,5.2,56.7,1.68,-1.33,0.62,0.01,0.92,-0.18,-146.9,539.6,52.0,-0.62,-14.53,0.11,0.0,0.9374966666607407,2.2306277143441036,0.038676835931866105,0.35,0,3,0.0
5.825243999000122,277,5902.02,94.7,5.3,56.8,1.36,-1.13,0.51,-0.05,0.95,-0.19,-140.6,495.1,-477.0,-0.75,-12.33,0.25,0.0,0.9701030873056739,1.8402717190675946,0.005949006981194271,0.35,0,3,0.0
5.833691703000113,278,5902.03,94.8,5.3,56.9,0.61,-0.89,0.48,-0.11,0.96,-0.17,-136.4,394.3,-881.0,-0.86,-9.3,0.67,0.0,0.9811218069128828,1.180931835458762,0.004968318373494318,0.35,0,3,0.0
5.845231535000494,279,5902.04,94.9,5.3,57.0,0.33,-1.08,0.31,-0.05,0.94,-0.17,-133.2,270.8,-1156.0,-0.92,-5.72,0.52,0.0,0.9565563234854495,1.1710678887237922,0.019205221752860213,0.35,0,3,0.0
5.853764313999818,280,5902.05,95.0,5.3,57.1,0.73,-1.19,0.08,0.06,0.95,-0.24,-131.5,132.9,-1316.0,-0.95,-1.9,0.55,0.0,0.9816822296446035,1.398356177803066,0.005802270718167857,0.35,0,3,0.0
5.865242300999853,281,5902.06,95.1,5.3,57.2,0.92,-1.14,0.03,0.11,1.0,-0.31,-131.1,3.0,-1186.0,-0.95,1.06,0.27,0.0,1.0527107864936125,1.4652303573158727,0.07529421101583333,0.35,0,3,0.0
5.873790938000639,282,5902.07,95.1,5.3,57.4,0.44,-1.12,0.26,0.11,1.05,-0.33,-131.6,-69.4,-785.0,-0.93,2.54,0.2,0.0,1.1061193425666147,1.2310970717209915,0.12612871174705886,0.35,0,3,0.0
5.885046207000414,283,5902.08,95.2,5.4,57.5,0.01,-1.11,0.58,0.03,1.02,-0.28,-132.7,-122.3,-614.0,-0.89,3.95,0.18,0.0,1.058158778255891,1.2524376231972594,0.07660478448760843,0.35,0,3,0.0
5.893813810000211,284,5902.09,95.2,5.4,57.6,0.52,-1.59,0.49,0.0,0.99,-0.24,-134.3,-174.5,-563.0,-0.85,5.43,0.16,0.0,1.0186756107809787,1.743158053648607,0.036379184672442166,0.35,0,3,0.0
5.905246033000367,285,5902.1,95.3,5.4,57.8,1.84,-1.74,-0.01,0.01,1.0,-0.28,-136.4,-231.1,-571.0,-0.78,6.99,0.23,0.0,1.0385085459446157,2.5324494071945445,0.05508787743935761,0.35,0,3,0.0
5.91378168600022,286,5902.11,95.6,5.4,57.9,3.08,-1.55,-0.84,0.03,1.06,-0.31,-139.1,-288.9,-572.0,-0.7,8.55,0.27,0.0,1.1048076755707303,3.548873060564438,0.11895926692416281,0.35,0,3,0.0
5.925157990000116,287,5902.12,96.0,5.2,58.1,3.23,-1.35,-1.57,0.08,1.17,-0.29,-142.4,-343.3,-529.0,-0.6,9.91,0.13,0.0,1.2080562900792329,3.8367043149036126,0.217763723804012,0.35,0,3,0.0
5.933810427000026,288,5902.13,96.3,5.0,58.2,2.18,-1.32,-1.94,0.09,1.22,-0.26,-146.1,-382.7,-374.0,-0.5,10.67,0.07,0.0,1.2506398362438325,3.202873709655128,0.2551403245692393,0.35,0,3,0.0
5.945120455000506,289,5902.14,96.5,4.8,58.3,1.5,-1.34,-2.03,0.09,1.18,-0.22,-150.1,-399.4,-212.0,-0.39,10.99,-0.01,0.0,1.2037026210821342,2.857708872506085,0.20403904721939026,0.35,0,3,0.0
5.953879733000576,290,5902.15,96.7,4.6,58.4,1.81,-1.48,-2.05,0.12,1.16,-0.19,-154.1,-404.4,-71.0,-0.28,10.95,-0.24,0.0,1.1815667564721004,3.1095015677757747,0.17826511895716934,0.35,0,3,0.0
5.965456400000221,291,5902.16,97.0,4.4,58.5,2.56,-1.21,-2.08,0.13,1.2,-0.13,-158.1,-398.4,30.0,-0.17,10.71,-0.16,0.0,1.2140016474453401,3.51341714005041,0.20648600973180087,0.35,0,3,0.0
5.973745004000193,292,5902.17,97.2,4.2,58.6,3.16,-0.97,-2.48,0.13,1.26,-0.03,-162.0,-384.5,143.0,-0.07,10.12,0.04,0.0,1.2670438035048355,4.132420598148258,0.2543376024754702,0.35,0,3,0.0
5.985163000000284,293,5902.18,97.6,3.9,58.7,3.92,-0.62,-3.18,0.2,1.37,0.01,-165.6,-349.8,317.0,0.02,8.99,-0.02,0.0,1.3845576911057191,5.085587478354885,0.3644144602748267,0.35,0,4,0.0
5.99381872000049,294,5902.19,98.0,3.5,58.6,4.17,-0.22,-3.76,0.31,1.54,0.06,-168.9,-311.6,339.0,0.1,8.04,0.01,0.0,1.5720368952413297,5.619154740706114,0.5408557911222285,0.35,0,4,0.0
6.005787539999801,295,5902.2,98.3,3.2,58.6,2.09,0.15,-3.44,0.25,1.7,0.09,-171.7,-274.6,381.0,0.17,6.95,-0.16,0.0,1.7206394160311451,4.027927506795523,0.6756691456738031,0.35,0,4,0.0
6.013811202999932,296,5902.21,98.4,2.9,58.5,-0.15,-0.13,-2.49,0.03,1.47,0.14,-174.2,-231.7,415.0,0.23,5.76,-0.12,0.0,1.4769563297538624,2.497899117258341,0.42334633820859,0.35,0,4,0.0
6.025189101999786,297,5902.22,98.3,2.7,58.6,-1.05,-0.98,-1.57,-0.14,1.28,0.23,-176.2,-189.3,414.0,0.28,4.65,-0.17,0.0,1.3080137613954985,2.127862777530544,0.24931569445322155,0.35,0,4,0.0
6.033685788000184,298,5902.23,98.2,2.5,58.7,-1.08,-2.29,-0.74,-0.23,1.14,0.27,-177.8,-148.9,397.0,0.32,3.59,-0.14,0.0,1.193901168438996,2.6378210705049727,0.13249903946678465,0.35,0,4,0.0
6.045356425000136,299,5902.24,98.1,2.5,59.0,-1.01,-3.55,-0.02,-0.26,1.03,0.3,-178.9,-114.6,385.0,0.35,2.49,-0.1,0.0,1.103856874780422,3.690934840931224,0.0416056508920466,0.35,0,4,0.0
6.053835875000004,300,5902.25,98.0,2.4,59.4,-1.2,-4.59,0.38,-0.3,0.93,0.29,-179.9,-76.2,347.0,0.37,1.68,-0.11,0.0,1.0193134944657607,4.759464255564906,0.042078974834162564,0.35,0,4,0.0
6.065274159000182,301,5902.26,97.9,2.4,59.9,-1.55,-5.49,0.36,-0.29,0.84,0.27,-180.4,-45.7,309.0,0.38,0.89,-0.29,0.0,0.9287626176801044,5.7159601118272345,0.1299772545874226,0.35,0,4,0.0
6.073737182000514,302,5902.27,97.8,2.3,60.5,-1.55,-6.26,-0.09,-0.19,0.82,0.17,-180.7,-23.2,221.0,0.39,0.44,0.01,0.0,0.8587199776411399,6.449666658052957,0.1960194967338592,0.35,0,4,0.0
6.085144843999842,303,5902.28,97.6,2.2,61.2,-2.0,-6.43,-0.48,-0.05,0.87,0.05,-180.9,-9.3,157.0,0.39,0.12,-0.17,0.0,0.8728688332160794,6.750948081566025,0.1782332283357413,0.35,0,4,0.0
6.093762649000382,304,5902.29,97.4,2.1,61.8,-2.83,-6.14,-0.69,0.07,0.93,-0.02,-180.9,-1.3,96.0,0.39,-0.03,-0.06,0.0,0.9328451104015072,6.795925249736051,0.11589181212730737,0.35,0,4,0.0
6.105227555000056,305,5902.3,97.1,1.9,62.4,-3.1,-5.52,-0.8,0.21,0.91,-0.07,-180.9,2.2,40.0,0.39,-0.05,0.17,0.0,0.9365361712181757,6.381253795297598,0.10995673628442604,0.35,0,4,0.0
6.113868227000239,306,5902.31,96.8,1.8,62.9,-2.86,-4.86,-0.77,0.31,0.95,-0.08,-180.9,0.2,-6.0,0.39,0.03,0.02,0.0,1.002496882788171,5.691405801732995,0.043116104220142004,0.35,0,4,0.0
6.125197274000129,307,5902.32,96.5,1.6,63.3,-2.75,-4.05,-0.64,0.38,0.91,-0.16,-180.9,-2.5,-13.0,0.39,0.07,0.02,0.0,0.9990495483208027,4.937063904791997,0.04563216991376018,0.35,0,4,0.0
6.133714051000425,308,5902.33,96.3,1.6,63.6,-2.25,-2.94,-0.35,0.38,0.93,-0.2,-180.9,-3.3,-13.0,0.39,0.11,-0.06,0.0,1.02435345462394,3.718682562413737,0.01992169833841051,0.35,0,4,0.0
6.145304661999944,309,5902.34,96.1,1.5,63.9,-1.69,-2.07,0.03,0.34,0.89,-0.17,-181.0,-6.0,-31.0,0.39,0.23,0.0,0.0,0.9677809669548167,2.6724333480930818,0.07496430228738293,0.35,0,4,0.0
6.1538914299999306,310,5902.35,96.0,1.5,64.0,-0.73,-1.57,0.41,0.27,0.86,-0.13,-181.1,-12.8,-75.0,0.4,0.51,0.0,0.0,0.9107140056021977,1.7792976142287158,0.129390638367202,0.35,0,4,0.0
6.165271574000144,311,5902.36,96.0,1.6,64.2,0.34,-1.28,0.63,0.22,0.89,-0.09,-181.3,-28.2,-142.0,0.4,0.99,-0.02,0.0,0.9211948762341223,1.466594695203825,0.11653157238057188,0.35,0,4,0.0
6.173761243000627,312,5902.37,96.0,1.6,64.3,0.38,-1.1,0.77,0.18,0.91,-0.1,-181.7,-46.4,-169.0,0.42,1.5,-0.01,0.0,0.9330058949438638,1.3954569144190732,0.10262614259741376,0.35,0,4,0.0
6.185215934000553,313,5902.38,96.1,1.7,64.4,0.02,-1.0,0.71,0.13,0.92,-0.08,-182.3,-63.7,-165.0,0.44,1.91,0.08,0.0,0.9325770745627409,1.2265806129235861,0.10099386371896601,0.35,0,4,0.0
6.193758829000217,314,5902.39,96.0,1.8,64.5,-0.75,-0.97,0.57,0.11,0.93,-0.09,-183.1,-78.2,-152.0,0.46,2.32,-0.07,0.0,0.9407975340103736,1.3521464417732274,0.09091793618590671,0.35,0,4,0.0
6.205093341000065,315,5902.4,95.9,1.9,64.6,-1.43,-1.0,0.41,0.09,0.93,-0.08,-183.9,-91.3,-128.0,0.48,2.6,-0.1,0.0,0.9377632963600143,1.7924843095547587,0.09207313035954068,0.35,0,4,0.0
6.213838890000261,316,5902.41,95.7,2.0,64.7,-1.85,-0.99,0.32,0.1,0.92,-0.1,-184.9,-102.7,-110.0,0.51,2.9,0.17,0.0,0.9308061022576077,2.1224985276791126,0.09704971797270834,0.35,0,4,0.0
6.225135274000422,317,5902.42,95.6,2.0,64.8,-1.77,-0.84,0.3,0.12,0.92,-0.12,-186.0,-109.7,-79.0,0.54,3.05,0.0,0.0,0.93552124508212,1.9820443990990717,0.09048788364523208,0.35,0,4,0.0
6.233729061000304,318,5902.43,95.4,2.1,64.9,-1.4,-0.61,0.31,0.14,0.92,-0.13,-187.1,-113.5,-44.0,0.57,3.11,-0.05,0.0,0.9396275858019495,1.558268269586466,0.08465391206689443,0.35,0,4,0.0
6.245146489000035,319,5902.44,95.3,2.1,65.0,-1.16,-0.38,0.34,0.15,0.93,-0.14,-188.3,-113.6,-3.0,0.61,3.05,-0.17,0.0,0.9523654760647301,1.2671227249165726,0.07047770136803144,0.35,0,4,0.0
6.2538099040002635,320,5902.45,95.2,2.2,65.0,-1.01,-0.14,0.43,0.16,0.94,-0.16,-189.4,-110.4,28.0,0.63,2.93,-0.16,0.0,0.9668505572217455,1.1066164647247936,0.05487276780679562,0.35,0,4,0.0
6.26518010700056,321,5902.46,95.1,2.2,65.0,-0.94,0.1,0.57,0.16,0.94,-0.15,-190.4,-105.0,54.0,0.66,2.76,-0.05,0.0,0.9652460826131334,1.1038568747804218,0.05534769756709956,0.35,0,4,0.0
6.273848571000599,322,5902.47,95.0,2.3,65.0,-0.8,0.25,0.67,0.14,0.91,-0.15,-191.4,-96.1,79.0,0.69,2.49,-0.14,0.0,0.9328451104015071,1.0730330842988953,0.08599369638315124,0.35,0,4,0.0
6.285062390999883,323,5902.48,94.9,2.3,65.0,-0.65,0.31,0.73,0.11,0.9,-0.14,-192.4,-89.0,65.0,0.71,2.35,-0.09,0.0,0.9174420962654809,1.025426740435415,0.09936877630879393,0.35,0,4,0.0
6.293810199999825,324,5902.49,94.9,2.4,64.9,-0.6,0.22,0.75,0.09,0.89,-0.15,-193.2,-81.4,80.0,0.73,2.09,-0.04,0.0,0.907028114227999,0.9853425800197615,0.10758710317935027,0.35,0,4,0.0
6.305184752000059,325,5902.5,94.8,2.5,64.9,-0.6,0.12,0.72,0.08,0.88,-0.17,-194.0,-73.1,87.0,0.75,1.85,0.03,0.0,0.8998333178983761,0.9448809448814174,0.1124862615187937,0.35,0,4,0.0
6.313779298000554,326,5902.51,94.7,2.6,64.9,-0.88,-0.02,0.58,0.07,0.86,-0.18,-194.6,-65.0,73.0,0.77,1.69,-0.1,0.0,0.8814193099768123,1.054134716248355,0.1282822640515503,0.35,0,4,0.0
6.325078666000081,327,5902.52,94.6,2.6,64.9,-1.41,-0.13,0.36,0.08,0.81,-0.2,-195.3,-60.1,53.0,0.79,1.57,-0.03,0.0,0.8381527307120106,1.46102703602637,0.16811786645002502,0.35,0,4,0.0
6.3337290320005195,328,5902.53,94.4,2.6,65.0,-2.06,-0.19,0.01,0.12,0.76,-0.23,-195.8,-54.6,56.0,0.8,1.42,-0.16,0.0,0.8030566605165541,2.068767749168572,0.19914965791257178,0.35,0,4,0.0
6.345113744000628,329,5902.54,94.2,2.6,65.0,-2.55,-0.07,-0.37,0.16,0.74,-0.26,-196.3,-49.9,51.0,0.82,1.29,0.15,0.0,0.80049984384758,2.5776539721227127,0.19767234508991494,0.35,0,4,0.0
6.353785383999821,330,5902.55,93.9,2.6,65.0,-2.58,0.22,-0.66,0.2,0.74,-0.28,-196.8,-45.6,39.0,0.83,1.21,-0.05,0.0,0.8160882305241266,2.6721526902480703,0.17844227924510092,0.35,0,4,0.0
6.365143762000116,331,5902.56,93.7,2.5,64.9,-1.92,0.64,-0.82,0.23,0.77,-0.31,-197.2,-44.0,15.0,0.84,1.2,0.16,0.0,0.8613361713059541,2.183666641225258,0.130530451694008,0.35,0,4,0.0
6.373839335999946,332,5902.57,93.6,2.4,64.8,-0.69,1.09,-0.8,0.23,0.83,-0.29,-197.7,-46.6,-23.0,0.85,1.33,-0.16,0.0,0.9087904048789247,1.5179591562357666,0.08141469375861665,0.35,0,4,0.0
6.385114213000634,333,5902.58,93.6,2.3,64.7,0.3,1.31,-0.65,0.18,0.88,-0.22,-198.2,-50.3,-24.0,0.87,1.39,0.13,0.0,0.9247702417357513,1.4928496240412161,0.06412615976375424,0.35,0,4,0.0
6.393842303000383,334,5902.59,93.6,2.3,64.6,0.64,1.34,-0.54,0.13,0.91,-0.19,-198.7,-53.2,-32.0,0.88,1.5,-0.13,0.0,0.938669270829721,1.5801265772082944,0.049222588056388905,0.35,0,4,0.0
6.405234007000217,335,5902.6,93.7,2.3,64.4,0.35,1.42,-0.47,0.09,0.91,-0.18,-199.3,-58.7,-57.0,0.9,1.69,0.01,0.0,0.9319871243745806,1.5361640537390528,0.05478663982129861,0.35,0,4,0.0
6.41380763899997,336,5902.61,93.7,2.2,64.3,0.1,1.46,-0.47,0.05,0.87,-0.18,-199.9,-68.3,-99.0,0.92,2.03,0.05,0.0,0.889831444712986,1.5370426148939396,0.09500347309323531,0.35,0,4,0.0
6.425230382000336,337,5902.62,93.7,2.2,64.1,0.3,1.42,-0.48,0.01,0.87,-0.14,-200.7,-82.7,-128.0,0.94,2.41,0.0,0.0,0.8812491134747313,1.528659543521709,0.10151408824486019,0.35,0,4,0.0
6.433841791999839,338,5902.63,93.8,2.1,64.0,0.98,1.04,-0.36,-0.01,0.9,-0.08,-201.6,-95.7,-130.0,0.97,2.76,0.09,0.0,0.9036038955205982,1.4736349615830915,0.07757612007501347,0.35,0,4,0.0
6.445035830000052,339,5902.64,94.0,2.1,63.9,1.62,0.52,-0.15,-0.03,0.96,-0.05,-202.7,-108.5,-131.0,1.0,3.12,0.12,0.0,0.9617692030835672,1.708010538609174,0.01902259626180358,0.35,0,4,0.0
6.45382214700021,340,5902.65,94.1,2.0,63.9,1.83,-0.14,0.01,-0.03,1.01,-0.05,-203.9,-121.0,-117.0,1.03,3.41,0.03,0.0,1.0116817681464858,1.8353746211604869,0.0302721694250927,0.35,0,4,0.0
6.465206374000445,341,5902.66,94.3,2.0,63.9,1.25,-0.8,0.11,-0.01,1.07,-0.14,-205.1,-131.2,-108.0,1.06,3.68,0.05,0.0,1.079166344916297,1.4881532179181014,0.09580161127100573,0.35,0,4,0.0
6.473762923000322,342,5902.67,94.4,2.0,64.0,0.15,-1.04,0.09,0.02,1.05,-0.31,-206.5,-141.4,-98.0,1.1,3.94,-0.14,0.0,1.094988584415381,1.0546089322587782,0.1093913737546881,0.35,0,4,0.0
6.485241944999871,343,5902.68,94.4,2.0,64.1,-0.58,-0.77,-0.07,0.11,1.07,-0.39,-208.0,-149.4,-81.0,1.15,4.14,0.06,0.0,1.144159079848602,0.9665402216152208,0.15539063180415102,0.35,0,4,0.0
6.493797425000594,344,5902.69,94.3,2.0,64.2,-0.37,-0.29,-0.08,0.16,1.13,-0.38,-209.5,-155.5,-59.0,1.19,4.27,0.09,0.0,1.20287156421623,0.47686476070265454,0.20982105384834338,0.35,0,4,0.0
6.505114180000419,345,5902.7,94.3,2.0,64.2,0.28,0.08,0.13,0.19,1.21,-0.35,-211.1,-160.7,-62.0,1.23,4.45,0.28,0.0,1.2738524247337288,0.3189043743820395,0.2751858760785254,0.35,0,4,0.0
6.513784810999823,346,5902.71,94.4,2.0,64.2,0.71,0.48,0.5,0.17,1.24,-0.33,-212.8,-169.8,-99.0,1.28,4.78,0.12,0.0,1.2943724348115577,0.9922197337283712,0.2897917684332272,0.35,0,4,0.0
6.5251238199998625,347,5902.72,94.4,2.1,64.1,0.39,0.66,0.73,0.12,1.17,-0.31,-214.6,-183.7,-134.0,1.33,5.2,0.06,0.0,1.216305882580529,1.0585839598255775,0.2074907118781546,0.35,0,4,0.0
6.533561498999916,348,5902.73,94.4,2.1,64.0,-0.28,0.74,0.68,0.14,1.12,-0.32,-216.5,-200.6,-162.0,1.39,5.66,-0.04,0.0,1.1732007500849972,1.0432641084595982,0.16109786779497037,0.35,0,4,0.0
6.545278045000487,349,5902.74,94.4,2.2,64.0,-0.26,1.11,0.57,0.18,1.15,-0.29,-218.7,-219.5,-183.0,1.45,6.2,0.15,0.0,1.1995832609702421,1.2745979758339492,0.18373077110661096,0.35,0,4,0.0
6.553850358000091,350,5902.75,94.4,2.3,63.8,0.23,1.66,0.66,0.14,1.25,-0.22,-221.0,-237.2,-176.0,1.51,6.66,0.13,0.0,1.2769103335786738,1.801138528820035,0.2558366868407418,0.35,0,4,0.0
6.565333240000655,351,5902.76,94.4,2.4,63.6,0.52,2.06,0.73,0.1,1.28,-0.12,-223.5,-254.2,-183.0,1.58,7.17,-0.01,0.0,1.2894960255851897,2.246530658593379,0.2630539312703126,0.35,0,4,0.0
6.573843396000484,352,5902.77,94.5,2.5,63.4,0.72,2.35,0.83,0.12,1.41,-0.04,-226.1,-272.1,-178.0,1.66,7.62,0.23,0.0,1.4156623891309679,2.5941858067609576,0.3814358889197689,0.35,1,5,3.0
6.585207043000082,353,5902.78,94.5,2.7,63.2,0.69,2.54,1.44,0.11,1.56,0.06,-229.0,-288.4,-168.0,1.73,8.04,0.12,0.0,1.5650239614779067,3.000216658843158,0.5201815120413735,0.35,0,5,3.0
6.593824006000432,354,5902.79,94.6,2.9,62.9,0.49,2.49,2.41,0.03,1.58,0.15,-231.8,-279.8,347.0,1.81,6.06,2.99,3.49,1.5873877913099874,3.499757134430902,0.5316944350359851,0.35,0,5,3.0
6.605122126000424,355,5902.8,94.6,3.2,62.7,-0.21,2.23,3.18,-0.05,1.45,0.15,-233.7,-143.3,1171.0,1.84,1.8,3.0,3.49,1.4585952145814822,3.8896529408161857,0.3948438211413303,0.35,0,5,3.0
6.613636867999958,356,5902.81,94.5,3.5,62.5,-1.4,2.13,3.53,-0.03,1.27,0.14,-234.2,-12.1,1093.0,1.84,-0.7,3.23,3.49,1.2780453826057978,4.354055580720117,0.21000810938233294,0.35,0,5,3.0
6.625135086999762,357,5902.82,94.2,3.9,62.3,-2.51,2.33,3.34,0.04,1.04,0.13,-233.8,44.1,574.0,1.82,-1.44,3.37,3.49,1.0488565202161828,4.7837851122306905,0.018797137947136333,0.35,0,5,3.0
6.633633915000246,358,5902.83,93.9,4.2,62.1,-3.05,2.75,2.73,0.13,0.91,0.13,-233.3,63.2,285.0,1.8,-1.8,3.34,3.49,0.9283856957105706,4.931318282163502,0.13648260320369354,0.35,0,5,3.0
6.645214959999976,359,5902.84,93.6,4.5,61.8,-3.08,3.27,2.05,0.23,0.86,0.14,-232.6,58.8,21.0,1.79,-1.44,3.35,3.49,0.9011659114724657,4.937793029279376,0.16042833969296244,0.35,0,5,3.0
6.65379312100049,360,5902.85,93.3,4.7,61.5,-2.62,3.88,1.53,0.32,0.83,0.15,-232.1,51.8,-27.0,1.77,-1.3,3.56,3.49,0.9021086409075129,4.925413688209347,0.156295898052757,0.35,0,5,3.0
6.665109677000146,361,5902.86,93.0,4.8,61.1,-2.36,4.53,1.3,0.35,0.84,0.11,-231.7,36.3,-146.0,1.77,-0.7,3.7,3.49,0.9166242414424789,5.270721013295999,0.13894469156743516,0.35,0,5,3.0
6.6738733760003015,362,5902.87,92.8,5.0,60.6,-1.65,5.32,1.23,0.33,0.8,0.09,-231.4,23.3,-75.0,1.76,-0.65,3.42,3.49,0.8700574693662483,5.70419144138764,0.18180123437079254,0.35,0,5,3.0
6.685141988999931,363,5902.88,92.6,5.1,60.0,0.13,5.73,1.04,0.28,0.78,0.16,-231.1,40.3,166.0,1.75,-1.53,3.3,3.49,0.8440379138403677,5.825066523225293,0.2036643740987396,0.35,0,5,3.0
6.693655985000078,364,5902.89,92.7,5.3,59.5,1.81,5.52,0.71,0.18,0.87,0.19,-230.4,79.5,301.0,1.72,-2.57,3.09,3.49,0.9085152722987104,5.8524012165947745,0.136403275327589,0.35,0,5,3.0
6.705172040000434,365,5902.9,92.9,5.3,58.9,2.33,5.24,0.3,0.07,0.97,0.15,-229.4,117.6,409.0,1.69,-3.79,3.43,3.49,0.9840223574695851,5.742516869805435,0.05967826635358009,0.35,0,5,3.0
6.713755231000505,366,5902.91,93.0,5.4,58.4,1.5,4.92,-0.13,-0.01,1.03,0.15,-227.8,167.6,468.0,1.64,-5.21,2.97,3.49,1.0409130607308181,5.145221083685326,0.002731811830500197,0.35,0,5,3.0
6.725015848000112,367,5902.92,93.1,5.4,57.9,0.17,4.23,-0.45,-0.07,1.0,0.17,-225.8,217.6,484.0,1.58,-6.51,3.48,3.49,1.0167595585978033,4.2572643798570935,0.026347607684244823,0.35,0,5,3.0
6.733701039000152,368,5902.93,93.0,5.3,57.6,-0.62,3.61,-0.7,-0.09,0.93,0.12,-223.4,261.6,437.0,1.51,-7.56,3.31,3.49,0.942019108086455,3.7291419924695814,0.09906629703168124,0.35,0,5,3.0
6.745877436000228,369,5902.94,92.9,5.3,57.2,-0.74,3.21,-0.85,-0.08,0.86,0.08,-220.4,304.0,408.0,1.43,-8.66,3.14,3.49,0.8674099376880575,3.402087594404353,0.1702019580814771,0.35,0,5,3.0
6.753768513000068,370,5902.95,92.8,5.2,56.9,-0.38,3.06,-1.01,-0.05,0.83,0.06,-217.1,342.6,373.0,1.33,-9.72,3.35,3.49,0.8336666000266533,3.2447033762733994,0.19986638982802374,0.35,0,5,3.0
6.765095927000402,371,5902.96,92.8,5.1,56.6,0.03,3.06,-1.08,-0.01,0.83,0.04,-213.5,368.1,293.0,1.22,-10.35,3.71,3.49,0.8310234653726692,3.245134820003631,0.1984593339923676,0.35,0,5,0.0
6.77382352099994,372,5902.97,92.7,5.0,56.3,0.24,3.06,-1.0,0.01,0.84,0.04,-209.7,394.8,286.0,1.13,-11.08,3.85,3.49,0.8410112960002379,3.228188346425902,0.184702073297503,0.35,0,5,0.0
6.78510422599993,373,5902.98,92.7,4.9,56.0,0.27,2.9,-0.91,0.02,0.85,0.03,-205.5,395.7,-274.0,1.01,-9.36,0.81,0.0,0.850764362206128,3.0513931244597114,0.1714500269497805,0.35,0,5,0.0
6.793732076000197,374,5902.99,92.7,4.8,55.7,0.24,2.8,-0.82,0.04,0.87,0.0,-202.3,267.8,-954.0,0.94,-5.8,0.56,0.0,0.8709190547921202,2.927456233660889,0.14826942767651263,0.35,0,5,0.0
6.805097628000112,375,5903.0,92.7,4.7,55.4,0.52,2.61,-0.88,0.1,0.86,0.0,-200.4,166.4,-922.0,0.9,-3.45,0.42,0.0,0.8657944328765345,2.8030162325609176,0.15032616860025627,0.35,0,5,0.0
6.813799440000366,376,5903.01,92.7,4.7,55.1,0.99,2.73,-0.96,0.1,0.87,-0.06,-199.5,110.8,-908.0,0.88,-2.04,0.25,0.0,0.8777812939451376,3.0585290582239035,0.13557252138102005,0.35,0,5,0.0
6.825220632999844,377,5903.02,92.8,4.6,54.8,0.85,2.89,-0.98,0.04,0.9,-0.08,-198.6,53.8,-569.0,0.87,-1.06,0.01,0.0,0.904433524367601,3.1678068122914316,0.10674188513938543,0.35,0,5,0.0
6.833782686000632,378,5903.03,92.9,4.5,54.5,0.46,2.94,-0.9,0.0,0.9,-0.05,-198.3,29.5,-306.0,0.86,-0.64,-0.07,0.0,0.9013878188659973,3.108890477324668,0.10759183882816947,0.35,0,5,0.0
6.845017207000637,379,5903.04,92.9,4.4,54.2,0.29,2.78,-0.8,-0.04,0.88,-0.02,-198.1,19.5,-144.0,0.85,-0.5,0.0,0.0,0.8811356308764275,2.907318352021326,0.1252871462813845,0.35,0,5,0.0
6.853786153000328,380,5903.05,92.9,4.3,54.0,0.45,2.43,-0.72,-0.06,0.86,-0.02,-197.9,23.0,7.0,0.85,-0.77,-0.09,0.0,0.8623224454924039,2.5740629362935166,0.14121832503209997,0.35,0,5,0.0
6.865143367000201,381,5903.06,92.9,4.3,53.8,0.64,1.99,-0.65,-0.09,0.87,-0.02,-197.6,35.5,93.0,0.84,-1.15,-0.25,0.0,0.8748714191239761,2.1891094079556646,0.12609596437251724,0.35,0,5,0.0
6.873814786000366,382,5903.07,93.0,4.2,53.6,0.82,1.48,-0.55,-0.11,0.88,-0.02,-197.1,53.1,169.0,0.82,-1.73,0.04,0.0,0.8870738413458036,1.7791290003819284,0.11161567130767602,0.35,0,5,0.0
6.8851128309997875,383,5903.08,93.1,4.2,53.5,0.87,0.98,-0.46,-0.12,0.89,-0.03,-196.4,76.1,210.0,0.8,-2.36,-0.02,0.0,0.8985543945694106,1.3888484438555562,0.09813241572238762,0.35,0,5,0.0
6.893824280000445,384,5903.09,93.2,4.1,53.4,0.68,0.52,-0.38,-0.12,0.89,-0.06,-195.5,100.5,232.0,0.77,-3.02,-0.17,0.0,0.9000555538409838,0.9365895579174477,0.09469863132179812,0.35,0,5,0.0
6.905216881999877,385,5903.1,93.2,4.1,53.4,0.42,0.15,-0.27,-0.12,0.91,-0.09,-194.3,123.1,227.0,0.74,-3.63,-0.07,0.0,0.9222797840135064,0.521344415909483,0.07102491312629,0.35,0,5,0.0
6.9136909870003365,386,5903.11,93.2,4.1,53.4,0.34,-0.22,-0.15,-0.11,0.92,-0.12,-192.9,146.2,227.0,0.7,-4.24,0.25,0.0,0.9342911751697112,0.4318564576337837,0.05783325153068353,0.35,0,5,0.0
6.9252284929998495,387,5903.12,93.3,4.1,53.4,0.45,-0.55,0.02,-0.1,0.95,-0.14,-191.3,168.8,227.0,0.65,-4.86,-0.13,0.0,0.9654532614269838,0.7109149034870489,0.026137741967942607,0.35,0,5,0.0
6.933838013999775,388,5903.13,93.3,4.1,53.5,0.42,-0.81,0.24,-0.08,0.98,-0.17,-189.4,192.1,234.0,0.6,-5.51,-0.19,0.0,0.9978476837674174,0.9434511116109833,0.006131546765041129,0.35,0,5,0.0
6.945106869000483,389,5903.14,93.4,4.1,53.6,0.05,-1.04,0.48,-0.07,0.99,-0.17,-187.4,214.5,223.0,0.54,-6.1,-0.18,0.0,1.0069260151570223,1.146516463030514,0.014905680591553061,0.35,0,5,0.0
6.953833278999809,390,5903.15,93.4,4.2,53.7,-0.45,-1.28,0.72,-0.05,0.99,-0.18,-185.1,238.0,241.0,0.47,-6.78,0.14,0.0,1.0074720839804943,1.5360013020827814,0.015142714426724546,0.35,0,5,0.0
6.9652239860006375,391,5903.16,93.3,4.2,53.8,-0.79,-1.55,0.97,-0.04,0.97,-0.16,-182.5,264.2,258.0,0.4,-7.51,0.0,0.0,0.9839207285142436,1.991858428704209,0.008240468218735586,0.35,0,5,0.0
6.973665905999951,392,5903.17,93.2,4.3,54.0,-0.85,-1.78,1.2,-0.02,0.93,-0.18,-179.7,289.6,245.0,0.32,-8.15,-0.08,0.0,0.9474703161577148,2.308874184532366,0.04379706296375907,0.35,0,5,0.0
6.9851172120006595,393,5903.18,93.2,4.4,54.2,-0.75,-1.84,1.34,-0.02,0.89,-0.2,-176.6,311.5,225.0,0.23,-8.73,-0.15,0.0,0.9124143795447329,2.396601760827193,0.07727593958520618,0.35,0,5,0.0
6.993823585999962,394,5903.19,93.1,4.6,54.4,-0.45,-1.92,1.4,-0.02,0.86,-0.18,-173.3,336.6,260.0,0.14,-9.51,-0.09,0.0,0.8788629017087932,2.418449916785543,0.108610869072723,0.35,0,5,0.0
7.005211653000515,395,5903.2,93.1,4.7,54.6,-0.13,-2.06,1.4,-0.03,0.82,-0.15,-169.8,363.2,238.0,0.04,-10.1,-0.07,0.0,0.8341462701469089,2.4940930215210497,0.15026095062191513,0.35,0,5,0.0
7.013773966999906,396,5903.21,93.1,4.8,54.8,0.16,-2.22,1.38,-0.04,0.81,-0.13,-166.0,382.9,234.0,-0.05,-10.75,-0.07,0.0,0.8213403679352429,2.618854711510358,0.1598055157769095,0.35,0,5,0.0
7.025137657999949,397,5903.22,93.2,5.0,55.1,0.56,-2.38,1.29,-0.04,0.77,-0.15,-162.0,412.5,267.0,-0.17,-11.52,0.0,0.0,0.7854934754662193,2.764434842784326,0.19173936008101444,0.35,0,5,0.0
7.033685338000396,398,5903.23,93.3,5.1,55.3,1.36,-2.49,1.1,-0.04,0.74,-0.18,-157.7,433.2,210.0,-0.28,-12.0,-0.16,0.0,0.7626270385975048,3.0429755174828474,0.21031368101073433,0.35,0,5,0.0
7.045090692000485,399,5903.24,93.5,5.1,55.6,2.35,-2.57,0.81,-0.02,0.75,-0.19,-153.2,452.8,208.0,-0.41,-12.56,0.01,0.0,0.7739509028355739,3.575402075291673,0.19501002043721194,0.35,0,5,0.0
7.053824239999813,400,5903.25,93.8,5.2,55.8,3.04,-2.46,0.57,0.0,0.81,-0.23,-148.6,469.2,167.0,-0.54,-12.94,0.1,0.0,0.8420213774008354,3.951974190199121,0.12440075495451142,0.35,0,5,0.0
7.065105231999951,401,5903.26,94.2,5.2,56.1,3.18,-2.2,0.43,0.0,0.86,-0.27,-143.8,482.7,104.0,-0.67,-13.09,0.06,0.0,0.9013878188659973,3.8906683230519667,0.06373362721956255,0.35,0,5,0.0
7.073685428999852,402,5903.27,94.5,5.2,56.3,3.06,-1.92,0.28,0.0,0.92,-0.29,-139.1,454.9,-309.0,-0.79,-11.53,0.46,0.0,0.9646242791885347,3.623313400742475,0.00048722355908470405,0.35,0,5,0.0
7.08508267400066,403,5903.28,94.8,5.3,56.5,2.83,-1.42,0.4,-0.05,1.01,-0.33,-135.1,363.9,-859.0,-0.88,-8.3,0.48,0.0,1.0637198879404295,3.191441680494883,0.0966362174889539,0.35,0,5,0.0
7.09378556899992,404,5903.29,95.0,5.3,56.6,1.76,-1.52,0.75,-0.08,1.03,-0.28,-132.5,220.2,-1306.0,-0.94,-4.05,0.64,0.0,1.0703737664946764,2.443460660620506,0.1012242941223368,0.35,0,5,0.0
7.10522088900052,405,5903.3,95.2,5.4,56.8,1.25,-2.25,0.99,0.01,1.0,-0.28,-131.4,63.1,-1450.0,-0.95,0.08,0.63,0.0,1.0385085459446157,2.757734577511041,0.06797189210083054,0.35,0,5,0.0
7.113667870000427,406,5903.31,95.4,5.5,57.1,1.47,-2.56,1.11,0.07,1.0,-0.36,-131.6,-51.5,-1066.0,-0.93,2.28,0.07,0.0,1.0651291001564083,3.153823076838649,0.0927005973863706,0.35,0,5,0.0
7.125056053000662,407,5903.32,95.5,5.6,57.3,1.29,-2.76,1.13,0.02,1.02,-0.35,-132.6,-116.9,-763.0,-0.9,3.89,0.17,0.0,1.078563859954523,3.249399944605157,0.10401265004079574,0.35,0,5,0.0
7.133671188000335,408,5903.33,95.7,5.6,57.6,1.15,-3.34,0.86,-0.01,1.03,-0.28,-134.1,-175.8,-656.0,-0.85,5.53,0.19,0.0,1.0674268124794317,3.6356154912201593,0.09101809051439025,0.35,0,5,0.0
7.145237875000021,409,5903.34,95.9,5.6,58.0,2.02,-3.45,0.21,0.06,1.07,-0.32,-136.3,-239.2,-649.0,-0.78,7.29,0.33,0.0,1.118436408563312,4.003373577371964,0.13918713286630513,0.35,0,5,0.0
7.1538280740005575,410,5903.35,96.1,5.6,58.3,2.47,-3.01,-0.58,0.09,1.14,-0.35,-139.2,-302.5,-628.0,-0.7,8.97,0.32,0.0,1.1959096955874218,3.936673722827433,0.21232721149260658,0.35,0,5,0.0
7.165230536000308,411,5903.36,96.4,5.5,58.6,2.38,-2.7,-1.45,0.14,1.18,-0.31,-142.6,-362.5,-594.0,-0.59,10.51,0.09,0.0,1.22804723036209,3.880322151574531,0.23957545134192926,0.35,0,5,0.0
7.17379906000042,412,5903.37,96.7,5.2,58.8,2.0,-2.59,-2.04,0.16,1.23,-0.26,-146.6,-405.8,-404.0,-0.48,11.29,0.25,0.0,1.2673200069437869,3.856124997974002,0.2732712633651536,0.35,0,5,0.0
7.185234859000047,413,5903.38,96.9,5.0,59.1,1.2,-2.72,-2.26,0.18,1.21,-0.18,-150.7,-420.9,-203.0,-0.37,11.53,0.21,0.0,1.2364869590901475,3.734434361452883,0.23758945120128394,0.35,0,5,0.0
7.193653545000416,414,5903.39,97.0,4.8,59.3,1.57,-2.69,-2.55,0.26,1.19,-0.16,-155.0,-420.2,-20.0,-0.25,11.28,-0.06,0.0,1.2285357137665962,4.025357127013701,0.22504544176017793,0.35,0,5,0.0
7.205212878000566,415,5903.4,97.3,4.5,59.5,2.45,-2.0,-2.97,0.31,1.26,-0.15,-159.1,-407.3,84.0,-0.14,10.89,-0.1,0.0,1.30621590864604,4.338594242378515,0.29667112390682937,0.35,0,5,0.0
7.213721634000649,416,5903.41,97.5,4.1,59.6,2.72,-1.08,-3.74,0.37,1.33,-0.09,-163.0,-383.8,241.0,-0.04,9.95,-0.05,0.0,1.3834377470634522,4.748936723099183,0.3664151030777567,0.35,0,6,0.0
7.2258533610001905,417,5903.42,97.8,3.7,59.6,3.19,0.04,-4.71,0.48,1.49,-0.02,-166.6,-340.8,376.0,0.04,8.73,-0.14,0.0,1.565535052306399,5.688743270705754,0.5375421601542896,0.35,0,6,0.0
7.233757054999842,418,5903.43,98.2,3.2,59.5,2.87,1.07,-5.15,0.51,1.67,0.05,-169.7,-300.3,377.0,0.12,7.72,-0.01,0.0,1.7468543156199374,5.992019692891539,0.7044841949984713,0.35,0,6,0.0
7.245189584999935,419,5903.44,98.3,2.8,59.3,0.78,1.88,-4.42,0.28,1.58,0.05,-172.4,-260.0,411.0,0.19,6.53,-0.1,0.0,1.6053971471259068,4.866127824050659,0.5517664859743519,0.35,0,6,0.0
7.253810868000073,420,5903.45,98.3,2.4,59.0,-0.86,1.76,-3.19,-0.07,1.4,0.17,-174.7,-215.7,425.0,0.25,5.35,-0.2,0.0,1.4120198298890847,3.743434252127316,0.35122138536277925,0.35,0,6,0.0
7.26516349800022,421,5903.46,98.2,2.2,58.9,-1.33,0.54,-1.72,-0.33,1.23,0.32,-176.6,-175.7,401.0,0.29,4.31,-0.08,0.0,1.3130879635424277,2.2402901597784157,0.2472437286357998,0.35,0,6,0.0
7.2738214110004265,422,5903.47,98.1,2.1,58.9,-0.29,-1.14,-0.35,-0.47,1.09,0.38,-178.1,-136.2,395.0,0.33,3.23,-0.24,0.0,1.2463546846704594,1.227273400673216,0.17690024076855493,0.35,0,6,0.0
7.285223067000516,423,5903.48,98.1,2.1,59.1,1.29,-3.06,0.65,-0.55,1.04,0.41,-179.2,-100.5,349.0,0.35,2.36,-0.1,0.0,1.2458731877683218,3.3838144157149044,0.17289036898908905,0.35,0,6,0.0
7.293793949000246,424,5903.49,98.3,2.1,59.5,2.14,-4.84,1.16,-0.57,1.01,0.4,-180.0,-71.7,294.0,0.37,1.64,-0.02,0.0,1.2267844146385296,5.417637861651515,0.150725563942111,0.35,0,6,0.0
7.305216868000571,425,5903.5,98.6,2.2,60.1,1.47,-6.38,1.09,-0.43,0.99,0.34,-180.5,-47.5,247.0,0.38,1.05,-0.16,0.0,1.1316359838746735,6.637273536626315,0.0544655905146898,0.35,0,6,0.0
7.313769840000532,426,5903.51,98.6,2.1,60.8,-0.3,-7.58,0.5,-0.21,1.03,0.2,-180.9,-32.1,167.0,0.39,0.71,-0.09,0.0,1.0700467279516348,7.6023943596737995,0.006981192100181888,0.35,0,6,0.0
7.325061952000397,427,5903.52,98.5,2.0,61.6,-2.82,-7.98,-0.1,0.0,1.01,0.04,-181.1,-16.9,156.0,0.4,0.29,0.04,0.0,1.0107917688624102,8.464206991797873,0.06491142816561846,0.35,0,6,0.0
7.333860308000112,428,5903.53,98.1,1.9,62.4,-4.67,-7.73,-0.61,0.17,0.96,-0.04,-181.2,-5.9,121.0,0.4,0.03,0.02,0.0,0.9757561170702441,9.051734640387997,0.09794813835862881,0.35,0,6,0.0
7.345104656999865,429,5903.54,97.6,1.7,63.1,-5.39,-7.01,-1.0,0.33,0.93,-0.14,-181.2,1.3,68.0,0.4,-0.06,0.0,0.0,0.9966945369570358,8.89899994381391,0.07546952410240049,0.35,0,6,0.0
7.3538517500001035,430,5903.55,97.1,1.5,63.7,-5.17,-5.79,-1.03,0.41,0.94,-0.17,-181.2,1.6,15.0,0.4,-0.01,-0.04,0.0,1.0395191195932856,7.830319278292552,0.031992042636827644,0.35,0,6,0.0
7.365195860999847,431,5903.56,96.6,1.3,64.2,-4.81,-4.67,-0.6,0.41,0.93,-0.19,-181.2,-1.0,-13.0,0.4,0.06,-0.08,0.0,1.0339729203417274,6.730898899849855,0.03678747705061802,0.35,0,6,0.0
7.373789054000554,432,5903.57,96.2,1.3,64.6,-3.73,-3.27,-0.15,0.37,0.83,-0.24,-181.2,-3.5,-19.0,0.4,0.12,0.15,0.0,0.9398936110007344,4.962690802377275,0.12824945066377869,0.35,0,6,0.0
7.385077189000185,433,5903.58,96.0,1.2,64.9,-1.86,-2.35,0.31,0.28,0.85,-0.16,-181.3,-8.2,-53.0,0.4,0.33,0.14,0.0,0.9091204540653565,3.013005144369986,0.1558421554471735,0.35,0,6,0.0
7.393769674000396,434,5903.59,95.9,1.3,65.1,-0.22,-1.73,0.8,0.25,0.8,-0.15,-181.4,-19.7,-94.0,0.41,0.66,-0.01,0.0,0.8514693182963201,1.9186714153288469,0.20922342539188576,0.35,0,6,0.0
7.4052304470005765,435,5903.6,95.9,1.4,65.2,0.88,-1.33,1.12,0.21,0.84,-0.13,-181.7,-33.8,-142.0,0.42,1.13,0.19,0.0,0.8755569655939013,1.9487688421154523,0.18143306253241853,0.35,0,6,0.0
7.413761949000218,436,5903.61,96.0,1.5,65.4,1.08,-1.07,1.32,0.17,0.89,-0.11,-182.2,-51.6,-167.0,0.43,1.61,0.04,0.0,0.9127431182978045,2.013380242279138,0.14136197163194497,0.35,0,6,0.0
7.425225761000547,437,5903.62,96.1,1.6,65.5,0.56,-0.93,1.34,0.13,0.92,-0.08,-182.8,-69.3,-177.0,0.45,2.12,0.17,0.0,0.9325770745627409,1.724557914365302,0.1190974550596684,0.35,0,6,0.0
7.433807221999814,438,5903.63,96.1,1.8,65.6,-0.42,-0.96,1.34,0.11,0.96,-0.07,-183.6,-87.5,-174.0,0.48,2.57,0.16,0.0,0.9688137075826291,1.7010584939971936,0.08120360559898465,0.35,0,6,0.0
7.445101013000567,439,5903.64,96.0,2.0,65.7,-1.36,-0.96,1.25,0.1,0.94,-0.08,-184.6,-103.0,-154.0,0.5,2.96,-0.01,0.0,0.9486832980505138,2.081754068087775,0.09930733482847787,0.35,0,6,0.0
7.453830850000486,440,5903.65,95.8,2.1,65.8,-1.83,-0.86,1.16,0.11,0.91,-0.1,-185.7,-114.0,-115.0,0.54,3.21,0.0,0.0,0.922062904578641,2.33111561274854,0.12340917373434368,0.35,0,6,0.0
7.465100414000517,441,5903.66,95.7,2.3,65.9,-1.8,-0.72,1.1,0.11,0.88,-0.11,-186.9,-122.3,-87.0,0.57,3.41,-0.1,0.0,0.8936442245099556,2.2289908030317216,0.14879129672696845,0.35,0,6,0.0
7.477364944999863,442,5903.67,95.5,2.4,66.0,-1.46,-0.62,1.11,0.11,0.86,-0.13,-188.2,-126.6,-43.0,0.6,3.45,0.1,0.0,0.8766983517721474,1.9360010330575756,0.16242242607548119,0.35,0,6,0.0
7.48935293500017,443,5903.68,95.4,2.6,66.0,-0.9,-0.5,1.14,0.11,0.85,-0.14,-189.5,-127.9,-18.0,0.64,3.47,-0.07,0.0,0.8684468895678077,1.536098955145794,0.16726041051422436,0.35,0,6,0.0
7.497933577999902,444,5903.69,95.4,2.7,66.1,-0.48,-0.44,1.23,0.11,0.87,-0.14,-190.7,-125.5,20.0,0.67,3.34,0.11,0.0,0.888031530971733,1.3917255476565773,0.144722253728093,0.35,0,6,0.0
7.505654280000272,445,5903.7,95.3,2.8,66.1,-0.33,-0.31,1.3,0.12,0.89,-0.15,-191.9,-119.9,50.0,0.7,3.15,-0.08,0.0,0.910494371207203,1.3765899897936205,0.11981422522277063,0.35,0,6,0.0
7.513744744000178,446,5903.71,95.3,2.9,66.2,-0.38,-0.12,1.29,0.13,0.88,-0.17,-193.1,-111.7,78.0,0.73,2.91,-0.22,0.0,0.9056489386070079,1.350148140020198,0.12216646466650638,0.35,0,6,0.0
7.525062617000003,447,5903.72,95.2,3.1,66.2,-0.44,0.02,1.2,0.14,0.88,-0.18,-194.1,-101.4,101.0,0.76,2.6,-0.2,0.0,0.9090654541890809,1.2782800945019834,0.11637495010274479,0.35,0,6,0.0
7.533847110000352,448,5903.73,95.2,3.2,66.2,-0.36,0.13,1.03,0.15,0.88,-0.2,-195.1,-90.1,108.0,0.79,2.29,-0.08,0.0,0.9148223871331528,1.0988175462741756,0.10840565681549952,0.35,0,6,0.0
7.545240584000567,449,5903.74,95.2,3.3,66.2,-0.42,0.19,0.87,0.16,0.88,-0.22,-195.9,-77.7,114.0,0.81,1.99,0.02,0.0,0.9210863151735563,0.9845811292118085,0.10009889419959406,0.35,0,6,0.0
7.553837254999962,450,5903.75,95.1,3.3,66.2,-0.7,0.29,0.61,0.16,0.85,-0.25,-196.6,-66.5,108.0,0.82,1.67,-0.04,0.0,0.90033327162779,0.9727281223445737,0.11843489899045323,0.35,0,6,0.0
7.565162384999894,451,5903.76,95.0,3.4,66.1,-1.27,0.44,0.24,0.17,0.8,-0.26,-197.2,-56.4,104.0,0.84,1.41,0.12,0.0,0.858195781858662,1.3653204751998704,0.15736094098438957,0.35,0,6,0.0
7.573783816999821,452,5903.77,94.8,3.4,66.1,-1.93,0.66,-0.21,0.19,0.76,-0.28,-197.7,-48.8,75.0,0.85,1.25,-0.09,0.0,0.8319254774317228,2.0505121311516303,0.17995862050310207,0.35,0,6,0.0
7.585233565000635,453,5903.78,94.6,3.3,66.0,-2.36,0.97,-0.61,0.22,0.75,-0.29,-198.1,-42.3,66.0,0.86,1.09,-0.02,0.0,0.8336666000266533,2.6234709832586294,0.1746531479500082,0.35,0,6,0.0
7.593826872000136,454,5903.79,94.4,3.3,65.9,-2.28,1.42,-0.82,0.23,0.76,-0.3,-198.5,-38.7,41.0,0.87,1.02,0.11,0.0,0.8488227141164403,2.808415923612455,0.15630709318301672,0.35,0,6,0.0
7.605038561000583,455,5903.8,94.2,3.2,65.7,-1.55,1.81,-0.87,0.21,0.77,-0.27,-198.9,-38.1,7.0,0.88,1.06,-0.02,0.0,0.8425556361451747,2.5368287289448612,0.15932268773119662,0.35,0,6,0.0
7.61376174399993,456,5903.81,94.1,3.1,65.5,-0.41,2.01,-0.82,0.17,0.79,-0.23,-199.3,-41.9,-21.0,0.9,1.16,0.04,0.0,0.840178552451799,2.2092080028824808,0.15846577599608092,0.35,0,6,0.0
7.625117796000268,457,5903.82,94.1,3.1,65.3,0.61,2.02,-0.76,0.11,0.83,-0.2,-199.8,-47.5,-53.0,0.91,1.38,0.02,0.0,0.8608135686662938,2.24278844298788,0.13507414458595435,0.35,0,6,0.0
7.6338137560005634,458,5903.83,94.2,3.0,65.1,1.12,1.97,-0.71,0.07,0.85,-0.19,-200.3,-55.9,-78.0,0.92,1.64,0.15,0.0,0.8737848705488096,2.3747420912595962,0.11966078584936979,0.35,0,6,0.0
7.645189464000396,459,5903.84,94.3,3.0,64.9,1.22,1.85,-0.68,0.04,0.88,-0.19,-200.9,-66.0,-98.0,0.94,1.93,-0.11,0.0,0.9011659114724658,2.318037963450987,0.09043415002719923,0.35,0,6,0.0
7.653774004999832,460,5903.85,94.4,2.9,64.7,1.14,1.64,-0.61,0.01,0.91,-0.16,-201.7,-78.7,-126.0,0.96,2.32,0.15,0.0,0.9240129869217207,2.0883725721240447,0.0662353330863854,0.35,0,6,0.0
7.665049144000477,461,5903.86,94.6,2.8,64.6,1.45,1.37,-0.41,0.0,0.97,-0.13,-202.6,-93.0,-137.0,0.99,2.71,-0.07,0.0,0.9786725703727472,2.03654118544163,0.011344234642651774,0.35,0,6,0.0
7.673804881999786,462,5903.87,94.7,2.8,64.4,1.86,0.85,-0.08,-0.04,1.01,-0.06,-203.6,-107.5,-143.0,1.02,3.11,-0.21,0.0,1.0125709851659783,2.0465825172711702,0.022103096547567702,0.35,0,6,0.0
7.685317819999909,463,5903.88,94.9,2.7,64.4,1.9,0.1,0.13,-0.03,1.04,-0.05,-204.8,-123.0,-148.0,1.05,3.53,0.06,0.0,1.041633332799983,1.907065809037538,0.05014213529794087,0.35,0,6,0.0
7.693750628000089,464,5903.89,95.1,2.7,64.4,1.31,-0.51,0.27,0.0,1.06,-0.13,-206.1,-138.3,-148.0,1.09,3.93,-0.21,0.0,1.0679419459877022,1.431467778191322,0.07492173351594689,0.35,0,6,0.0
7.705061005000061,465,5903.9,95.2,2.7,64.5,0.17,-0.83,0.17,0.03,0.98,-0.27,-207.6,-152.2,-133.0,1.13,4.28,0.02,0.0,1.0169562429131354,0.8641180474911978,0.023457309832552453,0.35,0,6,0.0
7.713622275000489,466,5903.91,95.1,2.7,64.6,-0.69,-0.76,-0.24,0.11,0.89,-0.38,-209.2,-161.7,-96.0,1.18,4.47,0.07,0.0,0.9739609848448756,1.0541821474489121,0.019147189270993126,0.35,0,6,0.0
7.724798873000509,467,5903.92,95.1,2.7,64.6,-0.61,-0.36,-0.69,0.21,0.93,-0.44,-210.9,-168.5,-77.0,1.22,4.66,0.17,0.0,1.050047617967871,0.9888377015466189,0.05580065497496234,0.35,0,6,0.0
7.733298060000379,468,5903.93,95.0,2.6,64.6,0.14,0.35,-0.81,0.24,1.01,-0.41,-212.6,-174.7,-69.0,1.27,4.84,0.05,0.0,1.1161541112229978,0.8934203937676821,0.11946900526548732,0.35,0,6,0.0
7.744696665999982,469,5903.94,95.1,2.5,64.6,1.04,0.76,-0.73,0.25,1.1,-0.34,-214.4,-182.5,-80.0,1.32,5.07,0.07,0.0,1.1781765572273113,1.4805742129322663,0.17786162224440472,0.35,0,6,0.0
7.753243201999794,470,5903.95,95.2,2.5,64.5,1.46,1.12,-0.3,0.22,1.22,-0.31,-216.3,-193.6,-106.0,1.38,5.41,-0.22,0.0,1.2778497564267874,1.8644033898274268,0.27198412501500324,0.35,0,6,0.0
7.765418161000525,471,5903.96,95.4,2.5,64.3,1.43,1.34,0.2,0.15,1.23,-0.3,-218.3,-207.0,-133.0,1.43,5.81,-0.01,0.0,1.2749117616525467,1.9698984745412642,0.26366520763594736,0.35,0,6,0.0
7.773419554000611,472,5903.97,95.5,2.5,64.2,1.36,1.55,0.39,0.11,1.18,-0.3,-220.5,-221.6,-137.0,1.49,6.19,0.1,0.0,1.2224974437601086,2.0986185932655794,0.20702587194863908,0.35,0,6,0.0
7.785007082999982,473,5903.98,95.7,2.6,64.0,1.65,2.0,0.32,0.08,1.21,-0.23,-222.8,-235.8,-145.0,1.56,6.59,-0.16,0.0,1.2342609124492276,2.6124509564774607,0.21441355382500293,0.35,0,6,0.0
7.79378639800052,474,5903.99,95.8,2.6,63.8,1.74,2.2,0.42,0.04,1.34,-0.03,-225.3,-252.8,-171.0,1.63,7.1,-0.09,0.0,1.3409325113517085,2.836194633659686,0.31466344967293414,0.35,0,6,0.0
7.8052201440004865,475,5904.0,96.0,2.7,63.6,1.96,2.14,0.81,0.0,1.55,0.1,-227.9,-272.0,-184.0,1.7,7.63,0.2,0.0,1.5532224567009068,3.0128557881186415,0.5164143271216897,0.35,1,7,3.0
7.81377285400049,476,5904.01,96.2,2.9,63.4,2.26,2.08,1.72,-0.04,1.78,0.16,-230.4,-287.9,-250.0,1.79,8.19,0.12,0.0,1.7876241215647097,3.5202840794458616,0.7357996721457829,0.35,0,7,3.0
7.825119344000086,477,5904.02,96.4,3.1,63.2,1.67,1.91,2.87,-0.13,1.8,0.17,-233.8,-303.0,-10.0,1.86,7.62,2.95,3.49,1.8126775775079254,3.8306526859009287,0.7456360655272185,0.35,0,7,3.0
7.833857724000154,478,5904.03,96.4,3.5,63.1,-0.72,1.22,3.51,-0.14,1.53,0.2,-236.1,-192.7,1040.0,1.91,2.72,2.87,3.49,1.5493547043850224,3.785089166717212,0.47266692855622927,0.35,0,7,3.0
7.845106237999971,479,5904.04,96.2,3.8,63.1,-3.24,0.78,3.57,0.01,1.21,0.13,-237.0,-44.4,1193.0,1.92,-0.22,3.1,3.49,1.217004519301387,4.883738322228168,0.137510408603142,0.35,0,7,3.0
7.853809736000585,480,5904.05,95.8,4.2,63.0,-4.48,1.16,3.09,0.18,0.96,0.03,-236.8,35.6,710.0,1.9,-1.31,3.47,3.49,0.9771898484941398,5.564539513742354,0.10025817696002315,0.35,0,7,3.0
7.865147399000307,481,5904.06,95.3,4.5,62.9,-4.41,2.08,2.57,0.34,0.81,0.0,-236.3,54.2,353.0,1.89,-1.74,3.54,3.49,0.8784645695758027,5.511751082913668,0.195003786760793,0.35,0,7,3.0
7.873811864000345,482,5904.07,94.9,4.7,62.6,-3.25,3.12,1.95,0.45,0.78,0.05,-235.7,66.1,143.0,1.87,-1.7,3.6,3.49,0.9018869108707588,4.909113973009793,0.16814981655652006,0.35,0,7,3.0
7.885042032000456,483,5904.08,94.6,4.9,62.3,-1.89,4.19,1.5,0.55,0.8,0.07,-235.1,58.7,8.0,1.85,-1.57,3.38,3.49,0.9733447487915061,4.835100826249645,0.09475813906305719,0.35,0,7,3.0
7.893824126999789,484,5904.09,94.5,5.1,61.8,-0.99,5.18,1.26,0.49,0.83,0.05,-234.5,57.5,-22.0,1.84,-1.38,3.61,3.49,0.9651424765287246,5.422185906071461,0.10090120309932193,0.35,0,7,3.0
7.9051189970005,485,5904.1,94.3,5.3,61.2,-0.12,6.22,1.13,0.35,0.78,0.03,-234.0,44.7,-79.0,1.83,-1.21,3.32,3.49,0.8554530963179688,6.3229502607564445,0.2063787716438762,0.35,0,7,3.0
7.913647733000289,486,5904.11,94.3,5.4,60.6,0.9,6.45,0.96,0.2,0.88,0.13,-233.5,60.7,193.0,1.81,-2.29,3.48,3.49,0.911756546453054,6.5828641182998755,0.14707381507861517,0.35,0,7,3.0
7.925240192000274,487,5904.12,94.4,5.6,60.0,1.49,6.05,0.97,0.11,0.96,0.2,-232.6,101.6,331.0,1.78,-3.41,3.33,3.49,0.9867623827447011,6.305830635213731,0.0706266192112287,0.35,0,7,3.0
7.933873115000097,488,5904.13,94.5,5.7,59.4,1.91,5.46,0.84,0.0,1.0,0.16,-231.3,144.5,389.0,1.74,-4.57,3.55,3.49,1.012719112093773,5.845109066561546,0.04377649206491352,0.35,0,7,3.0
7.945153256000594,489,5904.14,94.6,5.8,58.9,1.59,4.92,0.47,-0.08,1.02,0.12,-229.5,185.5,413.0,1.68,-5.68,3.2,3.49,1.030145620774073,5.191859011953233,0.025822983716921488,0.35,0,7,3.0
7.9538955240004725,490,5904.15,94.7,5.9,58.4,0.99,4.33,-0.1,-0.14,1.01,0.13,-227.4,228.6,426.0,1.62,-6.89,3.46,3.49,1.0279105019407089,4.44285943959518,0.027496940499279754,0.35,0,7,3.0
7.9651227900003505,491,5904.16,94.7,5.8,58.0,-0.2,3.48,-0.54,-0.15,1.0,0.14,-224.8,271.8,418.0,1.54,-8.01,3.19,3.49,1.0208329931972222,3.527321930303499,0.033882960257911154,0.35,0,7,3.0
7.973822439000287,492,5904.17,94.6,5.8,57.7,-1.2,2.75,-0.79,-0.12,0.92,0.11,-221.8,310.1,402.0,1.45,-9.04,3.87,3.49,0.9342911751697112,3.102676264130694,0.11801628271971376,0.35,0,7,3.0
7.985127040000407,493,5904.18,94.5,5.7,57.5,-1.13,2.27,-1.04,-0.09,0.84,0.08,-218.5,347.6,380.0,1.36,-9.89,3.18,3.49,0.8485870609430713,2.740693342933499,0.19964598900742658,0.35,0,7,3.0
7.993838105000577,494,5904.19,94.4,5.6,57.2,-0.39,1.99,-1.25,-0.03,0.81,0.04,-214.8,377.4,299.0,1.25,-10.65,3.25,3.49,0.8115417426109394,2.382162882760119,0.2319574811927675,0.35,0,7,0.0
8.005125644000145,495,5904.2,94.3,5.5,57.0,0.29,1.91,-1.35,0.01,0.81,0.01,-210.8,405.5,306.0,1.14,-11.52,3.41,3.49,0.8101234473831751,2.3568411062267223,0.22870826089212115,0.35,0,7,0.0
8.013761105999947,496,5904.21,94.4,5.4,56.8,0.61,1.89,-1.36,0.03,0.85,0.0,-206.6,411.3,-233.0,1.03,-9.37,0.61,0.0,0.8505292469985967,2.4070313666423213,0.18453641205116555,0.35,0,7,0.0
8.025209997000275,497,5904.22,94.4,5.2,56.6,0.58,1.72,-1.32,0.05,0.89,0.0,-203.3,283.0,-956.0,0.96,-5.88,0.21,0.0,0.891403387922662,2.2443707358633955,0.1407890257045582,0.35,0,7,0.0
8.033723440999893,498,5904.23,94.4,5.1,56.5,0.8,1.51,-1.29,0.09,0.92,0.0,-201.3,177.5,-911.0,0.92,-3.67,0.26,0.0,0.9243916918709298,2.141074496602115,0.1056447073211646,0.35,0,7,0.0
8.04522685000029,499,5904.24,94.4,5.0,56.3,0.84,1.51,-1.24,0.06,0.93,-0.04,-200.0,107.2,-720.0,0.9,-2.09,0.06,0.0,0.9327915093953204,2.1268051156605767,0.0952999920008385,0.35,0,7,0.0
8.053818289999981,500,5904.25,94.5,4.9,56.1,0.38,1.61,-1.15,0.0,0.94,-0.08,-199.3,61.2,-478.0,0.88,-1.23,0.14,0.0,0.9433981132056604,2.014696006845698,0.08299952042668868,0.35,0,7,0.0
8.065147999000146,501,5904.26,94.5,4.7,56.0,-0.05,1.7,-1.02,-0.04,0.92,-0.06,-198.8,37.4,-277.0,0.87,-0.85,-0.12,0.0,0.9228217596047463,1.9831540535218135,0.10150435654705059,0.35,0,7,0.0
8.073795138000605,502,5904.27,94.4,4.6,55.8,-0.12,1.57,-0.81,-0.08,0.91,-0.03,-198.5,29.3,-117.0,0.86,-0.82,-0.12,0.0,0.9140021881811882,1.7707060738586742,0.1081174494111965,0.35,0,7,0.0
8.08517836900046,503,5904.28,94.4,4.6,55.6,0.04,1.23,-0.58,-0.11,0.89,-0.03,-198.2,33.4,5.0,0.86,-1.03,0.01,0.0,0.8972736483370054,1.3604778572251737,0.12234906947027158,0.35,0,7,0.0
8.093778581000151,504,5904.29,94.4,4.5,55.5,0.24,0.73,-0.4,-0.14,0.88,-0.02,-197.8,44.1,88.0,0.84,-1.41,0.07,0.0,0.8912911982062877,0.8663140308225418,0.12576488920896955,0.35,0,7,0.0
8.105148095000004,505,5904.3,94.5,4.5,55.5,0.41,0.17,-0.25,-0.15,0.87,-0.02,-197.3,59.4,141.0,0.82,-1.9,-0.05,0.0,0.8830628516702533,0.5094114250780011,0.13131337103010388,0.35,0,7,0.0
8.113766720000058,506,5904.31,94.5,4.5,55.5,0.52,-0.41,-0.14,-0.15,0.88,-0.02,-196.5,80.1,193.0,0.8,-2.53,0.0,0.0,0.8929165694509201,0.6768308503607087,0.1190304601844484,0.35,0,7,0.0
8.125047688999985,507,5904.32,94.6,4.5,55.6,0.48,-1.0,-0.04,-0.14,0.88,-0.04,-195.6,103.7,221.0,0.77,-3.15,-0.07,0.0,0.8919641248391104,1.1099549540409286,0.11758324670033304,0.35,0,7,0.0
8.13385067299987,508,5904.33,94.6,4.5,55.7,0.26,-1.51,0.02,-0.13,0.88,-0.07,-194.4,126.1,223.0,0.74,-3.77,0.0,0.0,0.8923003978481686,1.5323511346946561,0.11490203421744927,0.35,0,7,0.0
8.144955808999839,509,5904.34,94.6,4.5,55.9,0.0,-2.04,0.11,-0.11,0.9,-0.1,-193.0,149.2,230.0,0.69,-4.4,0.03,0.0,0.9121951545584969,2.0429635336931495,0.09310713195697862,0.35,0,7,0.0
8.153498026000307,510,5904.35,94.6,4.4,56.1,-0.14,-2.45,0.21,-0.07,0.9,-0.14,-191.3,172.5,230.0,0.65,-5.03,-0.08,0.0,0.9135097153287425,2.4629656920062857,0.08995671976299835,0.35,0,7,0.0
8.165032220000285,511,5904.36,94.6,4.5,56.4,-0.29,-2.7,0.34,-0.04,0.91,-0.15,-189.4,195.8,238.0,0.59,-5.67,-0.13,0.0,0.9231467922275417,2.736731627324828,0.07871325000691509,0.35,0,7,0.0
8.173583900999802,512,5904.37,94.6,4.5,56.7,-0.38,-2.86,0.44,-0.02,0.9,-0.18,-187.3,219.2,230.0,0.53,-6.28,0.0,0.0,0.9180413934022801,2.918492761683674,0.08214227585553313,0.35,0,7,0.0
8.185252612000113,513,5904.38,94.6,4.5,57.0,-0.47,-2.93,0.56,-0.01,0.9,-0.18,-184.9,242.8,245.0,0.46,-6.98,-0.08,0.0,0.917877987534291,3.019834432547586,0.08065956808905184,0.35,0,7,0.0
8.193586834000598,514,5904.39,94.6,4.5,57.3,-0.52,-3.03,0.68,0.0,0.9,-0.19,-182.3,269.8,265.0,0.39,-7.74,-0.08,0.0,0.9198369420718001,3.148602864763989,0.07712660128051185,0.35,0,7,0.0
8.204948852000598,515,5904.4,94.6,4.6,57.6,-0.45,-3.05,0.8,0.02,0.89,-0.22,-179.5,294.7,237.0,0.31,-8.31,-0.06,0.0,0.9170059977993601,3.185121661726597,0.07835839464189287,0.35,0,7,0.0
8.213892812999802,516,5904.41,94.5,4.7,57.9,-0.34,-3.0,0.89,0.05,0.88,-0.24,-176.4,316.0,227.0,0.22,-8.94,-0.18,0.0,0.9135097153287424,3.1476499170015715,0.08021758357026043,0.35,0,7,0.0
8.225132733000464,517,5904.42,94.5,4.7,58.2,-0.3,-2.8,0.99,0.07,0.88,-0.26,-173.0,342.6,265.0,0.12,-9.74,-0.05,0.0,0.9202716990106781,2.9849790619031147,0.07198648789055828,0.35,0,7,0.0
8.233862926999791,518,5904.43,94.5,4.8,58.5,-0.23,-2.51,1.04,0.08,0.85,-0.25,-169.4,367.2,224.0,0.02,-10.24,-0.14,0.0,0.8896066546513689,2.7266462916924152,0.10059850160487005,0.35,0,7,0.0
8.245305612000266,519,5904.44,94.5,4.9,58.7,-0.04,-2.36,1.05,0.09,0.83,-0.24,-165.6,387.7,244.0,-0.08,-10.99,-0.09,0.0,0.86867715521936,2.583350537577121,0.11909744101614139,0.35,0,7,0.0
8.253680550999889,520,5904.45,94.6,5.0,59.0,-0.06,-2.16,1.07,0.11,0.84,-0.26,-161.5,417.5,258.0,-0.19,-11.65,-0.11,0.0,0.8861715409558129,2.4112444919584575,0.09957099417409476,0.35,0,7,0.0
8.26522107100027,521,5904.46,94.6,5.1,59.2,-0.19,-1.83,1.12,0.08,0.82,-0.27,-157.2,432.9,158.0,-0.31,-11.88,-0.07,0.0,0.8670063436907482,2.1539266468475664,0.11636146761037613,0.35,0,7,0.0
8.273844592999922,522,5904.47,94.6,5.2,59.3,0.09,-1.63,1.05,0.03,0.8,-0.27,-152.8,439.0,69.0,-0.43,-11.92,-0.05,0.0,0.844866853415377,1.9410048943781673,0.13573093872803244,0.35,0,7,0.0
8.285248051000053,523,5904.48,94.6,5.3,59.5,0.73,-1.55,0.88,-0.01,0.79,-0.29,-148.5,435.2,-14.0,-0.55,-11.71,0.05,0.0,0.8416056083463322,1.926084110312943,0.1362123401211357,0.35,0,7,0.0
8.293867899999896,524,5904.49,94.8,5.3,59.7,1.41,-1.54,0.65,0.0,0.83,-0.29,-144.2,412.0,-281.0,-0.66,-10.3,0.01,0.0,0.8792041856133306,2.186824181318654,0.0966414875970546,0.35,0,7,0.0
8.305234794000171,525,5904.5,94.9,5.4,59.8,1.74,-1.19,0.51,-0.04,0.91,-0.33,-140.6,341.5,-632.0,-0.74,-7.98,0.4,0.0,0.9688137075826292,2.168824566441463,0.006891326315200841,0.35,0,7,0.0
8.313743792999958,526,5904.51,95.1,5.4,59.9,1.39,-1.17,0.47,0.0,0.96,-0.3,-137.8,252.3,-816.0,-0.8,-5.46,0.33,0.0,1.0057832768544126,1.8766725873204413,0.029476678097450915,0.35,0,7,0.0
8.325236747999952,527,5904.52,95.2,5.4,60.0,1.4,-1.1,0.43,0.07,1.0,-0.35,-135.9,155.5,-936.0,-0.84,-2.7,0.28,0.0,1.0617909398747005,1.831638610643486,0.08377465429538411,0.35,0,7,0.0
8.333876374000283,528,5904.53,95.4,5.5,60.2,1.5,-0.94,0.46,0.11,1.05,-0.37,-135.1,52.6,-992.0,-0.85,0.02,0.27,0.0,1.1187046080176841,1.8289887916551046,0.1378745559896003,0.35,0,7,0.0
8.345331808000083,529,5904.54,95.5,5.5,60.2,1.04,-0.86,0.64,0.1,1.08,-0.37,-135.1,-26.9,-728.0,-0.84,1.38,0.25,0.0,1.145993019175946,1.4935862880998876,0.16185970780490488,0.35,0,7,0.0
8.353721233000215,530,5904.55,95.6,5.6,60.3,0.26,-0.92,0.9,0.05,1.08,-0.36,-135.7,-67.7,-497.0,-0.82,2.39,0.2,0.0,1.1395174417269796,1.3130118049735884,0.15227644774881965,0.35,0,7,0.0
8.36524728600034,531,5904.56,95.6,5.7,60.5,-0.3,-1.04,1.2,-0.03,1.04,-0.31,-136.7,-107.0,-450.0,-0.78,3.59,0.07,0.0,1.0856334556377674,1.616044553841261,0.09642461242641531,0.35,0,7,0.0
8.37375115299983,532,5904.57,95.6,5.8,60.6,-0.12,-1.67,1.19,-0.08,0.98,-0.25,-138.0,-153.0,-461.0,-0.74,4.88,0.16,0.0,1.0145442326483356,2.0541178155110775,0.024828681648243922,0.35,0,7,0.0
8.38512490300036,533,5904.58,95.7,5.9,60.8,1.54,-2.03,0.66,0.01,1.0,-0.32,-139.9,-204.1,-515.0,-0.68,6.38,0.03,0.0,1.05,2.6321284163201457,0.05907876001991019,0.35,0,7,0.0
8.393795111000145,534,5904.59,95.9,5.9,61.0,2.78,-1.58,0.0,0.09,1.11,-0.31,-142.4,-261.7,-557.0,-0.61,7.96,0.19,0.0,1.155984428960875,3.1976241179976106,0.1617619252011694,0.35,0,7,0.0
8.405066289000388,535,5904.6,96.2,5.8,61.1,2.66,-1.49,-0.98,0.19,1.16,-0.26,-145.3,-312.8,-474.0,-0.52,9.01,0.0,0.0,1.2038687636117154,3.202514636968893,0.20545333465496962,0.35,0,7,0.0
8.413751810000576,536,5904.61,96.5,5.6,61.3,2.01,-1.48,-2.03,0.24,1.19,-0.24,-148.7,-341.6,-309.0,-0.42,9.55,0.07,0.0,1.237457069962429,3.2173591655269074,0.2342608081855695,0.35,0,7,0.0
8.425345506000667,537,5904.62,96.7,5.4,61.4,1.26,-1.37,-2.82,0.29,1.18,-0.26,-152.2,-355.1,-151.0,-0.33,9.66,0.0,0.0,1.2426182036329583,3.3788903503961176,0.23463350301897679,0.35,0,7,0.0
8.433841198000664,538,5904.63,96.8,5.0,61.5,1.21,-0.83,-3.39,0.35,1.18,-0.27,-155.8,-352.0,-1.0,-0.23,9.43,-0.02,0.0,1.2600793625799924,3.6939274492063325,0.2470527687266908,0.35,0,7,0.0
8.445291634000569,539,5904.64,96.9,4.7,61.5,1.8,0.02,-3.84,0.37,1.21,-0.23,-159.2,-339.9,101.0,-0.14,8.95,0.14,0.0,1.2860404348231045,4.240990450354729,0.26755356415040676,0.35,0,7,0.0
8.453858648000278,540,5904.65,97.1,4.3,61.3,1.92,1.05,-4.42,0.33,1.25,-0.15,-162.4,-315.8,228.0,-0.06,8.07,-0.12,0.0,1.3014991356124674,4.932068531559552,0.2773520196409742,0.35,0,7,0.0
8.465185443999871,541,5904.66,97.3,3.8,61.1,1.93,2.04,-5.2,0.33,1.34,-0.09,-165.4,-278.2,347.0,0.01,6.95,-0.02,0.0,1.3829678231976332,5.90986463465958,0.35164429308161727,0.35,0,8,0.0
8.473698114999934,542,5904.67,97.5,3.3,60.8,2.16,3.04,-5.57,0.33,1.49,0.03,-167.9,-240.2,345.0,0.07,6.05,-0.16,0.0,1.5264009958068032,6.703141054759329,0.48517591637697155,0.35,0,8,0.0
8.485141209000176,543,5904.68,97.6,2.8,60.4,1.2,3.25,-4.87,0.18,1.55,0.12,-170.0,-207.8,327.0,0.12,5.14,0.16,0.0,1.5650239614779067,5.976570923196679,0.5133229044071135,0.35,0,8,0.0
8.493782168000507,544,5904.69,97.7,2.5,60.0,-0.1,2.93,-3.41,-0.13,1.43,0.22,-171.9,-176.1,315.0,0.17,4.34,0.03,0.0,1.4526527458412075,4.496998999332778,0.39293265499500607,0.35,0,8,0.0
8.50506162200054,545,5904.7,97.6,2.2,59.8,-0.65,1.65,-1.81,-0.41,1.27,0.36,-173.5,-147.2,282.0,0.21,3.65,-0.1,0.0,1.3822445514452208,2.533988950252151,0.3160739713870391,0.35,0,8,0.0
8.513781180000478,546,5904.71,97.6,2.1,59.7,0.09,-0.26,-0.55,-0.54,1.12,0.42,-174.8,-125.8,222.0,0.24,3.18,0.11,0.0,1.3124023773218334,0.614979674460872,0.2413071613183786,0.35,0,8,0.0
8.525139348000266,547,5904.72,97.6,2.1,59.8,1.13,-2.41,0.35,-0.56,1.07,0.47,-175.9,-110.5,169.0,0.27,2.81,-0.26,0.0,1.2959166639873108,2.68467875173176,0.22032501902417878,0.35,0,8,0.0
8.533877278000546,548,5904.73,97.8,2.1,60.2,1.1,-4.61,0.85,-0.54,1.09,0.48,-176.9,-98.3,134.0,0.3,2.5,0.0,0.0,1.3077079184588585,4.815038940652506,0.2274739480258119,0.35,0,8,0.0
8.545337929000198,549,5904.74,97.8,2.2,60.8,-0.17,-6.18,1.03,-0.37,1.02,0.36,-177.8,-85.9,130.0,0.32,2.13,0.01,0.0,1.1431972708154967,6.267551355992226,0.06170403437480121,0.35,0,8,0.0
8.553797557000507,550,5904.75,97.8,2.1,61.5,-1.32,-7.29,0.58,-0.17,1.01,0.26,-178.6,-72.5,135.0,0.34,1.75,0.16,0.0,1.0566929544574433,7.431211206795296,0.024304276343587228,0.35,0,8,0.0
8.565122594000059,551,5904.76,97.6,2.1,62.2,-2.62,-7.87,0.14,0.03,0.98,0.13,-179.2,-57.1,155.0,0.35,1.3,-0.1,0.0,0.9890399385262457,8.295836305038812,0.09011814642928917,0.35,0,8,0.0
8.573772960000497,552,5904.77,97.3,2.0,63.0,-4.02,-7.61,-0.36,0.2,0.91,0.0,-179.7,-38.9,178.0,0.36,0.79,-0.04,0.0,0.9317188417113824,8.614064081489062,0.14449045837926944,0.35,0,8,0.0
8.585184993999974,553,5904.78,96.9,1.8,63.7,-5.01,-6.74,-0.64,0.3,0.9,-0.11,-179.9,-20.3,183.0,0.37,0.27,0.0,0.0,0.9550392662084632,8.422428390909596,0.11874663320454482,0.35,0,8,0.0
8.59377613200013,554,5904.79,96.4,1.7,64.3,-5.05,-5.49,-0.78,0.38,0.87,-0.16,-180.0,-3.0,158.0,0.37,-0.08,-0.07,0.0,0.9627564593395361,7.5000666663703734,0.10880885127200246,0.35,0,8,0.0
8.605059502000586,555,5904.8,95.9,1.5,64.8,-4.04,-4.11,-0.66,0.38,0.85,-0.16,-180.0,4.1,71.0,0.36,-0.1,0.16,0.0,0.9447221813845591,5.800801668735107,0.12430626664243982,0.35,0,8,0.0
8.61374773100033,556,5904.81,95.6,1.5,65.1,-2.93,-3.23,-0.19,0.35,0.85,-0.14,-180.0,1.2,-15.0,0.36,0.06,0.14,0.0,0.9298386956886661,4.36507731890284,0.13640595729156624,0.35,0,8,0.0
8.625015057999917,557,5904.82,95.4,1.4,65.4,-0.99,-2.3,0.11,0.28,0.81,-0.18,-180.0,-5.0,-39.0,0.37,0.21,0.08,0.0,0.8757282683572571,2.5064317265786435,0.18670605693051567,0.35,0,8,0.0
8.633828686000015,558,5904.83,95.4,1.5,65.6,0.61,-1.67,0.58,0.21,0.88,-0.13,-180.1,-10.6,-55.0,0.37,0.39,-0.09,0.0,0.9140021881811882,1.870133685061044,0.14546349436445305,0.35,0,8,0.0
8.645287533000555,559,5904.84,95.5,1.5,65.7,1.5,-1.2,0.9,0.16,0.94,-0.13,-180.2,-20.5,-105.0,0.38,0.78,0.03,0.0,0.9623408959407264,2.1213203435596424,0.09518229087281649,0.35,0,8,0.0
8.653812384000048,560,5904.85,95.7,1.6,65.8,1.65,-0.95,1.05,0.11,0.99,-0.09,-180.6,-35.9,-143.0,0.39,1.25,-0.05,0.0,1.0001499887516871,2.17428149051589,0.056225734100618485,0.35,0,8,0.0
8.664981364000596,561,5904.86,95.8,1.8,65.9,0.81,-0.97,1.16,0.07,1.02,-0.07,-181.0,-54.1,-168.0,0.4,1.75,0.06,0.0,1.024792661956554,1.7154008277950665,0.030951399677836555,0.35,0,8,0.0
8.673861057000067,562,5904.87,95.8,1.9,66.1,-0.63,-1.19,1.25,0.05,1.01,-0.07,-181.7,-74.0,-194.0,0.42,2.31,0.06,0.0,1.0136567466356645,1.8372533848111423,0.0412455686987514,0.35,0,8,0.0
8.685110417000033,563,5904.88,95.7,2.0,66.2,-1.58,-1.28,1.16,0.05,0.96,-0.09,-182.6,-93.1,-181.0,0.45,2.77,0.27,0.0,0.9655050491841044,2.341025416350707,0.08760932082730521,0.35,0,8,0.0
8.69379315200058,564,5904.89,95.5,2.1,66.3,-1.99,-1.33,1.07,0.06,0.92,-0.1,-183.6,-109.2,-161.0,0.48,3.17,-0.18,0.0,0.9273618495495705,2.621812350264603,0.12323747005260233,0.35,0,8,0.0
8.705088858000636,565,5904.9,95.3,2.3,66.5,-1.85,-1.27,0.96,0.09,0.88,-0.13,-184.8,-121.9,-126.0,0.52,3.44,0.21,0.0,0.8940917178902844,2.4406966218684367,0.15337744967765066,0.35,0,8,0.0
8.713769425000464,566,5904.91,95.2,2.3,66.6,-1.36,-1.05,0.84,0.11,0.87,-0.15,-186.1,-130.1,-88.0,0.55,3.63,-0.02,0.0,0.8896628574915332,1.9125114378742942,0.15465018387487384,0.35,0,8,0.0
8.725025827000536,567,5904.92,95.1,2.4,66.7,-1.01,-0.93,0.86,0.13,0.89,-0.17,-187.5,-136.7,-73.0,0.59,3.78,0.06,0.0,0.9153687781435415,1.6200617272190587,0.1263653779584083,0.35,0,8,0.0
8.733860256999833,568,5904.93,95.0,2.5,66.8,-0.69,-0.75,0.97,0.13,0.9,-0.19,-188.8,-139.9,-36.0,0.63,3.82,-0.11,0.0,0.9289779329994874,1.406947049465615,0.11050109864041313,0.35,0,8,0.0
8.745231892000447,569,5904.94,95.0,2.6,66.9,-0.35,-0.54,1.08,0.14,0.9,-0.21,-190.3,-140.6,-10.0,0.66,3.79,0.11,0.0,0.9347192091746056,1.257179382586272,0.10266462601598902,0.35,0,8,0.0
8.753858711999783,570,5904.95,94.9,2.7,66.9,-0.17,-0.31,1.2,0.13,0.92,-0.21,-191.6,-138.9,10.0,0.7,3.75,-0.1,0.0,0.9525754563287887,1.2509996003196804,0.08311221128456991,0.35,0,8,0.0
8.76514939200024,571,5904.96,94.9,2.8,67.0,-0.31,-0.12,1.29,0.13,0.92,-0.22,-193.0,-136.0,30.0,0.74,3.62,-0.17,0.0,0.954829827770373,1.3321411336641475,0.07924068304612597,0.35,0,8,0.0
8.773833735000153,572,5904.97,94.9,3.0,67.0,-0.58,0.0,1.31,0.12,0.91,-0.22,-194.3,-131.3,39.0,0.77,3.51,0.14,0.0,0.9438749917229505,1.4326548781894404,0.0883916087116774,0.35,0,8,0.0
8.785050055999818,573,5904.98,94.8,3.1,67.0,-0.9,0.08,1.23,0.13,0.89,-0.22,-195.6,-126.7,52.0,0.81,3.33,0.02,0.0,0.9259589623736033,1.5262044423995103,0.1041814852998042,0.35,0,8,0.0
8.793869324999832,574,5904.99,94.7,3.2,67.0,-1.32,0.16,1.04,0.14,0.86,-0.24,-196.8,-119.5,65.0,0.84,3.12,-0.1,0.0,0.9037698822156002,1.6880758276807355,0.1238431541486511,0.35,0,8,0.0
8.805107459000283,575,5905.0,94.5,3.3,67.0,-1.77,0.27,0.73,0.17,0.82,-0.24,-198.0,-110.7,91.0,0.87,2.86,-0.28,0.0,0.8711486669908873,1.9335718243706388,0.15333508198589663,0.35,0,8,0.0
8.813762877000045,576,5905.01,94.3,3.3,66.9,-2.38,0.45,0.3,0.2,0.77,-0.24,-198.9,-100.7,149.0,0.9,2.48,-0.03,0.0,0.8309632964216891,2.440676135827939,0.18965004350399295,0.35,0,8,0.0
8.825085623000632,577,5905.02,94.0,3.4,66.9,-3.03,0.81,-0.16,0.25,0.72,-0.25,-200.0,-84.3,137.0,0.92,2.14,-0.05,0.0,0.802122185206219,3.140477670673683,0.21412133162507385,0.35,0,8,0.0
8.833830239000235,578,5905.03,93.7,3.3,66.8,-3.23,1.36,-0.58,0.27,0.68,-0.27,-200.8,-72.8,125.0,0.94,1.82,0.07,0.0,0.7798717843338097,3.5523091081717535,0.2316442978475335,0.35,0,8,0.0
8.84520164300011,579,5905.04,93.4,3.3,66.6,-3.03,1.84,-0.7,0.27,0.7,-0.22,-201.4,-62.8,99.0,0.95,1.6,-0.14,0.0,0.7818567643756751,3.6133779210041124,0.22506613144955478,0.35,0,8,0.0
8.853805515000204,580,5905.05,93.1,3.2,66.4,-2.04,2.29,-0.65,0.23,0.68,-0.21,-202.0,-56.4,65.0,0.97,1.48,0.01,0.0,0.7479304780526063,3.134996012756635,0.25381256941717123,0.35,0,8,0.0
8.865219795000485,581,5905.06,93.0,3.2,66.1,-0.47,2.64,-0.57,0.17,0.66,-0.21,-202.5,-53.7,32.0,0.98,1.45,-0.05,0.0,0.7131619731870174,2.741422988157793,0.2828094527971049,0.35,0,8,0.0
8.87388521000048,582,5905.07,93.0,3.1,65.9,1.13,2.79,-0.52,0.09,0.67,-0.2,-203.1,-56.1,-20.0,1.0,1.6,-0.1,0.0,0.7049822692805827,3.054734030975528,0.2851693735694687,0.35,0,8,0.0
8.885114628000338,583,5905.08,93.2,3.1,65.6,2.33,2.69,-0.6,0.04,0.71,-0.2,-203.7,-62.3,-52.0,1.02,1.78,-0.21,0.0,0.7387151006985034,3.6090164865237173,0.24640781130851697,0.35,0,8,0.0
8.893845800000236,584,5905.09,93.4,3.0,65.3,3.03,2.49,-0.64,0.01,0.82,-0.17,-204.4,-72.0,-91.0,1.04,2.09,0.19,0.0,0.8374962686484041,3.973738793629999,0.14467411049144396,0.35,0,8,0.0
8.905137864000608,585,5905.1,93.8,3.0,65.1,3.22,2.23,-0.54,0.0,0.94,-0.12,-205.2,-84.7,-127.0,1.06,2.51,-0.09,0.0,0.9476286192385707,3.953846228674049,0.033850924703251795,0.35,0,8,0.0
8.913772711000092,586,5905.11,94.1,2.9,64.9,3.14,1.74,-0.32,-0.02,1.05,-0.03,-206.1,-100.6,-143.0,1.09,2.9,0.01,0.0,1.0506188652408637,3.6041087663942664,0.06775653487306044,0.35,0,8,0.0
8.92513710700041,587,5905.12,94.3,2.9,64.7,2.7,1.04,-0.09,-0.02,1.12,-0.02,-207.2,-116.0,-155.0,1.12,3.34,0.0,0.0,1.1203570859328735,2.894771148122076,0.13474486045376888,0.35,0,8,0.0
8.933876860000055,588,5905.13,94.5,2.8,64.7,1.54,0.44,0.04,-0.01,1.15,-0.07,-208.5,-129.1,-122.0,1.16,3.62,0.0,0.0,1.152171862180291,1.6021235907382425,0.16322844396716263,0.35,0,8,0.0
8.945078304000162,589,5905.14,94.6,2.8,64.6,-0.18,0.04,0.06,0.02,1.1,-0.21,-209.9,-137.3,-86.0,1.19,3.79,0.23,0.0,1.120044641967453,0.19390719429665315,0.12847919927923812,0.35,0,8,0.0
8.953831212000296,590,5905.15,94.5,2.8,64.6,-1.02,0.08,0.04,0.11,1.08,-0.32,-211.3,-145.2,-80.0,1.23,4.02,0.15,0.0,1.1317685275708986,1.0239140588936164,0.13739902318503006,0.35,0,8,0.0
8.965327699999762,591,5905.16,94.5,2.8,64.6,-0.23,0.45,0.26,0.14,1.12,-0.35,-212.8,-151.7,-70.0,1.28,4.2,0.05,0.0,1.1817360111293893,0.5683308895353129,0.18361917660865035,0.35,0,8,0.0
8.973682356000609,592,5905.17,94.5,2.9,64.6,1.3,0.67,0.52,0.16,1.17,-0.3,-214.4,-160.0,-90.0,1.32,4.49,-0.06,0.0,1.218400590938793,1.5521919984331836,0.215878081289693,0.35,0,8,0.0
8.985143920000155,593,5905.18,94.7,2.9,64.5,2.09,0.67,0.85,0.13,1.24,-0.24,-216.0,-172.6,-116.0,1.37,4.83,0.1,0.0,1.2696850003051938,2.3536142419691464,0.26181924084297203,0.35,0,8,0.0
8.993821066999772,594,5905.19,94.9,3.1,64.4,1.99,0.5,1.14,0.1,1.26,-0.26,-217.9,-186.1,-136.0,1.42,5.25,0.05,0.0,1.290426286155083,2.3472750158428393,0.27690931615900394,0.35,0,8,0.0
9.00512516300023,595,5905.2,95.1,3.2,64.4,1.35,0.34,1.21,0.1,1.24,-0.27,-219.8,-202.2,-155.0,1.47,5.7,0.05,0.0,1.2729886095327012,1.8445053537466354,0.25428220674588964,0.35,0,8,0.0
9.01382482200006,596,5905.21,95.2,3.3,64.4,0.85,0.33,1.14,0.11,1.25,-0.26,-222.0,-218.6,-163.0,1.53,6.14,0.07,0.0,1.2814835153056008,1.4597945060863875,0.2575215702684135,0.35,0,8,0.0
9.025194427000315,597,5905.22,95.3,3.4,64.4,0.76,0.58,1.1,0.08,1.3,-0.19,-224.3,-236.3,-176.0,1.6,6.65,0.11,0.0,1.3162446581088183,1.4573949361789345,0.2864370588101983,0.35,0,8,0.0
9.033866433000185,598,5905.23,95.4,3.5,64.3,1.1,0.7,1.08,0.06,1.36,-0.06,-226.8,-256.4,-188.0,1.67,7.19,0.2,0.0,1.3626444877516661,1.6930445948054649,0.3261801506839852,0.35,0,8,0.0
9.04523415499989,599,5905.24,95.5,3.6,64.2,0.97,0.63,1.14,0.08,1.43,0.0,-229.5,-274.8,-181.0,1.74,7.69,0.11,0.0,1.4322360140703068,1.6240073891457514,0.3878562434625734,0.35,1,9,3.0
9.053840286000195,600,5905.25,95.5,3.8,64.2,0.91,0.88,1.46,0.09,1.54,0.01,-232.3,-292.4,-188.0,1.82,8.2,0.0,0.0,1.5426600403199664,1.9323819498225498,0.4883146643179883,0.35,0,9,3.0
9.065218345000176,601,5905.26,95.6,4.0,64.1,0.48,1.05,1.91,0.05,1.5,0.06,-235.4,-301.3,99.0,1.91,7.3,3.1,3.49,1.502031957050182,2.231815404552984,0.43873284942724,0.35,0,9,3.0
9.073780561000603,602,5905.27,95.5,4.2,64.0,-0.65,0.96,2.03,0.07,1.34,0.06,-237.6,-175.4,1078.0,1.95,2.8,3.09,3.49,1.3431678971744374,2.3377339455121917,0.2742714137604654,0.35,0,9,3.0
9.085151549999864,603,5905.28,95.4,4.4,63.9,-1.91,1.39,2.0,0.18,1.23,0.0,-238.3,-32.6,1187.0,1.95,-0.48,3.3,3.49,1.2431009613060398,3.0951898164732965,0.17072038833422631,0.35,0,9,3.0
9.093805702999816,604,5905.29,95.1,4.6,63.8,-2.75,2.33,1.91,0.26,1.1,-0.01,-238.1,43.9,705.0,1.94,-1.54,3.4,3.49,1.1303539268742335,4.079154324121607,0.05681388682437172,0.35,0,9,3.0
9.105113601000085,605,5905.3,94.8,4.8,63.5,-3.11,3.42,1.74,0.28,0.97,0.02,-237.4,68.2,381.0,1.92,-2.08,3.64,3.49,1.00980196078241,4.939240832354705,0.06246331768210278,0.35,0,9,3.0
9.113770089999889,606,5905.31,94.5,5.0,63.1,-2.49,4.44,1.46,0.33,0.92,0.12,-236.7,74.8,102.0,1.9,-1.9,3.38,3.49,0.984733466477097,5.295781339896881,0.08578117574766742,0.35,0,9,3.0
9.125026206999792,607,5905.32,94.2,5.2,62.6,-1.98,5.08,1.47,0.34,0.91,0.12,-236.0,71.7,41.0,1.88,-1.96,3.43,3.49,0.9788258272031853,5.646919514213037,0.08985503872114742,0.35,0,9,3.0
9.133811007000077,608,5905.33,94.0,5.4,62.1,-1.76,5.74,1.64,0.31,0.85,0.1,-235.3,67.9,-21.0,1.86,-1.8,3.47,3.49,0.910274683818022,6.223728785864628,0.1552380584641846,0.35,0,9,3.0
9.145226988000104,609,5905.34,93.8,5.6,61.5,-0.94,6.18,1.51,0.24,0.8,0.15,-234.5,78.8,127.0,1.84,-2.41,3.44,3.49,0.8485870609430715,6.430870858600723,0.21258716771235253,0.35,0,9,3.0
9.153850693000095,610,5905.35,93.7,5.8,60.9,-0.05,5.99,1.27,0.19,0.84,0.24,-233.6,104.0,252.0,1.81,-3.29,3.47,3.49,0.8940357934669059,6.123356922473163,0.16379566648474775,0.35,0,9,3.0
9.165158912000152,611,5905.36,93.7,5.9,60.3,0.58,5.45,0.88,0.12,0.9,0.23,-232.3,142.9,366.0,1.77,-4.46,3.39,3.49,0.9366429415737888,5.550972887701759,0.11876474801030745,0.35,0,9,3.0
9.173760663999929,612,5905.37,93.7,6.0,59.8,0.74,4.98,0.36,0.05,0.93,0.15,-230.5,190.6,444.0,1.71,-5.76,3.02,3.49,0.9433451118228153,5.0475340513957905,0.10982132620605523,0.35,0,9,3.0
9.18489878299988,613,5905.38,93.7,6.0,59.3,0.72,4.61,-0.16,-0.01,0.95,0.15,-228.3,241.3,487.0,1.65,-7.17,3.1,3.49,0.9618211892030659,4.668629349177337,0.08951834384928858,0.35,0,9,3.0
9.193630765000307,614,5905.39,93.7,6.0,58.9,0.18,4.04,-0.6,-0.06,0.94,0.14,-225.5,290.3,469.0,1.57,-8.41,2.96,3.49,0.9522604685693931,4.088275920238261,0.09709748319330214,0.35,0,9,3.0
9.205099150000024,615,5905.4,93.6,6.0,58.5,-0.55,3.47,-0.9,-0.09,0.91,0.1,-222.3,334.6,448.0,1.47,-9.67,3.54,3.49,0.9198912979260104,3.626761640913282,0.12687732075995106,0.35,0,9,3.0
9.217702929000552,616,5905.41,93.5,5.9,58.2,-0.78,3.16,-1.09,-0.08,0.86,0.06,-218.7,377.4,428.0,1.37,-10.73,3.7,3.49,0.8657944328765345,3.4325063729001295,0.17735470209323856,0.35,0,9,3.0
9.225784389000182,617,5905.42,93.4,5.8,57.9,-0.61,2.96,-1.2,-0.05,0.82,0.02,-214.7,408.5,316.0,1.26,-11.42,3.56,3.49,0.8217663901620702,3.251722620396764,0.21695508991154866,0.35,0,9,0.0
9.233805429000313,618,5905.43,93.4,5.7,57.6,-0.25,2.89,-1.33,0.0,0.8,-0.01,-210.4,435.5,307.0,1.14,-12.23,3.23,3.49,0.8000624975587846,3.191159663821289,0.23388580286453753,0.35,0,9,0.0
9.245231874000638,619,5905.44,93.3,5.5,57.3,0.06,2.93,-1.41,0.03,0.83,-0.03,-205.9,447.1,-108.0,1.02,-11.11,0.62,0.0,0.8310836299675262,3.252168507319386,0.19880737704668006,0.35,0,9,0.0
9.253673657000036,620,5905.45,93.3,5.4,57.0,0.05,3.01,-1.41,0.04,0.85,-0.04,-202.2,325.2,-951.0,0.93,-7.24,0.2,0.0,0.8518802732778826,3.3242593159980762,0.17445051906159714,0.35,0,9,0.0
9.265219289000015,621,5905.46,93.3,5.2,56.6,0.2,2.9,-1.51,0.11,0.86,-0.04,-199.8,209.6,-985.0,0.88,-4.57,0.3,0.0,0.867928568489366,3.275683134859048,0.15523417937311146,0.35,0,9,0.0
9.273817330000384,622,5905.47,93.3,5.1,56.3,0.56,3.06,-1.53,0.12,0.89,-0.09,-198.3,127.0,-816.0,0.85,-2.64,0.39,0.0,0.9025519375637061,3.466713140714126,0.11819859409279587,0.35,0,9,0.0
9.285073992000434,623,5905.48,93.3,5.0,56.0,0.21,3.24,-1.42,0.06,0.91,-0.13,-197.4,70.5,-589.0,0.83,-1.41,0.15,0.0,0.9211948762341224,3.5437409611877677,0.09756454231393197,0.35,0,9,0.0
9.293790708000415,624,5905.49,93.3,4.9,55.7,-0.15,3.39,-1.19,0.0,0.9,-0.11,-196.9,39.4,-347.0,0.82,-0.86,0.04,0.0,0.906697303403953,3.595928252899382,0.10982087284121944,0.35,0,9,0.0
9.305193320999933,625,5905.5,93.3,4.8,55.3,-0.19,3.28,-1.0,-0.04,0.87,-0.06,-196.6,28.4,-161.0,0.81,-0.71,-0.1,0.0,0.8729833904490968,3.4343121582057736,0.14066409008015424,0.35,0,9,0.0
9.313750264000191,626,5905.51,93.2,4.7,55.0,0.03,2.97,-0.83,-0.08,0.86,-0.06,-196.4,27.3,-33.0,0.81,-0.83,-0.08,0.0,0.8657944328765345,3.083942282209575,0.1448959866996623,0.35,0,9,0.0
9.324967515000026,627,5905.52,93.2,4.7,54.7,0.26,2.6,-0.7,-0.1,0.86,-0.07,-196.0,39.7,88.0,0.8,-1.27,0.1,0.0,0.8686195945291586,2.7051062825700583,0.13922940854609744,0.35,0,9,0.0
9.333889612999883,628,5905.53,93.3,4.6,54.5,0.38,2.18,-0.58,-0.11,0.87,-0.06,-195.5,58.1,162.0,0.78,-1.83,-0.1,0.0,0.8789766777338294,2.287618849371547,0.12629487883459822,0.35,0,9,0.0
9.34520441299992,629,5905.54,93.3,4.6,54.3,0.4,1.69,-0.52,-0.11,0.88,-0.05,-194.8,78.0,186.0,0.76,-2.37,-0.17,0.0,0.888256719648098,1.8128706517564896,0.11467454018192302,0.35,0,9,0.0
9.353832765000334,630,5905.55,93.3,4.5,54.1,0.16,1.2,-0.41,-0.12,0.89,-0.06,-193.8,99.5,210.0,0.73,-2.98,-0.32,0.0,0.9000555538409838,1.2781627439414747,0.10081819186925656,0.35,0,9,0.0
9.365213199000209,631,5905.56,93.3,4.5,54.1,-0.07,0.71,-0.32,-0.14,0.89,-0.07,-192.7,122.0,219.0,0.69,-3.6,-0.18,0.0,0.9036592278065886,0.7819207120929845,0.09527022754557868,0.35,0,9,0.0
9.373784645000342,632,5905.57,93.3,4.5,54.0,-0.23,0.22,-0.25,-0.14,0.88,-0.09,-191.3,143.5,219.0,0.65,-4.18,-0.08,0.0,0.8956003573022958,0.40472212689696124,0.10126251608887404,0.35,0,9,0.0
9.385114757999872,633,5905.58,93.2,4.4,54.0,-0.25,-0.16,-0.15,-0.12,0.89,-0.12,-189.7,166.1,226.0,0.61,-4.81,-0.01,0.0,0.9060353193998565,0.33256578296631784,0.08901100291148711,0.35,0,9,0.0
9.393861747000301,634,5905.59,93.2,4.4,54.0,-0.31,-0.45,0.02,-0.1,0.91,-0.12,-187.9,189.4,229.0,0.56,-5.43,0.06,0.0,0.9233092656309694,0.5468089245796927,0.07030231554676669,0.35,0,9,0.0
9.405105969000033,635,5905.6,93.2,4.4,54.1,-0.38,-0.73,0.18,-0.07,0.91,-0.13,-185.9,212.1,228.0,0.5,-6.05,0.01,0.0,0.9219002115196634,0.8424369412602939,0.07027714226491122,0.35,0,9,0.0
9.413773557999775,636,5905.61,93.2,4.5,54.2,-0.43,-0.91,0.32,-0.04,0.92,-0.16,-183.6,236.9,246.0,0.43,-6.75,-0.12,0.0,0.9346657156438338,1.056124992602675,0.056361405377926,0.35,0,9,0.0
9.425213849000102,637,5905.62,93.1,4.5,54.3,-0.47,-1.04,0.51,-0.02,0.92,-0.19,-181.0,261.7,239.0,0.36,-7.39,0.01,0.0,0.9396275858019495,1.2500399993600206,0.050371544515414146,0.35,0,9,0.0
9.433854449000137,638,5905.63,93.1,4.6,54.4,-0.49,-1.17,0.73,0.0,0.91,-0.21,-178.2,283.9,221.0,0.28,-7.96,0.0,0.0,0.9339164844888435,1.4635231463834113,0.05496099291194978,0.35,0,9,0.0
9.44518909100043,639,5905.64,93.0,4.6,54.5,-0.38,-1.24,0.87,0.0,0.89,-0.22,-175.3,306.4,236.0,0.2,-8.64,0.12,0.0,0.9167878707749137,1.5616977940690062,0.07064781449336188,0.35,0,9,0.0
9.453845271000318,640,5905.65,93.0,4.7,54.7,-0.07,-1.31,0.93,0.0,0.87,-0.2,-172.0,332.9,254.0,0.11,-9.38,-0.02,0.0,0.8926925562588723,1.6080733814101893,0.09284826642921518,0.35,0,9,0.0
9.465098456000305,641,5905.66,93.1,4.8,54.8,0.08,-1.37,0.96,0.0,0.86,-0.19,-168.5,353.3,195.0,0.01,-9.79,-0.22,0.0,0.8807383266328314,1.6747835681066374,0.10270644613415103,0.35,0,9,0.0
9.473731159000636,642,5905.67,93.1,4.9,54.9,0.41,-1.45,0.95,0.0,0.84,-0.18,-164.9,373.8,244.0,-0.08,-10.55,0.14,0.0,0.8590692637965811,1.7813197354770423,0.12188799879099321,0.35,0,9,0.0
9.484658115999991,643,5905.68,93.2,5.0,55.1,0.98,-1.58,0.92,0.0,0.83,-0.18,-160.9,403.0,244.0,-0.19,-11.19,-0.4,0.0,0.8492938243034621,2.0744155803502826,0.12903016951842994,0.35,0,9,0.0
9.49351152500003,644,5905.69,93.3,5.1,55.3,1.59,-1.6,0.87,0.0,0.83,-0.19,-156.8,420.1,190.0,-0.31,-11.62,-0.19,0.0,0.85146931829632,2.4176434807473166,0.1243175820150606,0.35,0,9,0.0
