host_time_s,seq,device_time_s,roll,pitch,yaw,gyro_x,gyro_y,gyro_z,accel_x,accel_y,accel_z,belt_length,belt_velocity,belt_acceleration,motor_pos,motor_vel,motor_iq_meas,motor_iq_set,acc_mag,gyro_mag,acc_residual,threshold,heel_strike,hs_count,torque_cmd_nm
3.073472364000736,2,4851.89,-96.1,-0.8,-77.2,0.04,-0.35,-0.01,0.0,-1.0,-0.1,-193.2,0.0,0.0,0.73,0.0,-0.02,0.0,1.004987562112089,0.3524202037341219,0.0,0.28,0,0,0.0
3.0809996810003213,3,4851.9,-96.1,-0.8,-77.3,0.09,-0.36,-0.01,0.0,-1.0,-0.1,-193.2,-0.3,3.0,0.73,0.0,-0.08,0.0,1.004987562112089,0.3712142238654117,0.0,0.28,0,0,0.0
3.0930267370004003,4,4851.91,-96.1,-0.8,-77.3,0.11,-0.35,0.0,0.0,-0.99,-0.11,-193.2,-0.1,-6.0,0.73,0.03,-0.27,0.0,0.9960923651951158,0.3668787265568828,0.008717292978633773,0.28,0,0,0.0
3.1010388530003183,5,4851.92,-96.0,-0.8,-77.3,0.09,-0.33,0.0,0.0,-0.99,-0.11,-193.2,0.3,4.0,0.73,0.0,0.07,0.0,0.9960923651951158,0.3420526275297414,0.008542947119061117,0.28,0,0,0.0
3.1128751610003746,6,4851.93,-96.0,-0.7,-77.4,0.09,-0.29,0.0,0.0,-0.99,-0.11,-193.2,-0.3,0.0,0.73,0.0,-0.1,0.0,0.9960923651951158,0.30364452901377953,0.008372088176679893,0.28,0,0,0.0
3.1210244390003936,7,4851.94,-96.0,-0.7,-77.4,0.05,-0.26,0.0,-0.01,-0.99,-0.11,-193.2,0.3,-3.0,0.73,0.01,0.02,0.0,0.9961425600786264,0.26476404589747454,0.00815545542730578,0.28,0,0,0.0
3.132758233000459,8,4851.95,-96.0,-0.8,-77.4,0.07,-0.23,0.0,-0.01,-0.99,-0.11,-193.2,-0.1,1.0,0.73,0.0,0.09,0.0,0.9961425600786264,0.24041630560342617,0.007992346318759669,0.28,0,0,0.0
3.1409007960000963,9,4851.96,-96.0,-0.8,-77.4,0.1,-0.17,0.01,-0.01,-0.99,-0.11,-193.2,0.0,-2.0,0.73,0.0,0.07,0.0,0.9961425600786264,0.197484176581315,0.007832499392384396,0.28,0,0,0.0
3.152730299000723,10,4851.97,-96.0,-0.8,-77.5,0.08,-0.12,0.01,-0.01,-0.99,-0.11,-193.2,0.2,-3.0,0.73,0.01,-0.1,0.0,0.9961425600786264,0.1445683229480096,0.007675849404536805,0.28,0,0,0.0
3.1609633799998846,11,4851.98,-96.0,-0.8,-77.5,0.08,-0.07,0.01,0.0,-0.99,-0.11,-193.2,-0.2,3.0,0.73,-0.01,0.01,0.0,0.9960923651951158,0.10677078252031312,0.007571523402286506,0.28,0,0,0.0
3.172822465000536,12,4851.99,-96.0,-0.8,-77.5,0.08,-0.02,0.01,0.0,-0.99,-0.11,-193.2,0.0,-2.0,0.73,0.0,-0.26,0.0,0.9960923651951158,0.08306623862918075,0.007420092934240841,0.28,0,0,0.0
3.18099640499986,13,4852.0,-96.0,-0.7,-77.5,0.08,0.03,0.02,0.0,-0.99,-0.11,-193.2,0.0,3.0,0.73,0.0,0.05,0.0,0.9960923651951158,0.08774964387392122,0.0072716910755560304,0.28,0,0,0.0
3.192828780000127,14,4852.01,-96.0,-0.7,-77.5,0.08,0.09,0.05,0.0,-0.99,-0.11,-193.2,0.0,0.0,0.73,-0.01,-0.1,0.0,0.9960923651951158,0.130384048104053,0.00712625725404481,0.28,0,0,0.0
3.200860486000238,15,4852.02,-96.0,-0.7,-77.4,0.07,0.14,0.05,0.0,-0.99,-0.11,-193.2,0.0,1.0,0.73,0.0,-0.02,0.0,0.9960923651951158,0.16431676725154984,0.006983732108963969,0.28,0,0,0.0
3.21283061000031,16,4852.03,-96.0,-0.7,-77.4,0.08,0.17,0.05,-0.01,-0.99,-0.11,-193.2,0.1,3.0,0.73,0.0,0.0,0.0,0.9961425600786264,0.19442222095223582,0.006794866480944295,0.28,0,0,0.0
3.2210237610006516,17,4852.04,-96.0,-0.7,-77.4,0.08,0.2,0.05,-0.01,-0.98,-0.11,-193.2,-0.2,-3.0,0.73,0.0,-0.26,0.0,0.9862048468751307,0.22113344387495984,0.016397928090751246,0.28,0,0,0.0
3.23267419000058,18,4852.05,-96.0,-0.8,-77.4,0.07,0.22,0.06,-0.01,-0.98,-0.11,-193.2,0.0,0.0,0.73,-0.02,0.16,0.0,0.9862048468751307,0.23853720883753127,0.016069969528936245,0.28,0,0,0.0
3.2409812790001524,19,4852.06,-96.0,-0.8,-77.4,0.06,0.23,0.07,-0.01,-0.99,-0.1,-193.2,0.2,-3.0,0.73,0.0,0.16,0.0,0.9950879358127099,0.24779023386727736,0.007043142979529793,0.28,0,0,0.0
3.2528031740002916,20,4852.07,-96.0,-0.8,-77.3,0.07,0.23,0.07,-0.01,-0.99,-0.1,-193.2,0.0,0.0,0.73,0.01,-0.18,0.0,0.9950879358127099,0.2503996805109783,0.006902280119939097,0.28,0,0,0.0
3.2608419970001705,21,4852.08,-96.0,-0.8,-77.3,0.07,0.22,0.09,-0.01,-0.99,-0.1,-193.2,0.0,3.0,0.73,-0.02,0.16,0.0,0.9950879358127099,0.24779023386727733,0.0067642345175403795,0.28,0,0,0.0
3.2728512439998667,22,4852.09,-96.0,-0.8,-77.3,0.08,0.21,0.09,-0.01,-0.99,-0.1,-193.2,0.0,-3.0,0.73,0.02,-0.18,0.0,0.9950879358127099,0.2420743687382041,0.006628949827189534,0.28,0,0,0.0
3.2809799229999044,23,4852.1,-96.0,-0.8,-77.3,0.05,0.19,0.1,-0.01,-0.98,-0.1,-193.2,0.0,-2.0,0.73,0.0,0.06,0.0,0.9851395840184273,0.22045407685048604,0.016245755589042843,0.28,0,0,0.0
3.2928508940003667,24,4852.11,-96.0,-0.8,-77.2,0.05,0.17,0.1,-0.01,-0.98,-0.09,-193.2,-0.1,0.0,0.73,-0.01,0.14,0.0,0.9841747812253675,0.20346989949375807,0.016866347214460453,0.28,0,0,0.0
3.300876514000265,25,4852.12,-95.9,-0.8,-77.2,0.01,0.16,0.1,-0.01,-0.98,-0.09,-193.2,0.0,0.0,0.73,0.0,-0.11,0.0,0.9841747812253675,0.18894443627691185,0.016529020270171224,0.28,0,0,0.0
3.3128173889999744,26,4852.13,-95.9,-0.8,-77.2,-0.03,0.15,0.09,-0.02,-0.98,-0.09,-193.2,0.0,-2.0,0.73,0.0,0.0,0.0,0.9843271813782244,0.17748239349298847,0.016049087714967936,0.28,0,0,0.0
3.320887629000026,27,4852.14,-95.9,-0.8,-77.2,-0.04,0.13,0.08,-0.02,-0.98,-0.09,-193.2,0.0,4.0,0.73,-0.02,-0.01,0.0,0.9843271813782244,0.157797338380595,0.015728105960668648,0.28,0,0,0.0
3.3327719670005536,28,4852.15,-95.9,-0.8,-77.2,-0.04,0.1,0.09,-0.02,-0.98,-0.09,-193.2,0.2,-2.0,0.73,0.01,-0.02,0.0,0.9843271813782244,0.14035668847618202,0.015413543841455324,0.28,0,0,0.0
3.3408261080003285,29,4852.16,-95.9,-0.9,-77.2,-0.05,0.06,0.08,-0.02,-0.99,-0.09,-193.2,-0.3,1.0,0.73,-0.01,0.07,0.0,0.9942836617384396,0.11180339887498948,0.005347922211615286,0.28,0,0,0.0
3.3527923840001677,30,4852.17,-95.9,-0.9,-77.2,-0.05,0.0,0.08,-0.02,-0.99,-0.09,-193.2,0.1,-3.0,0.73,0.02,0.06,0.0,0.9942836617384396,0.09433981132056604,0.005240963767383033,0.28,0,0,0.0
3.360832655000195,31,4852.18,-95.9,-0.9,-77.2,-0.04,-0.02,0.07,-0.02,-0.99,-0.09,-193.2,0.0,4.0,0.73,0.0,-0.09,0.0,0.9942836617384396,0.08306623862918075,0.005136144492035366,0.28,0,0,0.0
3.3728684990001057,32,4852.19,-95.9,-0.9,-77.2,0.0,-0.06,0.07,-0.01,-0.99,-0.09,-193.2,-0.3,-3.0,0.73,0.0,-0.02,0.0,0.9941327879111522,0.09219544457292887,0.005181277952936325,0.28,0,0,0.0
3.3809548899998845,33,4852.2,-95.9,-0.9,-77.2,-0.02,-0.09,0.07,-0.01,-0.99,-0.1,-193.2,0.6,7.0,0.73,-0.01,0.17,0.0,0.9950879358127099,0.11575836902790225,0.004141607450351081,0.28,0,0,0.0
3.3927402380004423,34,4852.21,-95.9,-0.9,-77.2,-0.01,-0.12,0.07,-0.01,-0.99,-0.1,-193.2,-0.7,-8.0,0.73,0.0,0.08,0.0,0.9950879358127099,0.1392838827718412,0.00405877530134402,0.28,0,0,0.0
3.4010221309999906,35,4852.22,-95.9,-0.9,-77.2,-0.04,-0.15,0.05,-0.01,-0.99,-0.1,-193.2,0.4,1.0,0.73,0.0,0.07,0.0,0.9950879358127099,0.16309506430300091,0.003977599795317088,0.28,0,0,0.0
3.412715559999924,36,4852.23,-96.0,-0.9,-77.2,-0.05,-0.17,0.07,-0.01,-0.99,-0.1,-193.2,0.0,4.0,0.73,-0.02,-0.12,0.0,0.9950879358127099,0.19052558883257653,0.00389804779941072,0.28,0,0,0.0
3.420833641000172,37,4852.24,-96.0,-0.9,-77.2,-0.05,-0.18,0.06,-0.01,-0.99,-0.1,-193.2,-0.2,-1.0,0.73,0.0,-0.01,0.0,0.9950879358127099,0.19621416870348585,0.003820086843422499,0.28,0,0,0.0
3.432806987000731,38,4852.25,-96.0,-0.9,-77.3,-0.07,-0.18,0.05,-0.01,-0.99,-0.1,-193.2,0.3,3.0,0.73,-0.01,-0.02,0.0,0.9950879358127099,0.19949937343260005,0.0037436851065540955,0.28,0,0,0.0
3.440939365000304,39,4852.26,-96.0,-0.9,-77.3,-0.08,-0.18,0.05,-0.01,-0.99,-0.1,-193.2,0.0,2.0,0.73,0.0,0.05,0.0,0.9950879358127099,0.20322401432901577,0.003668811404422989,0.28,0,0,0.0
3.4527402190005887,40,4852.27,-96.0,-1.0,-77.3,-0.05,-0.18,0.04,-0.01,-0.99,-0.1,-193.2,0.1,1.0,0.73,0.0,0.16,0.0,0.9950879358127099,0.191049731745428,0.0035954351763345382,0.28,0,0,0.0
3.460821852000663,41,4852.28,-96.0,-1.0,-77.3,-0.03,-0.18,0.03,-0.01,-0.99,-0.1,-193.2,0.0,0.0,0.73,0.0,0.04,0.0,0.9950879358127099,0.18493242008906927,0.0035235264728078475,0.28,0,0,0.0
3.4728304910004226,42,4852.29,-96.0,-1.0,-77.3,-0.02,-0.18,0.02,-0.01,-0.99,-0.11,-193.2,0.0,-2.0,0.73,0.01,0.14,0.0,0.9961425600786264,0.18220867158288595,0.0024195241627534836,0.28,0,0,0.0
3.4810199010007636,43,4852.3,-96.0,-1.0,-77.3,0.0,-0.17,0.01,-0.01,-0.99,-0.11,-193.2,0.0,-2.0,0.73,0.01,-0.19,0.0,0.9961425600786264,0.17029386365926402,0.0023711336794983717,0.28,0,0,0.0
3.4927660620005554,44,4852.31,-96.0,-1.0,-77.4,0.01,-0.16,0.0,-0.01,-0.99,-0.11,-193.2,0.1,0.0,0.73,0.0,-0.09,0.0,0.9961425600786264,0.16031219541881397,0.0023237110059084465,0.28,0,0,0.0
3.5008859630006555,45,4852.32,-96.0,-1.0,-77.4,0.01,-0.15,-0.01,0.0,-0.99,-0.11,-193.2,-0.1,-2.0,0.73,0.0,0.06,0.0,0.9960923651951158,0.15066519173319362,0.0023264277716307236,0.28,0,0,0.0
3.5127501810002286,46,4852.33,-96.0,-1.0,-77.4,0.02,-0.1,-0.02,0.0,-0.99,-0.11,-193.2,0.2,0.0,0.73,0.0,-0.01,0.0,0.9960923651951158,0.10392304845413264,0.002279899216198089,0.28,0,0,0.0
3.520980803000384,47,4852.34,-96.0,-0.9,-77.4,0.01,-0.06,-0.03,0.0,-0.99,-0.11,-193.2,-0.5,4.0,0.73,-0.01,0.08,0.0,0.9960923651951158,0.06782329983125268,0.0022343012318741806,0.28,0,0,0.0
3.5328386999999566,48,4852.35,-96.0,-0.9,-77.4,0.0,-0.04,-0.04,-0.01,-0.99,-0.11,-193.2,0.5,-4.0,0.73,0.01,-0.1,0.0,0.9961425600786264,0.0565685424949238,0.0021404242213962643,0.28,0,0,0.0
3.5409490320007535,49,4852.36,-96.0,-0.9,-77.4,-0.02,-0.01,-0.04,-0.01,-0.99,-0.1,-193.2,-0.4,4.0,0.73,-0.02,0.06,0.0,0.9950879358127099,0.045825756949558406,0.0031311475175664905,0.28,0,0,0.0
3.5527713280007447,50,4852.37,-96.0,-0.9,-77.4,0.0,0.0,-0.05,-0.01,-0.99,-0.1,-193.2,0.6,-5.0,0.72,0.02,0.07,0.0,0.9950879358127099,0.05,0.0030685245672151806,0.28,0,0,0.0
3.560978843000157,51,4852.38,-96.0,-0.9,-77.4,-0.04,0.0,-0.04,-0.01,-0.99,-0.1,-193.2,-0.5,0.0,0.73,0.0,-0.01,0.0,0.9950879358127099,0.0565685424949238,0.0030071540758708215,0.28,0,0,0.0
3.5728174650002984,52,4852.39,-96.0,-0.9,-77.4,-0.01,0.0,-0.03,-0.01,-0.99,-0.1,-193.2,0.2,-3.0,0.73,0.0,-0.03,0.0,0.9950879358127099,0.03162277660168379,0.0029470109943533496,0.28,0,0,0.0
3.580882670000392,53,4852.4,-96.0,-0.9,-77.4,0.0,-0.01,-0.03,-0.01,-0.99,-0.1,-193.2,-0.3,-2.0,0.73,0.0,0.01,0.0,0.9950879358127099,0.03162277660168379,0.0028880707744662892,0.28,0,0,0.0
3.5928510990006544,54,4852.41,-96.0,-0.9,-77.4,0.0,-0.02,-0.03,-0.01,-0.99,-0.1,-193.2,0.5,-1.0,0.72,0.0,0.06,0.0,0.9950879358127099,0.03605551275463989,0.00283030935897699,0.28,0,0,0.0
3.60088043199994,55,4852.42,-96.0,-0.9,-77.4,0.0,0.0,0.0,-0.01,-0.99,-0.1,-193.2,-0.2,0.0,0.72,0.0,-0.09,0.0,0.9950879358127099,0.0,0.0027737031717974814,0.28,0,0,0.0
3.6127432460007185,56,4852.43,-96.0,-0.9,-77.4,0.05,-0.02,0.0,-0.01,-0.99,-0.1,-193.2,0.0,1.0,0.72,0.0,0.07,0.0,0.9950879358127099,0.05385164807134505,0.002718229108361503,0.28,0,0,0.0
3.6208692070003963,57,4852.44,-96.0,-0.9,-77.4,0.06,-0.02,0.0,-0.01,-0.99,-0.1,-193.2,0.0,1.0,0.72,0.0,-0.1,0.0,0.9950879358127099,0.06324555320336758,0.0026638645261942706,0.28,0,0,0.0
3.632847245999983,58,4852.45,-96.0,-0.9,-77.4,0.06,-0.05,0.0,-0.01,-0.98,-0.09,-193.2,0.0,0.0,0.72,0.0,-0.09,0.0,0.9841747812253675,0.07810249675906655,0.013305478731265974,0.28,0,0,0.0
3.640985781999916,59,4852.46,-96.0,-0.9,-77.4,0.03,-0.06,-0.01,-0.01,-0.98,-0.1,-193.2,0.0,0.0,0.72,0.0,0.06,0.0,0.9851395840184273,0.06782329983125268,0.012093862419442103,0.28,0,0,0.0
3.652688453999872,60,4852.47,-96.0,-0.9,-77.4,0.0,-0.06,0.0,-0.02,-0.99,-0.1,-193.2,0.0,1.0,0.72,0.0,0.06,0.0,0.995238664843765,0.06,0.0019548859622222636,0.28,0,0,0.0
3.660840019000716,61,4852.48,-96.0,-0.9,-77.4,0.0,-0.08,0.0,-0.02,-0.99,-0.1,-193.2,-0.1,0.0,0.73,0.0,-0.18,0.0,0.995238664843765,0.08,0.0019157882429777784,0.28,0,0,0.0
3.6729511040002762,62,4852.49,-96.0,-0.9,-77.4,0.0,-0.09,-0.01,-0.01,-0.99,-0.1,-193.2,0.4,6.0,0.72,-0.03,-0.27,0.0,0.9950879358127099,0.09055385138137416,0.0020251869285521362,0.28,0,0,0.0
3.6808007610006825,63,4852.5,-96.0,-0.9,-77.5,0.0,-0.09,-0.01,-0.01,-0.99,-0.1,-193.2,0.0,-4.0,0.72,0.01,0.17,0.0,0.9950879358127099,0.09055385138137416,0.001984683189981129,0.28,0,0,0.0
3.6928484580002987,64,4852.51,-96.0,-0.9,-77.5,-0.01,-0.08,-0.01,-0.01,-0.99,-0.1,-193.2,0.3,3.0,0.72,-0.01,0.15,0.0,0.9950879358127099,0.08124038404635961,0.0019449895261814953,0.28,0,0,0.0
3.7010131570004887,65,4852.52,-96.0,-0.9,-77.5,-0.02,-0.07,-0.01,-0.01,-0.99,-0.1,-193.2,-0.1,0.0,0.72,0.0,-0.09,0.0,0.9950879358127099,0.07348469228349536,0.0019060897356578677,0.28,0,0,0.0
3.7126624450002055,66,4852.53,-96.0,-0.9,-77.5,-0.04,-0.06,-0.01,-0.01,-0.98,-0.1,-193.2,0.0,-3.0,0.72,0.0,0.07,0.0,0.9851395840184273,0.07280109889280519,0.011617352699341721,0.28,0,0,0.0
3.721015482000439,67,4852.54,-96.0,-0.9,-77.5,-0.05,-0.06,0.0,-0.01,-0.98,-0.1,-193.2,0.4,2.0,0.72,0.0,-0.03,0.0,0.9851395840184273,0.07810249675906655,0.01138500564535494,0.28,0,0,0.0
3.732830079999985,68,4852.55,-96.0,-0.9,-77.5,-0.05,-0.04,0.0,-0.01,-0.99,-0.1,-193.2,-0.2,0.0,0.72,0.0,0.06,0.0,0.9950879358127099,0.06403124237432849,0.0014079207740508304,0.28,0,0,0.0
3.740672204000475,69,4852.56,-96.0,-0.9,-77.5,-0.04,-0.02,0.0,-0.01,-0.99,-0.1,-193.2,-0.2,-2.0,0.72,0.0,0.06,0.0,0.9950879358127099,0.044721359549995794,0.001379762358569847,0.28,0,0,0.0
3.75277502300014,70,4852.57,-96.0,-0.9,-77.5,0.0,0.0,0.0,-0.02,-0.99,-0.1,-193.2,0.1,0.0,0.72,0.0,-0.03,0.0,0.995238664843765,0.0,0.0012044526609644723,0.28,0,0,0.0
3.7608585280004263,71,4852.58,-96.0,-0.9,-77.5,0.0,0.0,0.0,-0.01,-0.99,-0.1,-193.2,0.0,2.0,0.72,0.0,-0.02,0.0,0.9950879358127099,0.0,0.0013280780581791385,0.28,0,0,0.0
3.772858685000756,72,4852.59,-96.0,-0.9,-77.5,0.0,0.0,0.0,-0.01,-0.99,-0.11,-193.2,0.0,-4.0,0.72,0.01,0.06,0.0,0.9961425600786264,0.0,0.0002679847164174243,0.28,0,0,0.0
3.7809296570003426,73,4852.6,-96.0,-0.9,-77.5,0.0,0.0,0.0,-0.01,-0.99,-0.11,-193.2,0.1,4.0,0.72,-0.02,-0.2,0.0,0.9961425600786264,0.0,0.0002626250220890691,0.28,0,0,0.0
3.792830211999899,74,4852.61,-96.0,-0.9,-77.5,0.05,0.0,0.0,-0.01,-0.99,-0.11,-193.2,0.0,-4.0,0.72,0.01,-0.02,0.0,0.9961425600786264,0.05,0.0002573725216472589,0.28,0,0,0.0
3.8009896920002575,75,4852.62,-96.0,-0.9,-77.5,0.05,0.01,0.01,-0.01,-0.99,-0.1,-193.2,0.0,3.0,0.72,0.0,0.06,0.0,0.9950879358127099,0.05196152422706632,0.0012857568518125362,0.28,0,0,0.0
3.8128574640004445,76,4852.63,-96.0,-0.9,-77.5,0.03,0.01,0.0,-0.01,-0.99,-0.1,-193.2,0.3,2.0,0.72,0.0,-0.19,0.0,0.9950879358127099,0.03162277660168379,0.0012600417147763388,0.28,0,0,0.0
3.82103383499998,77,4852.64,-96.0,-0.9,-77.5,0.02,0.03,0.0,-0.01,-0.99,-0.1,-193.2,-0.1,-1.0,0.72,0.0,0.06,0.0,0.9950879358127099,0.03605551275463989,0.0012348408804807587,0.28,0,0,0.0
3.832794844000091,78,4852.65,-96.0,-0.9,-77.5,0.0,0.0,0.0,-0.01,-0.99,-0.1,-193.2,0.1,-1.0,0.72,0.0,-0.09,0.0,0.9950879358127099,0.0,0.0012101440628711213,0.28,0,0,0.0
3.8407277380001688,79,4852.66,-96.0,-0.9,-77.5,0.0,0.0,0.0,-0.01,-0.99,-0.1,-193.2,0.0,0.0,0.72,0.0,-0.31,0.0,0.9950879358127099,0.0,0.0011859411816137477,0.28,0,0,0.0
3.8528322709998974,80,4852.67,-96.0,-0.9,-77.5,0.0,0.0,0.0,-0.01,-0.99,-0.1,-193.2,0.1,1.0,0.72,0.0,-0.01,0.0,0.9950879358127099,0.0,0.0011622223579814683,0.28,0,0,0.0
3.861046587000601,81,4852.68,-96.0,-0.9,-77.5,0.0,0.0,0.0,-0.01,-0.99,-0.1,-193.2,-0.2,-2.0,0.72,0.0,0.07,0.0,0.9950879358127099,0.0,0.0011389779108218478,0.28,0,0,0.0
3.8730656240004464,82,4852.69,-96.0,-0.9,-77.5,0.0,0.0,0.0,-0.01,-0.99,-0.1,-193.2,0.3,1.0,0.72,0.0,-0.18,0.0,0.9950879358127099,0.0,0.0011161983526054575,0.28,0,0,0.0
3.8808754640003826,83,4852.7,-96.0,-0.9,-77.5,0.0,0.0,0.0,-0.01,-0.99,-0.1,-193.2,-0.3,2.0,0.72,0.0,0.06,0.0,0.9950879358127099,0.0,0.0010938743855533062,0.28,0,0,0.0
3.8928455730001588,84,4852.71,-96.0,-0.9,-77.5,0.03,-0.01,0.01,-0.01,-0.99,-0.1,-193.2,0.2,0.0,0.72,0.0,0.06,0.0,0.9950879358127099,0.033166247903554,0.001071996897842209,0.28,0,0,0.0
3.900917457000105,85,4852.72,-96.0,-0.9,-77.5,0.05,-0.01,0.0,-0.01,-0.99,-0.1,-193.2,-0.1,1.0,0.72,0.0,0.23,0.0,0.9950879358127099,0.050990195135927854,0.0010505569598853182,0.28,0,0,0.0
3.912794464000399,86,4852.73,-96.0,-0.9,-77.5,0.06,-0.01,0.01,-0.01,-0.99,-0.1,-193.2,0.0,-2.0,0.72,0.0,-0.1,0.0,0.9950879358127099,0.06164414002968976,0.001029545820687594,0.28,0,0,0.0
3.920814484999937,87,4852.74,-96.0,-0.9,-77.5,0.06,-0.01,0.03,-0.01,-0.99,-0.1,-193.2,0.0,0.0,0.72,0.0,0.0,0.0,0.9950879358127099,0.06782329983125268,0.0010089549042738843,0.28,0,0,0.0
3.9328634500006956,88,4852.75,-96.0,-0.9,-77.5,0.07,0.0,0.03,-0.01,-0.99,-0.1,-193.2,0.0,1.0,0.72,0.0,0.16,0.0,0.9950879358127099,0.07615773105863909,0.0009887758061883911,0.28,0,0,0.0
3.9409712610004135,89,4852.76,-96.0,-0.9,-77.5,0.07,0.0,0.03,-0.01,-0.98,-0.1,-193.2,0.0,0.0,0.72,0.0,0.14,0.0,0.9851395840184273,0.07615773105863909,0.010718385048461676,0.28,0,0,0.0
3.952785758000573,90,4852.77,-96.0,-0.9,-77.5,0.05,0.0,0.03,-0.01,-0.99,-0.1,-193.2,-0.1,-2.0,0.72,0.0,0.06,0.0,0.9950879358127099,0.05830951894845301,0.0007546325890954719,0.28,0,0,0.0
3.960884035000163,91,4852.78,-95.9,-0.9,-77.5,0.02,0.02,0.03,-0.01,-0.99,-0.1,-193.2,0.3,5.0,0.72,-0.01,0.08,0.0,0.9950879358127099,0.04123105625617661,0.0007395399373135714,0.28,0,0,0.0
3.9728217070005485,92,4852.79,-95.9,-0.9,-77.5,0.0,0.02,0.03,-0.01,-0.99,-0.1,-193.2,-0.3,-5.0,0.72,0.0,0.0,0.0,0.9950879358127099,0.03605551275463989,0.0007247491385673488,0.28,0,0,0.0
3.9809504459999516,93,4852.8,-95.9,-0.9,-77.5,0.0,0.0,0.0,-0.01,-0.99,-0.1,-193.2,0.4,0.0,0.72,0.0,0.07,0.0,0.9950879358127099,0.0,0.000710254155795953,0.28,0,0,0.0
3.9927873630003887,94,4852.81,-95.9,-0.9,-77.5,0.05,0.01,0.01,-0.01,-0.99,-0.1,-193.2,-0.2,4.0,0.72,-0.01,-0.18,0.0,0.9950879358127099,0.05196152422706632,0.0006960490726800606,0.28,0,0,0.0
4.000839580000502,95,4852.82,-95.9,-0.9,-77.5,0.05,0.0,0.01,-0.02,-0.99,-0.1,-193.2,0.3,-4.0,0.72,0.0,-0.26,0.0,0.995238664843765,0.050990195135927854,0.0005344136407925415,0.28,0,0,0.0
4.012844227000642,96,4852.83,-95.9,-0.9,-77.5,0.03,0.0,0.01,-0.01,-0.99,-0.1,-193.2,0.0,2.0,0.72,0.0,0.0,0.0,0.9950879358127099,0.03162277660168379,0.0006714398184106685,0.28,0,0,0.0
4.020906427000227,97,4852.84,-95.9,-0.9,-77.5,0.04,-0.01,0.0,-0.01,-0.99,-0.1,-193.2,-0.1,1.0,0.72,0.0,-0.08,0.0,0.9950879358127099,0.04123105625617661,0.0006580110220424373,0.28,0,0,0.0
4.032628626000587,98,4852.85,-95.9,-0.9,-77.5,0.03,0.0,0.0,-0.01,-0.98,-0.1,-193.2,-0.1,-6.0,0.72,0.02,-0.08,0.0,0.9851395840184273,0.03,0.010394235559998632,0.28,0,0,0.0
4.040902923000431,99,4852.86,-95.9,-0.9,-77.5,0.0,0.0,0.0,-0.01,-0.99,-0.09,-193.2,0.2,2.0,0.72,0.0,0.17,0.0,0.9941327879111522,0.0,0.0013730110339281731,0.28,0,0,0.0
4.052809560000242,100,4852.87,-95.9,-0.9,-77.5,0.0,0.0,0.0,-0.01,-0.98,-0.09,-193.2,-0.2,-1.0,0.72,0.0,0.0,0.0,0.9841747812253675,0.0,0.011104397365318652,0.28,0,0,0.0
4.060841774999972,101,4852.88,-95.9,-0.9,-77.5,0.0,0.0,0.0,-0.01,-0.99,-0.09,-193.2,0.0,0.0,0.72,0.0,-0.17,0.0,0.9941327879111522,0.0,0.0011234628659432255,0.28,0,0,0.0
4.072783731000527,102,4852.89,-95.9,-0.9,-77.5,-0.04,0.0,0.0,-0.01,-0.99,-0.09,-193.2,0.2,0.0,0.72,0.0,-0.08,0.0,0.9941327879111522,0.04,0.0011009936086243677,0.28,0,0,0.0
4.08089393299997,103,4852.9,-95.9,-0.9,-77.5,-0.04,-0.01,0.0,-0.01,-0.99,-0.09,-193.2,0.0,0.0,0.72,0.0,-0.01,0.0,0.9941327879111522,0.04123105625617661,0.001078973736451827,0.28,0,0,0.0
4.092902797000534,104,4852.91,-95.9,-0.9,-77.5,-0.04,-0.01,0.0,-0.01,-0.99,-0.1,-193.2,-0.2,0.0,0.72,0.0,0.08,0.0,0.9950879358127099,0.04123105625617661,0.00012134931819618444,0.28,0,0,0.0
4.100803768000333,105,4852.92,-95.9,-0.9,-77.5,0.0,0.0,0.0,-0.01,-0.99,-0.1,-193.2,0.2,1.0,0.72,0.0,0.0,0.0,0.9950879358127099,0.0,0.00011892233183230516,0.28,0,0,0.0
4.112844629999927,106,4852.93,-95.9,-0.9,-77.5,0.0,0.0,0.0,-0.01,-0.99,-0.1,-193.2,0.0,3.0,0.72,-0.01,0.16,0.0,0.9950879358127099,0.0,0.0001165438851956635,0.28,0,0,0.0
4.120901950000189,107,4852.94,-95.9,-0.9,-77.5,0.0,0.0,0.0,-0.01,-0.99,-0.1,-193.2,-0.2,-5.0,0.72,0.02,0.0,0.0,0.9950879358127099,0.0,0.0001142130074917036,0.28,0,0,0.0
4.132720807000624,108,4852.95,-95.9,-0.9,-77.5,0.0,0.0,0.0,-0.01,-0.99,-0.1,-193.2,0.3,8.0,0.72,-0.03,0.07,0.0,0.9950879358127099,0.0,0.00011192874734189395,0.28,0,0,0.0
4.140742059000331,109,4852.96,-95.9,-0.9,-77.5,0.03,-0.01,0.02,-0.01,-0.99,-0.1,-193.2,0.0,-1.0,0.72,0.0,-0.09,0.0,0.9950879358127099,0.03741657386773942,0.00010969017239503831,0.28,0,0,0.0
4.153272934000597,110,4852.97,-95.9,-0.9,-77.5,0.03,-0.01,0.03,-0.02,-0.99,-0.1,-193.2,0.1,-2.0,0.72,0.0,-0.08,0.0,0.995238664843765,0.04358898943540673,4.021808148679806e-05,0.28,0,0,0.0
4.160835796999891,111,4852.98,-95.9,-1.0,-77.5,0.05,-0.01,0.04,-0.02,-0.99,-0.1,-193.2,-0.2,0.0,0.72,-0.01,0.0,0.0,0.995238664843765,0.06480740698407861,3.9413719857051e-05,0.28,0,0,0.0
4.172856303000117,112,4852.99,-95.9,-1.0,-77.5,0.08,0.0,0.04,-0.02,-0.99,-0.09,-193.2,0.0,-5.0,0.72,0.01,0.07,0.0,0.9942836617384396,0.08944271909999159,0.0008972775977589276,0.28,0,0,0.0
4.180806369000493,113,4853.0,-95.9,-1.0,-77.5,0.06,0.01,0.06,-0.02,-0.98,-0.1,-193.2,-0.2,1.0,0.72,0.0,-0.08,0.0,0.985291834940288,0.08544003745317531,0.0096913223079923,0.28,0,0,0.0
4.192804560000695,114,4853.01,-95.9,-1.0,-77.5,0.04,0.04,0.08,-0.01,-0.98,-0.09,-193.2,-0.2,1.0,0.72,0.0,0.0,0.0,0.9841747812253675,0.09797958971132713,0.01059220850245457,0.28,0,0,0.0
4.200957050999932,115,4853.02,-95.9,-1.0,-77.5,0.04,0.06,0.07,-0.02,-0.99,-0.1,-193.2,0.0,-1.0,0.72,0.0,0.08,0.0,0.995238664843765,0.1004987562112089,0.00046224161362407035,0.28,0,0,0.0
4.212882316000105,116,4853.03,-95.9,-1.0,-77.5,0.05,0.08,0.08,-0.02,-0.99,-0.1,-193.2,0.0,0.0,0.72,0.0,0.08,0.0,0.995238664843765,0.12369316876852982,0.00045299678135157784,0.28,0,0,0.0
4.221023554000567,117,4853.04,-95.9,-1.0,-77.5,0.07,0.09,0.07,-0.02,-0.99,-0.1,-193.2,0.2,-1.0,0.72,0.0,0.08,0.0,0.995238664843765,0.13379088160259653,0.0004439368457245241,0.28,0,0,0.0
4.232891333000225,118,4853.05,-95.9,-1.0,-77.5,0.11,0.1,0.08,-0.02,-0.99,-0.1,-193.2,0.0,-1.0,0.72,0.0,0.07,0.0,0.995238664843765,0.16881943016134132,0.00043505810881006024,0.28,0,0,0.0
4.2409613380004885,119,4853.06,-95.8,-1.0,-77.4,0.15,0.09,0.1,-0.02,-0.99,-0.09,-193.2,-0.1,2.0,0.72,0.0,-0.17,0.0,0.9942836617384396,0.20149441679609884,0.0005095460965850451,0.28,0,0,0.0
4.2528174480003145,120,4853.07,-95.8,-1.0,-77.4,0.18,0.11,0.1,-0.02,-0.99,-0.09,-193.2,-0.2,-5.0,0.72,0.02,0.08,0.0,0.9942836617384396,0.23345235059857505,0.000499355174653382,0.28,0,0,0.0
4.260914061000221,121,4853.08,-95.8,-1.0,-77.4,0.17,0.11,0.11,-0.02,-0.99,-0.1,-193.2,0.4,4.0,0.72,-0.01,-0.15,0.0,0.995238664843765,0.23043437243605827,0.0004465349720585987,0.28,0,0,0.0
4.272921032999875,122,4853.09,-95.8,-1.1,-77.4,0.15,0.13,0.12,-0.02,-0.98,-0.09,-193.2,-0.2,0.0,0.72,0.0,-0.16,0.0,0.9843271813782244,0.23194827009486405,0.010255649523612353,0.28,0,0,0.0
4.280890093999915,123,4853.1,-95.8,-1.1,-77.4,0.14,0.13,0.12,-0.02,-0.99,-0.09,-193.2,0.1,-1.0,0.72,0.0,-0.08,0.0,0.9942836617384396,0.22561028345356957,0.0002931857801291571,0.28,0,0,0.0
4.292778017000273,124,4853.11,-95.8,-1.1,-77.4,0.12,0.16,0.14,-0.02,-0.99,-0.09,-193.2,0.0,0.0,0.72,0.0,0.07,0.0,0.9942836617384396,0.24413111231467405,0.00028732206452652953,0.28,0,0,0.0
4.300954785000613,125,4853.12,-95.7,-1.1,-77.4,0.12,0.18,0.15,-0.02,-0.99,-0.09,-193.2,0.0,-3.0,0.72,0.0,0.08,0.0,0.9942836617384396,0.26324893162176366,0.00028157562323605223,0.28,0,0,0.0
4.31284917100038,126,4853.13,-95.7,-1.1,-77.3,0.13,0.19,0.16,-0.02,-0.98,-0.09,-193.2,0.0,0.0,0.72,0.0,-0.24,0.0,0.9843271813782244,0.2803569153775237,0.010033294863782238,0.28,0,0,0.0
4.320887595000386,127,4853.14,-95.7,-1.1,-77.3,0.13,0.2,0.16,-0.02,-0.99,-0.09,-193.2,0.3,1.0,0.72,0.0,0.08,0.0,0.9942836617384396,0.2872281323269014,7.527821349562203e-05,0.28,0,0,0.0
4.332893227000568,128,4853.15,-95.7,-1.1,-77.3,0.13,0.22,0.17,-0.02,-0.99,-0.09,-193.2,0.2,0.0,0.72,0.0,0.08,0.0,0.9942836617384396,0.3069201850644561,7.37726492257007e-05,0.28,0,0,0.0
4.340889725000125,129,4853.16,-95.7,-1.2,-77.3,0.12,0.24,0.18,-0.02,-0.99,-0.09,-193.2,0.0,2.0,0.72,-0.01,0.08,0.0,0.9942836617384396,0.32310988842807026,7.22971962411334e-05,0.28,0,0,0.0
4.3528417480001735,130,4853.17,-95.7,-1.2,-77.2,0.13,0.25,0.18,-0.02,-0.99,-0.09,-193.2,0.5,1.0,0.72,-0.01,0.33,0.0,0.9942836617384396,0.33436506994600973,7.085125231631739e-05,0.28,0,0,0.0
4.360946337000314,131,4853.18,-95.6,-1.2,-77.2,0.19,0.26,0.21,-0.02,-1.0,-0.09,-193.2,0.0,-4.0,0.72,0.0,0.0,0.0,1.0042410069301093,0.38444765573482176,0.00968876406056629,0.28,0,0,0.0
4.372852706000231,132,4853.19,-95.6,-1.2,-77.2,0.24,0.27,0.23,-0.03,-1.0,-0.09,-193.2,0.7,6.0,0.72,-0.03,0.0,0.0,1.0044899203078146,0.4282522621072771,0.009738923889506146,0.28,0,0,0.0
4.380947548000222,133,4853.2,-95.6,-1.3,-77.2,0.32,0.27,0.24,-0.03,-1.0,-0.08,-193.2,0.7,0.0,0.72,-0.02,0.08,0.0,1.0036433629531956,0.48259714048054614,0.00871451920418942,0.28,0,0,0.0
4.392931641999894,134,4853.21,-95.5,-1.3,-77.1,0.4,0.24,0.22,-0.03,-0.99,-0.07,-193.2,0.9,4.0,0.72,-0.03,-0.08,0.0,0.9929249719893241,0.5157518783291051,0.001963794324488455,0.28,0,0,0.0
4.401018006999948,135,4853.22,-95.5,-1.3,-77.1,0.37,0.21,0.19,-0.04,-0.98,-0.07,-193.2,1.0,-4.0,0.72,0.0,-0.07,0.0,0.9833107342035884,0.4659399102888698,0.011346471468019592,0.28,0,0,0.0
4.412780764000672,136,4853.23,-95.4,-1.3,-77.1,0.31,0.21,0.18,-0.04,-0.98,-0.08,-193.2,-0.2,-8.0,0.72,0.01,0.0,0.0,0.9840731680114034,0.4154515615568197,0.010372356907000446,0.28,0,0,0.0
4.420894305000729,137,4853.24,-95.4,-1.4,-77.1,0.27,0.19,0.16,-0.04,-0.98,-0.08,-193.2,0.1,2.0,0.72,0.0,0.0,0.0,0.9840731680114034,0.36687872655688286,0.01016490976886042,0.28,0,0,0.0
4.4327411940003,138,4853.25,-95.4,-1.4,-77.0,0.2,0.18,0.18,-0.04,-0.97,-0.08,-193.2,0.5,2.0,0.72,-0.01,0.0,0.0,0.9741149829460586,0.3237282811247729,0.019720632937521132,0.28,0,0,0.0
4.440902158000426,139,4853.26,-95.4,-1.4,-77.0,0.21,0.18,0.21,-0.03,-0.98,-0.08,-193.2,0.7,0.0,0.72,-0.02,0.08,0.0,0.983717439105356,0.34727510708370674,0.009915813242659222,0.28,0,0,0.0
4.452771347000635,140,4853.27,-95.3,-1.4,-77.0,0.24,0.18,0.21,-0.03,-0.99,-0.08,-193.2,0.1,-3.0,0.72,0.0,0.15,0.0,0.9936800289831732,0.3661966684720111,4.584110245475781e-05,0.28,0,0,0.0
4.46092885500002,141,4853.28,-95.3,-1.5,-77.0,0.23,0.18,0.21,-0.03,-0.98,-0.08,-193.2,-0.1,0.0,0.72,0.0,0.0,0.0,0.983717439105356,0.35972211497209894,0.009718413799855163,0.28,0,0,0.0
4.473055090000344,142,4853.29,-95.3,-1.5,-77.0,0.2,0.19,0.2,-0.03,-0.98,-0.08,-193.2,0.2,-1.0,0.72,0.0,-0.16,0.0,0.983717439105356,0.3407345007480164,0.009524045523858105,0.28,0,0,0.0
4.481000530000529,143,4853.3,-95.3,-1.5,-76.9,0.2,0.22,0.2,-0.02,-0.99,-0.08,-193.1,0.3,-1.0,0.72,0.0,-0.08,0.0,0.9934284070832683,0.35832945734337834,0.0001831840049730804,0.28,0,0,0.0
4.493179238000266,144,4853.31,-95.2,-1.5,-76.9,0.2,0.22,0.18,-0.02,-0.99,-0.09,-193.1,0.1,0.0,0.72,0.0,0.0,0.0,0.9942836617384396,0.34756294393965537,0.001017669886941519,0.28,0,0,0.0
4.500931954000407,145,4853.32,-95.2,-1.5,-76.9,0.18,0.24,0.15,-0.02,-0.99,-0.09,-193.1,0.1,2.0,0.72,-0.01,-0.07,0.0,0.9942836617384396,0.33541019662496846,0.0009973164892026487,0.28,0,0,0.0
4.512768309000421,146,4853.33,-95.2,-1.5,-76.9,0.14,0.27,0.13,-0.02,-0.99,-0.09,-193.1,0.3,0.0,0.72,0.0,-0.08,0.0,0.9942836617384396,0.3307567081708246,0.0009773701594185669,0.28,0,0,0.0
4.520833051999944,147,4853.34,-95.2,-1.6,-76.8,0.12,0.28,0.12,-0.02,-0.99,-0.09,-193.1,0.0,2.0,0.72,-0.01,-0.14,0.0,0.9942836617384396,0.327414110874898,0.0009578227562302422,0.28,0,0,0.0
4.532838449999872,148,4853.35,-95.2,-1.6,-76.8,0.14,0.29,0.1,-0.02,-0.99,-0.09,-193.1,0.6,0.0,0.72,0.0,-0.14,0.0,0.9942836617384396,0.3371943060017473,0.0009386663011056173,0.28,0,0,0.0
4.540786653000396,149,4853.36,-95.2,-1.6,-76.8,0.15,0.3,0.09,-0.02,-1.0,-0.09,-193.1,0.4,3.0,0.72,-0.02,-0.14,0.0,1.0042410069301093,0.34727510708370674,0.010678091262919853,0.28,0,0,0.0
4.552752790999875,150,4853.37,-95.2,-1.6,-76.7,0.15,0.31,0.1,-0.02,-1.0,-0.09,-193.1,0.6,-2.0,0.72,0.0,-0.16,0.0,1.0042410069301093,0.3586084215408222,0.010464529437661407,0.28,0,0,0.0
4.560937683000702,151,4853.38,-95.1,-1.6,-76.7,0.17,0.3,0.08,-0.02,-1.0,-0.08,-193.1,0.2,0.0,0.72,-0.01,-0.14,0.0,1.0033942395688744,0.35397740040855713,0.009425406834898009,0.28,0,0,0.0
4.572901331000139,152,4853.39,-95.1,-1.6,-76.7,0.18,0.31,0.07,-0.03,-1.0,-0.08,-193.1,0.7,0.0,0.72,-0.02,0.15,0.0,1.0036433629531956,0.3652396473549935,0.009481039614834819,0.28,0,0,0.0
4.580894935000288,153,4853.4,-95.1,-1.6,-76.6,0.16,0.3,0.08,-0.03,-0.99,-0.07,-193.1,0.7,0.0,0.72,-0.02,-0.13,0.0,0.9929249719893241,0.3492849839314596,0.0012126043220559435,0.28,0,0,0.0
4.59305984599996,154,4853.41,-95.1,-1.6,-76.6,0.15,0.27,0.09,-0.03,-1.01,-0.07,-193.1,0.8,0.0,0.72,-0.02,0.0,0.0,1.0128672173587216,0.32171415884290827,0.018355048226394777,0.28,0,0,0.0
4.600859126000614,155,4853.42,-95.0,-1.6,-76.6,0.21,0.25,0.04,-0.02,-1.02,-0.07,-193.1,0.7,-2.0,0.72,-0.01,-0.02,0.0,1.0225947388873071,0.3289376840679705,0.027520918359880686,0.28,0,0,0.0
4.612969845000407,156,4853.43,-95.0,-1.6,-76.6,0.25,0.27,-0.02,-0.02,-1.02,-0.07,-193.1,1.2,3.0,0.72,-0.03,0.14,0.0,1.0225947388873071,0.3685105154537656,0.026970499992683084,0.28,0,0,0.0
4.6209772279999015,157,4853.44,-95.0,-1.6,-76.5,0.31,0.3,-0.09,-0.02,-1.02,-0.06,-193.1,2.0,7.0,0.72,-0.06,0.0,0.0,1.0219589032832974,0.4406812907306141,0.02580797110089994,0.28,0,0,0.0
4.633156908000274,158,4853.45,-94.9,-1.6,-76.5,0.38,0.34,-0.12,-0.02,-1.01,-0.06,-193.0,3.2,11.0,0.72,-0.11,0.06,0.0,1.0119782606360672,0.5238320341483518,0.015510781884596314,0.28,0,0,0.0
4.640753741000481,159,4853.46,-94.9,-1.6,-76.5,0.49,0.4,-0.14,-0.01,-1.0,-0.07,-193.0,4.2,10.0,0.72,-0.13,-0.01,0.0,1.002496882788171,0.6478425734698207,0.005908815955966151,0.28,0,0,0.0
4.652853282000251,160,4853.47,-94.8,-1.5,-76.4,0.57,0.47,-0.15,-0.01,-1.0,-0.07,-193.0,4.5,-2.0,0.72,-0.09,0.0,0.0,1.002496882788171,0.7538567503179897,0.005790639636846784,0.28,0,0,0.0
4.660947082000348,161,4853.48,-94.7,-1.5,-76.4,0.58,0.52,-0.18,-0.01,-1.0,-0.06,-192.9,3.7,-6.0,0.72,-0.08,-0.04,0.0,1.0018482919085105,0.7994998436522673,0.005039207782042587,0.28,0,0,0.0
4.6732296440004575,162,4853.49,-94.7,-1.5,-76.3,0.61,0.57,-0.24,-0.02,-1.0,-0.06,-192.9,3.8,4.0,0.71,-0.12,-0.05,0.0,1.0019980039900278,0.86867715521936,0.00508514146628869,0.28,0,0,0.0
4.680693321000035,163,4853.5,-94.6,-1.4,-76.3,0.72,0.6,-0.26,-0.02,-1.0,-0.06,-192.8,7.9,41.0,0.71,-0.29,-0.09,0.0,1.0019980039900278,0.9726253132630263,0.0049834386369629335,0.28,0,0,0.0
4.69287755500045,164,4853.51,-94.5,-1.4,-76.2,0.86,0.65,-0.3,-0.03,-0.99,-0.06,-192.7,13.0,38.0,0.71,-0.36,0.0,0.0,0.9922701245124737,1.1189727431890377,0.004649552023779369,0.28,0,0,0.0
4.700545110999883,165,4853.52,-94.4,-1.4,-76.1,0.91,0.67,-0.28,-0.04,-0.98,-0.06,-192.6,14.3,16.0,0.7,-0.37,0.17,0.0,0.9826494797230597,1.1642164747159354,0.013984792876929442,0.28,0,0,0.0
4.712492849000228,166,4853.53,-94.3,-1.4,-76.1,0.89,0.67,-0.24,-0.05,-0.98,-0.05,-192.4,11.7,-9.0,0.7,-0.32,0.03,0.0,0.98254770876533,1.1395613191048564,0.01380483255796594,0.28,0,0,0.0
4.722518851000132,167,4853.54,-94.2,-1.4,-76.0,0.85,0.62,-0.21,-0.05,-0.98,-0.04,-192.3,13.4,11.0,0.7,-0.38,-0.1,0.0,0.982089608946149,1.072846680565308,0.013977673729604012,0.28,0,0,0.0
4.732714095000119,168,4853.55,-94.1,-1.3,-75.9,0.88,0.58,-0.18,-0.05,-0.98,-0.04,-192.2,14.0,1.0,0.69,-0.37,-0.06,0.0,0.982089608946149,1.0692053123698928,0.013698120255011936,0.28,0,0,0.0
4.740932831999999,169,4853.56,-94.0,-1.3,-75.9,0.89,0.54,-0.14,-0.05,-0.97,-0.05,-192.0,11.3,-29.0,0.69,-0.23,-0.01,0.0,0.9725739046468396,1.050380883299006,0.022749548063235037,0.28,0,0,0.0
4.752842580000106,170,4853.57,-93.9,-1.4,-75.8,0.85,0.47,-0.1,-0.05,-0.97,-0.05,-191.9,7.2,-20.0,0.69,-0.19,0.07,0.0,0.9725739046468396,0.9764220398987314,0.02229455710197037,0.28,0,0,0.0
4.760934583000562,171,4853.58,-93.8,-1.4,-75.8,0.72,0.4,-0.09,-0.06,-0.97,-0.05,-191.9,9.5,9.0,0.69,-0.28,-0.07,0.0,0.973139250056229,0.8285529554590944,0.021294627458729343,0.28,0,0,0.0
4.772857334000037,172,4853.59,-93.8,-1.4,-75.8,0.56,0.27,-0.08,-0.07,-0.96,-0.05,-191.8,10.0,7.0,0.68,-0.28,0.02,0.0,0.9638464608017192,0.6268173577685928,0.029975668378974363,0.28,0,0,0.0
4.780966773000728,173,4853.6,-93.7,-1.4,-75.7,0.48,0.14,-0.09,-0.07,-0.97,-0.05,-191.7,10.9,-1.0,0.68,-0.26,0.05,0.0,0.9738069623903908,0.5080354318352215,0.0196148634544967,0.28,0,0,0.0
4.7931560160004665,174,4853.61,-93.6,-1.4,-75.7,0.51,0.04,-0.1,-0.06,-0.98,-0.05,-191.6,7.1,-30.0,0.68,-0.13,-0.06,0.0,0.9831073186585481,0.5212485011968859,0.010108217042612666,0.28,0,0,0.0
4.800890419000098,175,4853.62,-93.6,-1.4,-75.7,0.46,0.0,-0.09,-0.06,-0.98,-0.06,-191.5,4.9,-11.0,0.68,-0.14,0.04,0.0,0.983666610188635,0.4687216658103186,0.009357947002275213,0.28,0,0,0.0
4.81322145500053,176,4853.63,-93.5,-1.4,-75.7,0.42,0.02,-0.07,-0.04,-0.99,-0.05,-191.5,6.0,2.0,0.68,-0.17,0.01,0.0,0.9920685460188726,0.42626282971894225,0.0009368909485968357,0.28,0,0,0.0
4.820925140000327,177,4853.64,-93.5,-1.4,-75.7,0.44,0.06,-0.06,-0.02,-1.0,-0.06,-191.4,5.2,-13.0,0.67,-0.1,-0.07,0.0,1.0019980039900278,0.44810713004816155,0.008812715682107175,0.28,0,0,0.0
4.8330209760006255,178,4853.65,-93.5,-1.4,-75.7,0.47,0.09,-0.09,-0.01,-1.02,-0.06,-191.4,1.7,-28.0,0.67,0.0,-0.07,0.0,1.0218121158021176,0.486929152957594,0.028054290944313,0.28,0,0,0.0
4.840929736000362,179,4853.66,-93.4,-1.4,-75.7,0.52,0.14,-0.16,0.0,-1.02,-0.06,-191.4,-0.1,-15.0,0.67,0.0,-0.05,0.0,1.0217631819555841,0.5617828762075256,0.02744524995582398,0.28,0,0,0.0
4.852847719000238,180,4853.67,-93.3,-1.4,-75.7,0.6,0.19,-0.23,-0.01,-1.01,-0.05,-191.4,0.1,-1.0,0.67,0.0,-0.05,0.0,1.0112863096077194,0.6700746227100381,0.016629010055800086,0.28,0,0,0.0
4.860740210000586,181,4853.68,-93.3,-1.3,-75.7,0.56,0.21,-0.27,-0.01,-0.99,-0.05,-191.4,0.0,1.0,0.67,0.0,0.03,0.0,0.991312261600753,0.6562011886609167,0.0032781371921428715,0.28,0,0,0.0
4.872891814000468,182,4853.69,-93.2,-1.3,-75.7,0.49,0.21,-0.27,-0.02,-0.99,-0.04,-191.4,0.0,-2.0,0.67,0.0,0.01,0.0,0.9910095862301231,0.5975784467331464,0.0035091963115173597,0.28,0,0,0.0
4.8809735450004155,183,4853.7,-93.2,-1.3,-75.6,0.52,0.19,-0.28,-0.02,-0.99,-0.04,-191.4,0.0,3.0,0.67,-0.01,0.04,0.0,0.9910095862301231,0.620403094769844,0.003439012385286988,0.28,0,0,0.0
4.893004305999966,184,4853.71,-93.1,-1.2,-75.6,0.57,0.13,-0.3,-0.03,-0.99,-0.04,-191.4,-0.2,0.0,0.67,0.0,-0.02,0.0,0.9912618221237011,0.6571149062378664,0.003123040961874879,0.28,0,0,0.0
4.900912445000358,185,4853.72,-93.1,-1.2,-75.6,0.55,0.04,-0.37,-0.04,-0.99,-0.05,-191.4,0.2,2.0,0.67,0.0,-0.04,0.0,0.9920685460188726,0.6640783086353597,0.002269990725369264,0.28,0,0,0.0
4.9131131809999715,186,4853.73,-93.0,-1.2,-75.6,0.52,-0.05,-0.41,-0.04,-0.99,-0.05,-191.4,-0.1,0.0,0.67,0.0,-0.01,0.0,0.9920685460188726,0.6640783086353597,0.002224590910861912,0.28,0,0,0.0
4.9209144740007105,187,4853.74,-93.0,-1.2,-75.6,0.47,-0.13,-0.41,-0.04,-0.99,-0.04,-191.4,0.1,-1.0,0.67,0.0,0.08,0.0,0.9916148445843276,0.637102817447859,0.002624726498498764,0.28,0,0,0.0
4.932787640000242,188,4853.75,-92.9,-1.1,-75.7,0.48,-0.24,-0.4,-0.04,-1.0,-0.03,-191.4,0.0,2.0,0.67,0.0,0.1,0.0,1.0012492197250393,0.6693280212272604,0.006869455669368696,0.28,0,0,0.0
4.940988805000416,189,4853.76,-92.8,-1.1,-75.7,0.62,-0.39,-0.4,-0.03,-1.0,-0.04,-191.4,0.1,-4.0,0.67,0.01,-0.06,0.0,1.0012492197250393,0.834565755348253,0.006732066555981353,0.28,0,0,0.0
4.952838582000368,190,4853.77,-92.8,-1.1,-75.7,0.61,-0.5,-0.37,-0.03,-0.99,-0.04,-191.4,0.0,0.0,0.67,0.0,-0.09,0.0,0.9912618221237011,0.8712060605849801,0.003190224424449828,0.28,0,0,0.0
4.960895261000587,191,4853.78,-92.7,-1.1,-75.8,0.55,-0.61,-0.35,-0.02,-0.98,-0.04,-191.4,0.0,0.0,0.67,0.0,-0.11,0.0,0.9810198774744576,0.8928045698807775,0.013163525692219347,0.28,0,0,0.0
4.972922315000687,192,4853.79,-92.7,-1.0,-75.9,0.45,-0.7,-0.33,-0.02,-0.98,-0.04,-191.4,0.0,3.0,0.67,-0.01,-0.12,0.0,0.9810198774744576,0.8952094726934026,0.012900255178375009,0.28,0,0,0.0
4.980923437000456,193,4853.8,-92.6,-1.0,-75.9,0.34,-0.78,-0.3,-0.01,-0.98,-0.04,-191.4,0.0,-1.0,0.67,0.0,-0.08,0.0,0.9808669634563089,0.9022194854911969,0.012792105812593269,0.28,0,0,0.0
4.992908847000763,194,4853.81,-92.6,-1.0,-76.0,0.31,-0.82,-0.3,0.0,-1.0,-0.04,-191.4,0.0,-1.0,0.67,0.0,0.11,0.0,1.0007996802557444,0.92655275079188,0.006997798767105379,0.28,0,0,0.0
5.0008722500006115,195,4853.82,-92.6,-0.9,-76.1,0.33,-0.85,-0.34,0.0,-1.01,-0.04,-191.4,1.3,16.0,0.67,-0.08,0.03,0.0,1.0107917688624102,0.973139250056229,0.016650089626295772,0.28,0,0,0.0
5.0129468920004,196,4853.83,-92.5,-0.9,-76.2,0.25,-0.88,-0.39,0.0,-1.01,-0.04,-191.3,5.5,38.0,0.67,-0.22,0.01,0.0,1.0107917688624102,0.9944847912361455,0.01631708783376984,0.28,0,0,0.0
5.020905193000544,197,4853.84,-92.5,-0.9,-76.3,0.18,-0.9,-0.43,0.0,-1.02,-0.04,-191.2,12.1,54.0,0.67,-0.39,-0.07,0.0,1.0207840124139875,1.0135580891098448,0.02578314475764021,0.28,0,0,0.0
5.0328649090006365,198,4853.85,-92.5,-0.8,-76.4,0.22,-0.95,-0.47,0.0,-1.03,-0.03,-191.1,17.3,68.0,0.66,-0.6,-0.06,0.0,1.0304368005850721,1.0824971131601229,0.03472721427015035,0.28,0,0,0.0
5.040809447999891,199,4853.86,-92.4,-0.7,-76.5,0.34,-1.01,-0.52,0.0,-1.04,-0.03,-190.8,26.0,73.0,0.66,-0.78,-0.05,0.0,1.0404326023342405,1.1857908753233009,0.04382855569893229,0.28,0,0,0.0
5.052897858000506,200,4853.87,-92.4,-0.7,-76.6,0.44,-1.04,-0.58,0.0,-1.03,-0.04,-190.5,32.3,60.0,0.65,-0.93,0.04,0.0,1.0307764064044151,1.269488085804668,0.03348891257372477,0.28,0,0,0.0
5.060900970000148,201,4853.88,-92.3,-0.6,-76.7,0.51,-1.05,-0.6,0.0,-1.02,-0.04,-190.2,34.7,36.0,0.64,-0.98,0.07,0.0,1.0207840124139875,1.3124785712536415,0.02302658821163117,0.28,0,0,0.0
5.0731391420004,202,4853.89,-92.3,-0.6,-76.8,0.57,-1.09,-0.64,0.0,-1.03,-0.04,-189.8,34.4,-2.0,0.63,-0.91,-0.01,0.0,1.0307764064044151,1.386578522839583,0.03235860255801759,0.28,0,0,0.0
5.080823664000491,203,4853.9,-92.2,-0.5,-76.9,0.5,-1.11,-0.69,0.0,-1.04,-0.03,-189.5,34.2,3.0,0.62,-0.93,-0.09,0.0,1.0404326023342405,1.3993569951945788,0.041174502518086076,0.28,0,0,0.0
5.092886817999897,204,4853.91,-92.2,-0.4,-77.0,0.48,-1.16,-0.79,-0.01,-1.06,-0.03,-189.1,37.0,29.0,0.61,-1.05,-0.02,0.0,1.0604715932074749,1.4832734070291964,0.059989223523494006,0.28,0,0,0.0
5.1009660160007115,205,4853.92,-92.1,-0.3,-77.2,0.52,-1.26,-0.91,0.0,-1.05,-0.03,-188.7,39.6,26.0,0.6,-1.12,-0.22,0.0,1.0504284840006957,1.6389325794552991,0.04894719203038056,0.28,0,0,0.0
5.112882735000312,206,4853.93,-92.1,-0.3,-77.3,0.65,-1.34,-0.89,0.0,-1.04,-0.03,-188.3,43.4,35.0,0.59,-1.22,-0.03,0.0,1.0404326023342405,1.7349927953740905,0.038172284156646974,0.28,0,0,0.0
5.121011646000625,207,4853.94,-92.0,-0.2,-77.4,0.83,-1.4,-0.83,0.0,-1.04,-0.03,-187.8,47.6,40.0,0.57,-1.35,-0.01,0.0,1.0404326023342405,1.8269646958822165,0.03740883847351406,0.28,0,0,0.0
5.132912906000456,208,4853.95,-91.9,-0.1,-77.6,0.98,-1.43,-0.78,0.0,-1.03,-0.04,-187.3,51.1,27.0,0.56,-1.4,0.04,0.0,1.0307764064044151,1.9009734348485776,0.02719758969281494,0.28,0,0,0.0
5.14092582000012,209,4853.96,-91.8,0.0,-77.7,1.04,-1.44,-0.77,0.0,-1.02,-0.04,-186.8,54.0,26.0,0.54,-1.49,0.07,0.0,1.0207840124139875,1.9360010330575756,0.01686109178833961,0.28,0,0,0.0
5.152834819999953,210,4853.97,-91.7,0.0,-77.9,1.03,-1.41,-0.8,0.01,-1.02,-0.04,-186.3,55.6,21.0,0.53,-1.54,-0.23,0.0,1.0208329931972222,1.9206769639895198,0.0165718711201428,0.28,0,0,0.0
5.1609476660005384,211,4853.98,-91.6,0.0,-78.0,1.0,-1.34,-0.85,0.01,-1.02,-0.04,-185.7,58.6,33.0,0.51,-1.64,0.1,0.0,1.0208329931972222,1.8756598838808705,0.016240433697739975,0.28,0,0,0.0
5.172866405000605,212,4853.99,-91.5,0.1,-78.2,0.95,-1.19,-0.83,0.03,-1.02,-0.04,-185.1,64.3,55.0,0.49,-1.83,-0.03,0.0,1.0212247548899311,1.7342145196024625,0.01629955148263984,0.28,0,0,0.0
5.180704442000206,213,4854.0,-91.4,0.2,-78.3,1.03,-1.03,-0.85,0.05,-1.03,-0.04,-184.6,68.3,59.0,0.47,-1.94,0.0,0.0,1.0319883720275147,1.6865052623694952,0.026521905247818944,0.28,0,0,0.0
5.192986787000336,214,4854.01,-91.3,0.4,-78.4,1.16,-0.89,-0.95,0.06,-1.03,-0.04,-183.7,74.2,61.0,0.45,-2.12,-0.12,0.0,1.0325211862233143,1.7436169304064466,0.026513625054746193,0.28,0,0,0.0
5.2009042939998835,215,4854.02,-91.2,0.5,-78.4,1.2,-0.77,-1.09,0.07,-1.01,-0.04,-182.9,79.9,54.0,0.43,-2.27,-0.01,0.0,1.0132127121192271,1.7947144619688113,0.0070610479316457475,0.28,0,0,0.0
5.212896863000424,216,4854.03,-91.1,0.6,-78.5,1.12,-0.67,-1.22,0.07,-1.0,-0.03,-182.0,86.6,65.0,0.41,-2.46,-0.01,0.0,1.0028958071504734,1.7865329551956213,0.0031907398963657574,0.28,0,0,0.0
5.220959410999967,217,4854.04,-91.0,0.8,-78.6,1.08,-0.56,-1.33,0.06,-1.0,-0.03,-181.1,94.0,72.0,0.38,-2.64,0.15,0.0,1.0022474744293446,1.8024705268048076,0.0037622911651447044,0.28,0,0,0.0
5.232969199000763,218,4854.05,-90.9,1.0,-78.6,1.03,-0.46,-1.37,0.05,-1.0,-0.02,-180.1,100.5,68.0,0.35,-2.83,0.08,0.0,1.0014489502715553,1.7746548960290842,0.004469599016475367,0.28,0,0,0.0
5.240858316000413,219,4854.06,-90.8,1.1,-78.7,1.04,-0.41,-1.39,0.05,-1.0,-0.01,-179.1,107.3,64.0,0.32,-3.01,0.03,0.0,1.0012991560967182,1.7837600735524943,0.0045270053274864,0.28,0,0,0.0
5.2528944230007255,220,4854.07,-90.7,1.3,-78.7,1.15,-0.37,-1.37,0.04,-0.99,-0.01,-178.0,113.4,62.0,0.29,-3.18,-0.13,0.0,0.9908582138732059,1.8265541327866526,0.01466858859997855,0.28,0,0,0.0
5.260959768000248,221,4854.08,-90.6,1.4,-78.8,1.17,-0.33,-1.3,0.03,-0.98,-0.02,-176.8,121.1,74.0,0.26,-3.4,0.15,0.0,0.9806630410084801,1.7798314526943273,0.02436648623541038,0.28,0,0,0.0
5.272896563000359,222,4854.09,-90.5,1.6,-78.8,1.23,-0.3,-1.27,0.03,-0.98,-0.01,-175.5,127.2,58.0,0.22,-3.51,0.0,0.0,0.9805100713404222,1.7932651783827176,0.024029066785398845,0.28,0,0,0.0
5.280834173000585,223,4854.1,-90.4,1.7,-78.8,1.28,-0.29,-1.24,0.04,-0.97,-0.01,-174.2,132.3,54.0,0.19,-3.64,-0.08,0.0,0.9708758932015976,1.805574700753198,0.03298998002573905,0.28,0,0,0.0
5.29294864700023,224,4854.11,-90.2,1.8,-78.9,1.3,-0.27,-1.17,0.04,-0.97,-0.01,-172.9,135.1,31.0,0.15,-3.7,-0.21,0.0,0.9708758932015976,1.769689238256254,0.032330180425224175,0.28,0,0,0.0
5.300929027000166,225,4854.12,-90.1,1.9,-78.9,1.3,-0.24,-1.15,0.05,-0.98,-0.01,-171.5,137.8,24.0,0.11,-3.75,0.02,0.0,0.9813256340277675,1.7521700830684217,0.02144283080707321,0.28,0,0,0.0
5.312856968000233,226,4854.13,-90.0,2.1,-78.9,1.34,-0.21,-1.13,0.05,-0.98,-0.01,-170.1,138.4,5.0,0.08,-3.74,-0.05,0.0,0.9813256340277675,1.7653894754416093,0.02101397419093176,0.28,0,0,0.0
5.320979167000587,227,4854.14,-89.9,2.2,-78.9,1.35,-0.15,-1.11,0.05,-0.99,-0.01,-168.7,138.1,1.0,0.04,-3.75,-0.03,0.0,0.991312261600753,1.7541664687252463,0.010806799685587398,0.28,0,0,0.0
5.3329768390003665,228,4854.15,-89.7,2.3,-78.9,1.32,-0.14,-1.09,0.04,-0.99,0.0,-167.4,137.4,-6.0,0.0,-3.72,-0.1,0.0,0.9908077512817509,1.7175855146105536,0.011085083804497686,0.28,0,0,0.0
5.340735649000635,229,4854.16,-89.6,2.4,-79.0,1.35,-0.11,-1.12,0.04,-1.0,0.0,-166.0,138.0,7.0,-0.03,-3.78,0.1,0.0,1.0007996802557444,1.7575551200460258,0.0010712917338941974,0.28,0,0,0.0
5.352918547000627,230,4854.17,-89.5,2.5,-79.0,1.4,-0.13,-1.16,0.04,-0.99,0.0,-164.6,140.2,25.0,-0.07,-3.88,0.0,0.0,0.9908077512817509,1.8227726133558184,0.01084195629372997,0.28,0,0,0.0
5.360864620000029,231,4854.18,-89.3,2.7,-79.0,1.3,-0.21,-1.26,0.03,-0.99,0.01,-163.1,145.0,37.0,-0.1,-3.99,-0.05,0.0,0.9905049217444606,1.8225531542317224,0.010921890114399924,0.28,0,0,0.0
5.372990212000332,232,4854.19,-89.2,2.8,-79.0,1.09,-0.29,-1.34,0.03,-0.98,0.0,-161.7,149.2,40.0,-0.15,-4.11,0.03,0.0,0.9804590761474953,1.7515136311202377,0.02054838099713796,0.28,0,0,0.0
5.380805473000692,233,4854.2,-89.1,2.9,-79.0,0.9,-0.36,-1.39,0.03,-0.99,0.01,-160.1,152.5,28.0,-0.19,-4.17,0.02,0.0,0.9905049217444606,1.694609099468075,0.010292484692169257,0.28,0,0,0.0
5.393026456000371,234,4854.21,-89.0,3.0,-79.1,0.86,-0.45,-1.38,0.03,-1.0,0.01,-158.6,154.5,25.0,-0.23,-4.23,-0.17,0.0,1.000499875062461,1.6871573726241424,0.0002915807466854492,0.28,0,0,0.0
5.400865747000353,235,4854.22,-89.0,3.2,-79.1,0.95,-0.54,-1.36,0.03,-1.01,0.0,-157.1,155.8,15.0,-0.27,-4.24,-0.1,0.0,1.0104454463255301,1.7446203025300377,0.009460910706056147,0.28,0,0,0.0
5.41305599000043,236,4854.23,-88.9,3.3,-79.2,1.12,-0.6,-1.33,0.03,-1.01,0.0,-155.5,155.9,3.0,-0.31,-4.23,-0.06,0.0,1.0104454463255301,1.8393748938158312,0.009271692491934935,0.28,0,0,0.0
5.420911607000562,237,4854.24,-88.8,3.4,-79.2,1.17,-0.7,-1.3,0.04,-1.0,0.0,-153.9,155.6,-1.0,-0.36,-4.24,0.06,0.0,1.0007996802557444,1.8838524358346116,0.0003665921062938615,0.28,0,0,0.0
5.433165127999928,238,4854.25,-88.7,3.5,-79.3,1.16,-0.76,-1.3,0.04,-0.99,0.0,-152.4,156.7,4.0,-0.4,-4.25,0.09,0.0,0.9908077512817509,1.900841918729698,0.010151350658681557,0.28,0,0,0.0
5.440680587000315,239,4854.26,-88.6,3.7,-79.4,1.13,-0.79,-1.28,0.04,-0.99,0.0,-150.8,155.0,-12.0,-0.44,-4.17,0.01,0.0,0.9908077512817509,1.8813293172647896,0.009948323645507906,0.28,0,0,0.0
5.452975354000046,240,4854.27,-88.5,3.8,-79.5,1.13,-0.82,-1.27,0.05,-1.0,0.0,-149.3,151.6,-32.0,-0.48,-4.05,-0.06,0.0,1.0012492197250393,1.8873791352030995,0.00048328190182500563,0.28,0,0,0.0
5.460888453000734,241,4854.28,-88.4,3.9,-79.6,1.21,-0.86,-1.25,0.05,-0.99,0.01,-147.8,147.6,-36.0,-0.52,-3.95,0.05,0.0,0.991312261600753,1.9406699874012583,0.009264602698012103,0.28,0,0,0.0
5.473054404999857,242,4854.29,-88.2,4.0,-79.6,1.26,-0.92,-1.21,0.04,-0.99,0.02,-146.3,143.9,-36.0,-0.56,-3.86,0.05,0.0,0.9910095862301231,1.9743606560099398,0.009375932507269091,0.28,0,0,0.0
5.480973227000504,243,4854.3,-88.1,4.1,-79.7,1.22,-1.01,-1.17,0.05,-0.99,0.02,-144.9,141.4,-31.0,-0.6,-3.79,0.08,0.0,0.9914635646356349,1.9691114747520009,0.008743515019722148,0.28,0,0,0.0
5.493196750000607,244,4854.31,-88.0,4.2,-79.8,1.17,-1.1,-1.16,0.04,-1.0,0.03,-143.5,138.5,-26.0,-0.64,-3.73,0.0,0.0,1.0012492197250393,1.981035082980612,0.0010212972682885901,0.28,0,0,0.0
5.500979023000582,245,4854.32,-87.9,4.3,-79.9,1.08,-1.17,-1.14,0.05,-1.0,0.03,-142.2,136.1,-31.0,-0.67,-3.63,-0.01,0.0,1.0016985574512922,1.9582900704441106,0.0014412222946507125,0.28,0,0,0.0
5.5132276270005605,246,4854.33,-87.8,4.4,-80.1,1.12,-1.23,-1.16,0.05,-1.01,0.03,-140.8,132.4,-25.0,-0.71,-3.6,0.21,0.0,1.0116817681464858,2.0280285994038643,0.011195944330047336,0.28,0,0,0.0
5.520837848000156,247,4854.34,-87.7,4.6,-80.2,1.14,-1.3,-1.17,0.05,-1.0,0.02,-139.5,131.9,-13.0,-0.75,-3.56,0.09,0.0,1.0014489502715553,2.0877020860266438,0.000943863926014421,0.28,0,0,0.0
5.533214136000424,248,4854.35,-87.6,4.7,-80.3,1.14,-1.35,-1.25,0.06,-1.0,0.02,-138.2,131.1,-3.0,-0.78,-3.58,0.04,0.0,1.0019980039900278,2.164393679532446,0.0014630592915971796,0.28,0,0,0.0
5.5408984440000495,249,4854.36,-87.5,4.8,-80.5,1.16,-1.43,-1.3,0.06,-0.98,0.03,-136.9,132.1,4.0,-0.82,-3.6,-0.11,0.0,0.9822932352408826,2.25399645075142,0.017876875268397097,0.28,0,0,0.0
5.553298296000321,250,4854.37,-87.4,4.9,-80.6,1.07,-1.49,-1.32,0.07,-0.98,0.04,-135.5,133.3,7.0,-0.85,-3.63,0.06,0.0,0.9833107342035884,2.2599557517792244,0.016522188779577562,0.28,0,0,0.0
5.560892161000083,251,4854.38,-87.3,5.1,-80.7,1.04,-1.56,-1.36,0.07,-0.99,0.04,-134.2,133.7,1.0,-0.89,-3.6,-0.03,0.0,0.9932774033471213,2.316203790688548,0.00642440924332377,0.28,0,0,0.0
5.573112689000482,252,4854.39,-87.2,5.2,-80.9,1.05,-1.62,-1.38,0.08,-0.99,0.04,-132.9,131.5,-19.0,-0.93,-3.53,0.09,0.0,0.9940321926376429,2.3730360300678117,0.005556227553746185,0.28,0,0,0.0
5.580950636000125,253,4854.4,-87.1,5.3,-81.1,1.09,-1.66,-1.4,0.09,-1.0,0.04,-131.6,128.7,-25.0,-0.96,-3.44,0.16,0.0,1.0048382954485762,2.4297530738739685,0.00514487775204342,0.28,0,0,0.0
5.593111953000516,254,4854.41,-87.0,5.5,-81.2,1.12,-1.68,-1.43,0.1,-0.99,0.04,-130.3,126.5,-20.0,-0.99,-3.42,0.07,0.0,0.9958413528268446,2.4742069436488126,0.0037750235722944225,0.28,0,0,0.0
5.600892247000047,255,4854.42,-87.0,5.6,-81.4,1.09,-1.68,-1.42,0.1,-0.98,0.03,-129.1,125.6,-11.0,-1.03,-3.43,-0.06,0.0,0.9855455342093535,2.4549745416195257,0.013789425345989814,0.28,0,0,0.0
5.613126619000468,256,4854.43,-86.9,5.8,-81.5,1.04,-1.65,-1.41,0.11,-0.98,0.03,-127.8,125.5,-9.0,-1.06,-3.38,0.0,0.0,0.986610358753647,2.4066989840858786,0.01247010878566246,0.28,0,0,0.0
5.620828252000138,257,4854.44,-86.8,6.0,-81.7,1.02,-1.63,-1.42,0.11,-0.98,0.04,-126.6,123.9,-14.0,-1.1,-3.33,-0.04,0.0,0.9869650449737316,2.390334704596827,0.011873114114266281,0.28,0,0,0.0
5.6330009120001705,258,4854.45,-86.7,6.1,-81.9,0.97,-1.64,-1.42,0.11,-0.97,0.03,-125.3,121.2,-26.0,-1.13,-3.21,-0.1,0.0,0.9766780431646859,2.376320685429473,0.021716913604845733,0.28,0,0,0.0
5.640955425999891,259,4854.46,-86.7,6.3,-82.0,0.89,-1.67,-1.45,0.11,-0.98,0.04,-124.2,117.2,-28.0,-1.16,-3.15,0.07,0.0,0.9869650449737316,2.384009228170059,0.011201313559883963,0.28,0,0,0.0
5.65334115099995,260,4854.47,-86.6,6.4,-82.2,0.81,-1.7,-1.43,0.1,-0.97,0.05,-123.0,114.9,-29.0,-1.19,-3.06,0.07,0.0,0.9764220398987314,2.3645295515175953,0.0213094322621864,0.28,0,0,0.0
5.660812480999994,261,4854.48,-86.5,6.6,-82.3,0.77,-1.76,-1.45,0.09,-0.98,0.05,-121.9,111.5,-26.0,-1.22,-3.01,0.13,0.0,0.985393322486001,2.4068651811017583,0.012091386681418514,0.28,0,0,0.0
5.673112891000528,262,4854.49,-86.5,6.7,-82.5,0.74,-1.81,-1.49,0.09,-0.98,0.05,-120.8,108.9,-30.0,-1.25,-2.9,-0.06,0.0,0.985393322486001,2.4584141229662673,0.011849558947790162,0.28,0,0,0.0
5.680907919000674,263,4854.5,-86.4,6.9,-82.7,0.8,-1.86,-1.52,0.09,-0.97,0.04,-119.7,105.3,-31.0,-1.28,-2.82,0.05,0.0,0.9749871794028884,2.5317977802344327,0.02181058799028468,0.28,0,0,0.0
5.693018252000002,264,4854.51,-86.4,7.0,-82.9,0.76,-1.91,-1.54,0.09,-0.97,0.05,-118.7,103.5,-22.0,-1.31,-2.77,-0.03,0.0,0.9754486147409304,2.568520975191754,0.020922169599197793,0.28,0,0,0.0
5.700917365999885,265,4854.52,-86.3,7.2,-83.1,0.69,-1.97,-1.56,0.11,-0.96,0.04,-117.6,100.7,-29.0,-1.34,-2.7,-0.1,0.0,0.9671090941563936,2.605877971049297,0.02867645638005989,0.28,0,0,0.0
5.713070503999916,266,4854.53,-86.3,7.3,-83.3,0.54,-2.0,-1.53,0.12,-0.95,0.03,-116.7,98.2,-25.0,-1.36,-2.61,0.21,0.0,0.9580187889597991,2.5753640519351824,0.037011426345121334,0.28,0,0,0.0
5.720783050000136,267,4854.54,-86.3,7.5,-83.5,0.41,-2.0,-1.52,0.13,-0.96,0.03,-115.7,94.3,-37.0,-1.39,-2.48,-0.08,0.0,0.9692264957170744,2.5452897673938817,0.02528764519608906,0.28,0,0,0.0
5.733127340999999,268,4854.55,-86.3,7.7,-83.6,0.32,-1.98,-1.5,0.15,-0.96,0.02,-114.8,88.8,-44.0,-1.41,-2.35,0.08,0.0,0.9718538984847465,2.504555848848254,0.022207037579848654,0.28,0,0,0.0
5.740851536000264,269,4854.56,-86.3,7.9,-83.8,0.24,-1.9,-1.49,0.15,-0.97,0.02,-113.9,85.4,-37.0,-1.43,-2.25,-0.01,0.0,0.9817331613019904,2.4264583243896856,0.012081219267352616,0.28,0,0,0.0
5.753229685000406,270,4854.57,-86.4,8.0,-84.0,0.19,-1.83,-1.44,0.16,-0.97,0.03,-113.1,81.8,-36.0,-1.46,-2.17,0.03,0.0,0.9835649444749441,2.3363646975590093,0.010044447372510867,0.28,0,0,0.0
5.760757936000118,271,4854.58,-86.4,8.2,-84.2,0.17,-1.77,-1.39,0.15,-0.98,0.03,-112.3,78.3,-40.0,-1.48,-2.06,0.0,0.0,0.9918669265581951,2.2569669913403696,0.0017076159834746862,0.28,0,0,0.0
5.773177574000329,272,4854.59,-86.4,8.4,-84.4,0.19,-1.73,-1.39,0.15,-0.99,0.04,-111.5,76.0,-17.0,-1.5,-2.07,0.03,0.0,1.0020977996183806,2.2273526887316253,0.008352791935176684,0.28,0,0,0.0
5.780876905000696,273,4854.6,-86.4,8.5,-84.5,0.23,-1.71,-1.39,0.15,-0.98,0.03,-110.8,75.4,-18.0,-1.52,-2.02,0.01,0.0,0.9918669265581951,2.215648889151889,0.0018405195025087417,0.28,0,0,0.0
5.793111007999869,274,4854.61,-86.4,8.7,-84.7,0.26,-1.68,-1.4,0.15,-0.97,0.03,-110.0,74.5,-6.0,-1.54,-2.02,0.15,0.0,0.9819877799646999,2.202271554554524,0.011485272774083843,0.28,0,0,0.0
5.800884269000562,275,4854.62,-86.4,8.8,-84.9,0.23,-1.67,-1.42,0.15,-0.97,0.03,-109.3,73.9,-7.0,-1.56,-2.02,0.03,0.0,0.9819877799646999,2.204132482406627,0.011255567318602111,0.28,0,0,0.0
5.813086897000176,276,4854.63,-86.5,9.0,-85.0,-0.07,-1.68,-1.31,0.15,-0.95,0.04,-108.5,74.9,3.0,-1.58,-2.03,1.08,0.0,0.9626006440887104,2.131525275477633,0.030029849130699726,0.28,0,0,0.0
5.820889718000217,277,4854.64,-86.5,9.1,-85.2,-0.15,-1.7,-1.34,0.15,-0.97,0.03,-107.8,74.1,-12.0,-1.6,-1.99,0.09,0.0,0.9819877799646999,2.1698156603730188,0.010429858989616014,0.28,0,0,0.0
5.833279720000064,278,4854.65,-86.6,9.2,-85.3,-0.28,-1.68,-1.24,0.15,-0.95,0.04,-107.1,72.3,-17.0,-1.62,-1.89,-0.17,0.0,0.9626006440887104,2.1067510531621907,0.029220654968293402,0.28,0,0,0.0
5.8408675569999104,279,4854.66,-86.6,9.4,-85.5,-0.33,-1.66,-1.23,0.16,-0.98,0.04,-106.4,69.0,-26.0,-1.64,-1.84,-0.01,0.0,0.9937806599043875,2.0922236974090507,0.0019201736304360617,0.28,0,0,0.0
5.852997762000086,280,4854.67,-86.7,9.5,-85.7,-0.34,-1.62,-1.17,0.17,-0.98,0.03,-105.7,66.3,-32.0,-1.65,-1.72,-0.06,0.0,0.9950879358127099,2.0270421801235416,0.003162900547983405,0.28,0,0,0.0
5.860854727000515,281,4854.68,-86.8,9.6,-85.8,-0.39,-1.56,-1.15,0.17,-0.99,0.03,-105.1,62.5,-29.0,-1.67,-1.67,0.09,0.0,1.0049378090210357,1.976916791369834,0.012752518281182956,0.28,0,0,0.0
5.873113387000558,282,4854.69,-86.9,9.8,-86.0,-0.47,-1.48,-1.14,0.18,-0.98,0.02,-104.5,59.5,-32.0,-1.69,-1.57,-0.26,0.0,0.9965942002640793,1.9263696426179477,0.004320731333742001,0.28,0,0,0.0
5.880810375000692,283,4854.7,-87.0,9.9,-86.1,-0.52,-1.37,-1.13,0.18,-0.98,0.01,-103.9,56.3,-26.0,-1.7,-1.51,0.02,0.0,0.9964436762808021,1.8504594024187615,0.004086803203455558,0.28,0,0,0.0
5.893299086000297,284,4854.71,-87.1,10.0,-86.3,-0.6,-1.3,-1.16,0.19,-0.98,0.01,-103.3,55.5,-16.0,-1.72,-1.45,-0.08,0.0,0.9982985525382675,1.8427153876819935,0.005822845871702564,0.28,0,0,0.0
5.900887075000355,285,4854.72,-87.2,10.2,-86.4,-0.7,-1.26,-1.2,0.18,-0.96,0.01,-102.8,51.9,-34.0,-1.73,-1.35,0.0,0.0,0.9767804256842988,1.8755265927200286,0.015381375362620853,0.28,0,0,0.0
5.913349337,286,4854.73,-87.3,10.3,-86.5,-0.82,-1.23,-1.23,0.18,-0.96,0.02,-102.3,48.7,-28.0,-1.74,-1.29,0.07,0.0,0.976933979345585,1.9230704615276062,0.014923265267307917,0.28,0,0,0.0
5.9231684080004925,287,4854.74,-87.4,10.4,-86.6,-0.85,-1.22,-1.23,0.18,-0.97,0.03,-101.8,47.3,-13.0,-1.76,-1.27,-0.05,0.0,0.9870157040290696,1.929715004864708,0.004744709772146916,0.28,0,0,0.0
5.933431630000086,288,4854.75,-87.5,10.6,-86.7,-0.74,-1.23,-1.23,0.18,-0.98,0.03,-101.4,46.5,-4.0,-1.77,-1.28,-0.12,0.0,0.9968450230602548,1.890343884059194,0.004982917073857562,0.28,0,0,0.0
5.940893794000658,289,4854.76,-87.6,10.7,-86.9,-0.54,-1.24,-1.29,0.18,-0.99,0.04,-100.9,47.8,10.0,-1.78,-1.32,0.0,0.0,1.0070253224224304,1.8690371852908654,0.014859952107312502,0.28,0,0,0.0
5.953259579000587,290,4854.77,-87.7,10.8,-87.0,-0.55,-1.28,-1.25,0.18,-0.97,0.03,-100.4,48.5,6.0,-1.8,-1.35,-0.01,0.0,0.9870157040290696,1.8717371610351705,0.0050466729603273475,0.28,0,0,0.0
5.960933033000401,291,4854.78,-87.7,11.0,-87.1,-0.58,-1.31,-1.19,0.19,-0.96,0.03,-99.9,49.3,9.0,-1.81,-1.35,0.0,0.0,0.979081201943945,1.8624177834202509,0.012721551544542908,0.28,0,0,0.0
5.973127508000289,292,4854.79,-87.8,11.1,-87.2,-0.63,-1.28,-1.09,0.2,-0.95,0.04,-99.4,50.3,7.0,-1.82,-1.37,0.08,0.0,0.9716480844420988,1.7953829675030342,0.019751575665461263,0.28,0,0,0.0
5.980877644000429,293,4854.8,-87.9,11.2,-87.4,-0.68,-1.29,-1.0,0.21,-0.95,0.03,-98.9,51.5,14.0,-1.84,-1.41,0.08,0.0,0.9733961166965892,1.7681911661356076,0.01764347254275145,0.28,0,0,0.0
5.993077066000296,294,4854.81,-88.0,11.3,-87.5,-0.77,-1.28,-0.93,0.22,-0.96,0.01,-98.4,52.8,11.0,-1.85,-1.47,-0.05,0.0,0.9849365461794988,1.7596022277776304,0.005980982198645068,0.28,0,0,0.0
6.000934010000492,295,4854.82,-88.2,11.4,-87.6,-0.9,-1.2,-0.89,0.22,-0.96,0.0,-97.8,53.9,5.0,-1.87,-1.47,-0.01,0.0,0.9848857801796105,1.744161689752415,0.005911113234562726,0.28,0,0,0.0
6.013041160000284,296,4854.83,-88.3,11.5,-87.8,-0.89,-1.17,-0.89,0.23,-0.97,0.0,-97.3,53.7,1.0,-1.88,-1.46,0.13,0.0,0.9968951800465282,1.7184586116633707,0.005976320899707899,0.28,0,0,0.0
6.0208889479999925,297,4854.84,-88.4,11.6,-87.9,-0.83,-1.13,-0.86,0.22,-0.96,0.0,-96.8,51.6,-16.0,-1.9,-1.36,0.0,0.0,0.9848857801796105,1.6448100194247357,0.005912417387865632,0.28,0,0,0.0
6.0333008950001386,298,4854.85,-88.5,11.7,-88.0,-0.75,-1.04,-0.81,0.22,-0.96,-0.01,-96.3,49.8,-12.0,-1.91,-1.32,0.08,0.0,0.9849365461794988,1.5166410254242764,0.005744418360217773,0.28,0,0,0.0
6.040854624000531,299,4854.86,-88.6,11.8,-88.1,-0.58,-0.93,-0.8,0.21,-0.97,0.0,-95.8,49.9,1.0,-1.92,-1.38,0.08,0.0,0.9924716620639604,1.356945098373549,0.0017548835737589696,0.28,0,0,0.0
6.052967321000324,300,4854.87,-88.7,11.9,-88.2,-0.55,-0.9,-0.85,0.2,-0.98,0.01,-95.3,50.1,-6.0,-1.94,-1.35,0.07,0.0,1.0002499687578101,1.3546217184144067,0.009342526462256528,0.28,0,0,0.0
6.060890536000443,301,4854.88,-88.8,12.0,-88.3,-0.38,-0.88,-0.89,0.2,-0.96,0.01,-94.8,49.8,-3.0,-1.95,-1.34,-0.08,0.0,0.9806630410084801,1.3080137613954985,0.010039513261332011,0.28,0,0,0.0
6.073179187000278,302,4854.89,-88.8,12.1,-88.4,-0.3,-0.86,-0.9,0.21,-0.95,0.01,-94.3,49.7,0.0,-1.96,-1.36,-0.03,0.0,0.9729850975220535,1.2804686642007292,0.017363107612803463,0.28,0,0,0.0
6.0808856470002866,303,4854.9,-88.9,12.2,-88.4,-0.35,-0.83,-0.94,0.22,-0.97,0.02,-93.8,49.9,0.0,-1.98,-1.36,0.06,0.0,0.994836670011716,1.3019216566291536,0.004398695579321821,0.28,0,0,0.0
6.093377699000484,304,4854.91,-88.9,12.3,-88.5,-0.42,-0.83,-0.97,0.24,-0.96,0.02,-93.2,50.5,7.0,-1.99,-1.38,-0.02,0.0,0.9897474425326898,1.3439494038095332,0.0006767212617103668,0.28,0,0,0.0
6.103423942000518,305,4854.92,-89.0,12.4,-88.6,-0.54,-0.82,-0.95,0.24,-0.96,0.02,-92.7,52.0,10.0,-2.0,-1.42,0.14,0.0,0.9897474425326898,1.3661991070118586,0.0006631868364761484,0.28,0,0,0.0
6.1127462710001055,306,4854.93,-89.1,12.6,-88.7,-0.58,-0.78,-0.93,0.26,-0.95,0.02,-92.2,51.0,-5.0,-2.02,-1.38,0.08,0.0,0.9851395840184273,1.345250905965129,0.005165624443723815,0.28,0,0,0.0
6.12091642500036,307,4854.94,-89.1,12.7,-88.8,-0.52,-0.68,-0.87,0.27,-0.95,0.01,-91.7,50.5,-6.0,-2.03,-1.35,-0.16,0.0,0.987674035297071,1.2205326705991937,0.0025785497017785097,0.28,0,0,0.0
6.133406032000494,308,4854.95,-89.2,12.8,-88.8,-0.52,-0.52,-0.79,0.28,-0.93,-0.03,-91.2,49.1,-11.0,-2.05,-1.31,0.1,0.0,0.9716995420396164,1.079305332146562,0.0181819821000484,0.28,0,0,0.0
6.143183985000178,309,4854.96,-89.3,12.9,-88.9,-0.5,-0.4,-0.71,0.28,-0.93,-0.04,-90.7,46.5,-21.0,-2.06,-1.23,0.0,0.0,0.9720596689504201,0.9560857702110204,0.01746541808545987,0.28,0,0,0.0
6.153137708000031,310,4854.97,-89.4,13.0,-88.9,-0.45,-0.33,-0.67,0.26,-0.92,-0.02,-90.3,44.3,-25.0,-2.07,-1.16,-0.15,0.0,0.9562426470305536,0.8719518335321051,0.032616791205219764,0.28,0,0,0.0
6.163504384000589,311,4854.98,-89.5,13.1,-89.0,-0.69,-0.32,-0.64,0.24,-0.93,-0.01,-89.8,40.4,-33.0,-2.08,-1.05,0.17,0.0,0.9605206921248496,0.9940321926376429,0.027771971188705336,0.28,0,0,0.0
6.172883748999993,312,4854.99,-89.6,13.2,-89.0,-0.88,-0.3,-0.61,0.23,-0.96,0.0,-89.5,37.7,-22.0,-2.09,-1.02,-0.06,0.0,0.9871676655968833,1.1119802156513396,0.0011024977623381726,0.28,0,0,0.0
6.18315460300073,313,4855.0,-89.7,13.2,-89.0,-0.76,-0.27,-0.56,0.23,-0.98,0.01,-89.2,36.3,-35.0,-2.1,-0.93,-0.06,0.0,1.006677704133751,0.9818859404228171,0.018039389959038865,0.28,0,0,0.0
6.192452721999871,314,4855.01,-89.7,13.3,-89.0,-0.6,-0.29,-0.52,0.23,-0.99,0.01,-88.8,33.8,-28.0,-2.11,-0.86,0.0,0.0,1.0164152694642086,0.8452810183601664,0.027221416183706548,0.28,0,0,0.0
6.2008914770003685,315,4855.02,-89.8,13.3,-89.1,-0.57,-0.35,-0.52,0.23,-0.98,0.02,-88.4,32.2,-10.0,-2.12,-0.87,-0.08,0.0,1.0068266980965492,0.8472307831990054,0.017280187919726298,0.28,0,0,0.0
6.21327000600013,316,4855.03,-89.8,13.4,-89.1,-0.57,-0.39,-0.52,0.24,-0.97,0.0,-88.1,32.4,-3.0,-2.13,-0.88,0.05,0.0,0.9992497185388645,0.8645229898620395,0.009509144194800645,0.28,0,0,0.0
6.223386801000743,317,4855.04,-89.9,13.5,-89.1,-0.55,-0.35,-0.48,0.24,-0.95,-0.01,-87.8,32.5,-3.0,-2.14,-0.87,0.06,0.0,0.9798979538707079,0.8095677859203638,0.009645768063888838,0.28,0,0,0.0
6.232910740000079,318,4855.05,-90.0,13.5,-89.2,-0.49,-0.28,-0.43,0.25,-0.94,-0.02,-87.5,32.8,1.0,-2.15,-0.88,-0.08,0.0,0.9728823155962903,0.7095068710026704,0.0163281782115402,0.28,0,0,0.0
6.24319028500031,319,4855.06,-90.0,13.6,-89.2,-0.47,-0.22,-0.45,0.25,-0.93,-0.01,-87.1,31.5,-11.0,-2.15,-0.83,-0.01,0.0,0.9630680142129112,0.6868769904429759,0.02561963000302092,0.28,0,0,0.0
6.253192511000634,320,4855.07,-90.1,13.6,-89.2,-0.69,-0.16,-0.44,0.25,-0.93,0.0,-86.8,29.9,-9.0,-2.16,-0.81,0.0,0.0,0.9630160954002794,0.8338465086573187,0.025158117839339633,0.28,0,0,0.0
6.260936422000668,321,4855.08,-90.2,13.7,-89.2,-0.82,-0.12,-0.42,0.26,-0.93,0.0,-86.5,30.4,-3.0,-2.17,-0.8,0.04,0.0,0.9656603957913984,0.9290855719469546,0.022063541099256234,0.28,0,0,0.0
6.273336343000665,322,4855.09,-90.3,13.8,-89.3,-0.87,-0.06,-0.37,0.27,-0.93,-0.01,-86.2,30.8,7.0,-2.18,-0.86,-0.18,0.0,0.9684523736353792,0.9473119866232033,0.018886131990169974,0.28,0,0,0.0
6.283304277000752,323,4855.1,-90.4,13.8,-89.3,-0.82,0.0,-0.34,0.27,-0.95,0.0,-85.9,32.6,23.0,-2.19,-0.94,0.19,0.0,0.987623410010111,0.8876936408468858,0.0002792062968706155,0.28,0,0,0.0
6.2929700990007404,324,4855.11,-90.4,13.9,-89.3,-0.81,-0.01,-0.33,0.26,-0.96,0.0,-85.5,36.4,31.0,-2.2,-1.03,0.06,0.0,0.9945853407325085,0.8746999485537884,0.007096314278882687,0.28,0,0,0.0
6.303201106000415,325,4855.12,-90.5,13.9,-89.3,-0.78,-0.02,-0.34,0.24,-0.97,-0.01,-85.1,40.9,36.0,-2.21,-1.15,0.11,0.0,0.9992997548283498,0.8511169132381285,0.011574513807229514,0.28,0,0,0.0
6.312902265000048,326,4855.13,-90.6,14.0,-89.3,-0.77,-0.05,-0.33,0.25,-0.97,0.0,-84.7,42.7,5.0,-2.22,-1.12,0.3,0.0,1.0016985574512924,0.8392258337301111,0.01369385010156876,0.28,0,0,0.0
6.320934635999947,327,4855.14,-90.7,14.0,-89.3,-0.66,-0.05,-0.3,0.24,-0.98,-0.01,-84.3,39.1,-24.0,-2.23,-1.0,0.0,0.0,1.0090094152187083,0.7267048919609665,0.020584613711605027,0.28,0,0,0.0
6.33322008200048,328,4855.15,-90.7,14.0,-89.3,-0.58,-0.02,-0.3,0.24,-0.99,-0.01,-84.0,34.3,-43.0,-2.24,-0.86,0.19,0.0,1.0187246929372038,0.653299318842443,0.029693893601498433,0.28,0,0,0.0
6.340931015000024,329,4855.16,-90.8,14.1,-89.3,-0.47,-0.06,-0.37,0.24,-0.99,0.0,-83.7,27.8,-53.0,-2.25,-0.69,0.02,0.0,1.0186756107809787,0.6011655346075654,0.029051915216367852,0.28,0,0,0.0
6.3532896050001,330,4855.17,-90.8,14.1,-89.3,-0.47,-0.1,-0.43,0.23,-0.98,0.0,-83.4,21.2,-70.0,-2.25,-0.46,-0.12,0.0,1.006628034578811,0.6448255578061403,0.01666425223391621,0.28,0,0,0.0
6.363172504999966,331,4855.18,-90.9,14.1,-89.3,-0.58,-0.14,-0.48,0.23,-0.97,0.0,-83.3,13.4,-62.0,-2.26,-0.32,0.17,0.0,0.9968951800465282,0.7657675887630659,0.006792769747600791,0.28,0,0,0.0
6.372853024000506,332,4855.19,-90.9,14.2,-89.3,-0.48,-0.13,-0.52,0.22,-0.98,0.0,-83.2,8.3,-72.0,-2.26,-0.09,-0.07,0.0,1.0043903623591774,0.7195137246779939,0.01400219301904504,0.28,0,0,0.0
6.383360337999875,333,4855.2,-91.0,14.2,-89.3,-0.34,-0.16,-0.57,0.22,-0.97,0.0,-83.1,-0.6,-84.0,-2.26,0.1,-0.07,0.0,0.9946356116689167,0.6827151675479314,0.00416249348220854,0.28,0,0,0.0
6.392883682000502,334,4855.21,-91.0,14.3,-89.3,-0.16,-0.16,-0.64,0.21,-0.97,-0.01,-83.2,-0.8,8.0,-2.26,-0.05,0.01,0.0,0.9925220400575495,0.6788225099390857,0.002007943433424586,0.28,0,0,0.0
6.403282491000027,335,4855.22,-91.0,14.3,-89.4,-0.1,-0.18,-0.74,0.21,-0.95,0.0,-83.2,1.1,-8.0,-2.26,0.0,-0.13,0.0,0.9729337079164233,0.7681145747868608,0.017228780933547627,0.28,0,0,0.0
6.4129396570006065,336,4855.23,-91.0,14.4,-89.4,-0.16,-0.28,-0.82,0.22,-0.94,0.02,-83.2,-0.3,-2.0,-2.26,0.0,0.08,0.0,0.9656086163658648,0.8811356308764274,0.02406279503442399,0.28,0,0,0.0
6.42099508299998,337,4855.24,-91.0,14.4,-89.4,-0.3,-0.39,-0.87,0.22,-0.95,0.03,-83.2,0.2,0.0,-2.26,0.0,0.04,0.0,0.975602378020882,0.999499874937461,0.013787652711818699,0.28,0,0,0.0
6.433296995000092,338,4855.25,-91.0,14.5,-89.5,-0.28,-0.44,-0.9,0.22,-0.95,0.0,-83.2,0.0,3.0,-2.26,-0.01,0.01,0.0,0.9751410154434075,1.0401922899156675,0.0139640349835074,0.28,0,0,0.0
6.443320895000397,339,4855.26,-91.1,14.6,-89.5,-0.06,-0.38,-0.86,0.23,-0.94,-0.01,-83.2,0.0,-1.0,-2.26,0.0,0.0,0.0,0.9677809669548166,0.9421252570651102,0.020897601802656318,0.28,0,0,0.0
6.4528966050002055,340,4855.27,-91.1,14.7,-89.5,0.14,-0.37,-0.86,0.22,-0.95,0.0,-83.2,0.2,-3.0,-2.26,0.0,-0.31,0.0,0.9751410154434075,0.9466255859631092,0.013266802247784204,0.28,0,0,0.0
6.4608290250007485,341,4855.28,-91.0,14.7,-89.6,0.1,-0.39,-0.89,0.22,-0.93,0.02,-83.2,0.2,0.0,-2.26,0.0,-0.01,0.0,0.9558765610684259,0.9768316129200569,0.03188063149031051,0.28,0,0,0.0
6.473289384000054,342,4855.29,-91.0,14.8,-89.6,-0.06,-0.47,-0.9,0.23,-0.91,0.02,-83.2,0.0,0.0,-2.26,-0.01,0.17,0.0,0.938829057922687,1.0171037311896953,0.047949571943328384,0.28,0,0,0.0
6.483290131000103,343,4855.3,-91.0,14.9,-89.7,-0.26,-0.6,-0.84,0.24,-0.9,0.01,-83.2,0.5,0.0,-2.26,0.0,-0.31,0.0,0.9315041599477697,1.064518670573701,0.05416898051988073,0.28,0,0,0.0
6.492664756000522,344,4855.31,-91.1,15.0,-89.7,-0.48,-0.64,-0.7,0.26,-0.91,0.0,-83.2,-0.1,2.0,-2.26,-0.01,-0.22,0.0,0.9464142856064675,1.0630145812734648,0.03847367776395927,0.28,0,0,0.0
6.503060418000132,345,4855.32,-91.1,15.1,-89.8,-0.69,-0.66,-0.51,0.28,-0.94,-0.02,-83.2,0.1,0.0,-2.26,0.0,0.04,0.0,0.9810198774744576,1.0824971131601229,0.003790724178049709,0.28,0,0,0.0
6.513218426000094,346,4855.33,-91.2,15.1,-89.9,-0.75,-0.58,-0.29,0.28,-0.97,-0.02,-83.1,0.2,-3.0,-2.26,0.01,0.1,0.0,1.00980196078241,0.991463564635635,0.02449153194730469,0.28,0,0,0.0
6.5208746500002235,347,4855.34,-91.3,15.1,-89.9,-0.6,-0.43,-0.05,0.28,-0.99,-0.03,-83.1,0.4,1.0,-2.26,-0.01,0.19,0.0,1.0292715870944849,0.7398648525237564,0.04308193509419189,0.28,0,0,0.0
6.533274192000135,348,4855.35,-91.4,15.1,-90.0,-0.33,-0.23,0.15,0.28,-1.03,-0.02,-83.1,0.5,0.0,-2.26,0.0,0.01,0.0,1.0675673280875544,0.4293017586733136,0.07975012256551617,0.28,0,0,0.0
6.543532932000744,349,4855.36,-91.4,15.1,-90.0,0.04,0.01,0.32,0.27,-1.04,0.0,-83.1,0.2,0.0,-2.26,0.0,-0.16,0.0,1.074476616776745,0.32264531609803354,0.08492622302961261,0.28,0,0,0.0
6.552890908000336,350,4855.37,-91.4,15.1,-89.9,0.32,0.2,0.39,0.27,-1.02,0.0,-83.1,0.4,-1.0,-2.26,0.0,0.13,0.0,1.0551303237041385,0.5426785420486054,0.06426833135786603,0.28,0,0,0.0
6.560913811000319,351,4855.38,-91.3,15.0,-89.9,0.36,0.34,0.4,0.26,-1.0,0.0,-83.1,0.0,-2.0,-2.26,0.0,0.1,0.0,1.0332473082471592,0.636553218513582,0.041537609582868895,0.28,0,0,0.0
6.57334058700053,352,4855.39,-91.2,15.0,-89.9,0.38,0.49,0.33,0.24,-0.99,0.0,-83.1,0.0,-3.0,-2.26,0.01,0.04,0.0,1.0186756107809787,0.7024243731534378,0.026426593874354642,0.28,0,0,0.0
6.583368177000011,353,4855.4,-91.2,14.9,-89.8,0.39,0.6,0.16,0.22,-0.98,-0.01,-83.1,0.0,4.0,-2.26,-0.01,0.04,0.0,1.0044401425669924,0.7332803011127463,0.011947303147161081,0.28,0,0,0.0
6.596705882000606,354,4855.41,-91.1,14.9,-89.7,0.33,0.61,0.0,0.2,-0.96,0.0,-83.1,0.4,0.0,-2.26,0.0,-0.04,0.0,0.980612053770501,0.6935416353759881,0.011643169936343734,0.28,0,0,0.0
6.604549955000039,355,4855.42,-91.1,14.9,-89.7,0.32,0.45,-0.1,0.18,-0.93,0.0,-83.1,0.3,2.0,-2.26,-0.02,-0.04,0.0,0.9472592042308167,0.561159513863928,0.04409609908650747,0.28,0,0,0.0
6.612880090000544,356,4855.43,-91.0,14.9,-89.6,0.19,0.23,-0.08,0.17,-0.92,0.0,-83.1,0.0,-2.0,-2.26,0.0,0.01,0.0,0.9355746896961248,0.30886890422961,0.05466500134877539,0.28,0,0,0.0
6.62333436300014,357,4855.44,-91.0,14.8,-89.6,0.06,-0.04,0.03,0.17,-0.91,0.01,-83.1,0.1,5.0,-2.26,-0.02,-0.16,0.0,0.9257969539807311,0.07810249675906654,0.06315388232288566,0.28,0,0,0.0
6.632940219000375,358,4855.45,-91.0,14.8,-89.6,0.03,-0.32,0.19,0.18,-0.92,0.01,-83.1,0.1,-4.0,-2.26,0.0,-0.22,0.0,0.9374966666607407,0.3733630940518894,0.050425086250018514,0.28,0,0,0.0
6.643378530000518,359,4855.46,-91.0,14.7,-89.7,0.06,-0.52,0.4,0.19,-0.94,0.0,-83.1,0.0,-1.0,-2.26,0.0,0.01,0.0,0.9590099061010788,0.6587867636800242,0.028333609873486765,0.28,0,0,0.0
6.652876598000148,360,4855.47,-91.0,14.6,-89.7,0.12,-0.69,0.58,0.2,-0.97,0.0,-83.1,0.0,-3.0,-2.26,0.0,-0.03,0.0,0.9904039579888602,0.9093404203047393,0.002999233174008631,0.28,0,0,0.0
6.66344035900056,361,4855.48,-90.9,14.5,-89.8,0.14,-0.85,0.64,0.21,-1.0,0.0,-83.1,0.0,0.0,-2.26,0.0,0.01,0.0,1.0218121158021176,1.0731728658515365,0.03371924316752073,0.28,0,0,0.0
6.672880318999887,362,4855.49,-90.9,14.4,-89.9,0.24,-1.01,0.58,0.21,-1.01,0.0,-83.1,0.0,-2.0,-2.26,0.01,-0.09,0.0,1.0316006979447039,1.1891593669479295,0.04263766880390485,0.28,0,0,0.0
6.6830796459998965,363,4855.5,-90.9,14.4,-90.0,0.32,-1.12,0.54,0.23,-1.01,-0.01,-83.1,0.3,4.0,-2.26,-0.01,-0.12,0.0,1.035905401086412,1.2839003076563227,0.046003524506700644,0.28,0,0,0.0
6.69333122199987,364,4855.51,-90.9,14.3,-90.1,0.37,-1.19,0.5,0.25,-1.02,-0.01,-83.1,-0.1,-1.0,-2.26,0.0,-0.16,0.0,1.0502380682492898,1.3427583550289308,0.05912946783618689,0.28,0,0,0.0
6.703399783999885,365,4855.52,-90.9,14.3,-90.3,0.54,-1.16,0.46,0.28,-1.01,-0.03,-83.1,0.0,0.0,-2.26,0.0,-0.16,0.0,1.0485227703774487,1.3597058505426827,0.05626588656505882,0.28,0,0,0.0
6.712882061000528,366,4855.53,-90.9,14.2,-90.4,0.75,-0.98,0.42,0.3,-1.01,-0.03,-83.1,0.0,-1.0,-2.26,0.0,0.1,0.0,1.0540398474441086,1.3035720156554451,0.0605473043590844,0.28,0,0,0.0
6.723091777000263,367,4855.54,-90.9,14.2,-90.5,0.76,-0.73,0.34,0.3,-1.01,-0.04,-83.1,-0.1,2.0,-2.26,0.0,0.05,0.0,1.0543718509140882,1.1072939989000212,0.05966172167248274,0.28,0,0,0.0
6.732947858000443,368,4855.55,-90.8,14.2,-90.5,0.62,-0.48,0.2,0.3,-1.01,-0.04,-83.1,0.0,-1.0,-2.26,0.0,0.07,0.0,1.0543718509140882,0.8091971329657563,0.058468487239033085,0.28,0,0,0.0
6.743132677000176,369,4855.56,-90.8,14.2,-90.6,0.6,-0.27,0.05,0.29,-1.01,-0.02,-83.1,0.0,0.0,-2.26,0.0,0.05,0.0,1.0509995242624994,0.6598484674529449,0.05399423737569542,0.28,0,0,0.0
6.7527249550003035,370,4855.57,-90.7,14.2,-90.6,0.72,-0.14,-0.06,0.29,-1.0,0.0,-83.1,0.0,-4.0,-2.26,0.01,-0.09,0.0,1.0412012293500235,0.7359347797189639,0.04331202361395503,0.28,0,0,0.0
6.764954898000724,371,4855.58,-90.6,14.3,-90.6,0.74,-0.06,-0.19,0.27,-1.01,0.0,-83.1,0.0,-1.0,-2.26,0.0,0.01,0.0,1.0454664030948102,0.766355009117837,0.04662565341156699,0.28,0,0,0.0
6.772889163999935,372,4855.59,-90.6,14.3,-90.6,0.66,0.02,-0.34,0.26,-1.0,-0.01,-83.1,0.0,-1.0,-2.26,0.0,-0.16,0.0,1.0332956982393762,0.7426977851050858,0.03376584958501028,0.28,0,0,0.0
6.7831465530007335,373,4855.6,-90.5,14.4,-90.6,0.65,0.09,-0.51,0.26,-1.01,0.0,-83.1,0.1,-4.0,-2.26,0.01,0.05,0.0,1.0429285689825551,0.8310836299675263,0.042530745921625535,0.28,0,0,0.0
6.792970628000148,374,4855.61,-90.4,14.4,-90.6,0.62,0.12,-0.75,0.24,-1.01,0.01,-83.1,0.1,5.0,-2.26,-0.01,-0.12,0.0,1.0381714694596458,0.9804590761474953,0.037018173470741766,0.28,0,0,0.0
6.804901909999899,375,4855.62,-90.3,14.5,-90.6,0.65,0.1,-0.93,0.24,-0.98,0.01,-83.1,0.2,0.0,-2.26,0.0,0.05,0.0,1.0090094152187083,1.139034679015525,0.007698996845208361,0.28,0,0,0.0
6.8128381619999345,376,4855.63,-90.3,14.6,-90.6,0.68,0.06,-1.01,0.24,-0.97,0.01,-83.1,-0.1,2.0,-2.26,-0.01,-0.07,0.0,0.9992997548283498,1.2190570126126177,0.0019704502742472485,0.28,0,0,0.0
6.823419090000243,377,4855.64,-90.2,14.7,-90.6,0.89,0.01,-1.09,0.25,-0.95,0.0,-83.1,1.2,7.0,-2.26,-0.04,0.16,0.0,0.982344135219425,1.4072313242676202,0.018547548485508547,0.28,0,0,0.0
6.8328894570004195,378,4855.65,-90.1,14.8,-90.6,1.13,-0.03,-1.2,0.26,-0.95,0.01,-83.1,2.1,7.0,-2.26,-0.06,-0.17,0.0,0.9849873095629201,1.6485751423577875,0.015586286659173054,0.28,0,0,0.0
6.8432239130006565,379,4855.66,-89.9,15.0,-90.6,1.17,-0.03,-1.32,0.27,-0.93,0.0,-83.1,3.2,17.0,-2.26,-0.12,-0.08,0.0,0.9684007434941384,1.7641428513586987,0.03152939567339563,0.28,0,0,0.0
6.853048793000198,380,4855.67,-89.8,15.1,-90.6,0.96,-0.16,-1.46,0.28,-0.93,0.01,-83.0,6.3,21.0,-2.26,-0.19,0.07,0.0,0.9712878049270464,1.7546509624423883,0.028069487555677952,0.28,0,0,0.0
6.863468495000234,381,4855.68,-89.8,15.3,-90.6,0.56,-0.23,-1.56,0.27,-0.93,0.0,-82.9,6.4,7.0,-2.26,-0.18,-0.18,0.0,0.9684007434941384,1.6733499335165973,0.030337418008814176,0.28,0,0,0.0
6.87285408400021,382,4855.69,-89.7,15.4,-90.6,0.18,-0.24,-1.56,0.27,-0.95,0.0,-82.9,10.1,44.0,-2.27,-0.37,0.07,0.0,0.987623410010111,1.5885842753848471,0.010892456462984756,0.28,0,0,0.0
6.883110689000205,383,4855.7,-89.7,15.6,-90.6,0.01,-0.26,-1.48,0.28,-0.97,0.0,-82.7,16.9,45.0,-2.27,-0.48,-0.11,0.0,1.0096038827183658,1.502697574364183,0.01086625592036461,0.28,0,0,0.0
6.893334650000725,384,4855.71,-89.7,15.7,-90.7,0.27,-0.18,-1.38,0.28,-0.99,-0.01,-82.5,19.0,23.0,-2.28,-0.53,-0.03,0.0,1.0288828893513586,1.417638882085279,0.02954235730229038,0.28,0,0,0.0
6.903385345000061,385,4855.72,-89.7,15.9,-90.7,0.82,-0.06,-1.31,0.28,-1.02,-0.01,-82.3,23.0,44.0,-2.28,-0.68,0.1,0.0,1.0577806956075537,1.546641522784126,0.05727136028731583,0.28,0,0,0.0
6.912921769000604,386,4855.73,-89.6,16.0,-90.7,1.41,0.0,-1.35,0.27,-1.01,0.0,-82.0,29.2,58.0,-2.29,-0.88,0.22,0.0,1.0454664030948102,1.9520758181996927,0.044057926419080795,0.28,0,0,0.0
6.923371779000263,387,4855.74,-89.4,16.1,-90.7,1.85,0.03,-1.46,0.26,-0.99,0.0,-81.7,35.9,57.0,-2.3,-1.02,0.16,0.0,1.0235721762533407,2.356904749878535,0.021720425586059022,0.28,0,0,0.0
6.93298137200054,388,4855.75,-89.2,16.3,-90.7,2.05,-0.14,-1.59,0.26,-0.96,0.04,-81.3,42.1,72.0,-2.31,-1.26,0.03,0.0,0.9953893710503443,2.5981147010861547,0.006333132024598731,0.28,0,0,0.0
6.940882161000445,389,4855.76,-89.0,16.4,-90.7,1.82,-0.32,-1.74,0.25,-0.91,0.07,-80.8,51.4,83.0,-2.33,-1.5,-0.15,0.0,0.9463086177352503,2.5381883302859936,0.05430560763289882,0.28,0,0,0.0
6.953287717999956,390,4855.77,-88.8,16.6,-90.7,1.46,-0.67,-1.76,0.26,-0.88,0.05,-80.2,62.7,106.0,-2.35,-1.83,-0.05,0.0,0.9189668111526117,2.3828764130772706,0.08001446593122674,0.28,0,0,0.0
6.963503059000686,391,4855.78,-88.7,16.8,-90.8,1.04,-0.89,-1.64,0.27,-0.87,0.03,-79.5,72.8,95.0,-2.37,-2.08,0.03,0.0,0.9114274518577987,2.136188193956703,0.08580274872151894,0.28,0,0,0.0
6.972742658000243,392,4855.79,-88.6,17.0,-90.9,0.81,-1.01,-1.49,0.27,-0.88,0.03,-78.7,78.9,63.0,-2.39,-2.18,-0.07,0.0,0.92097774131626,1.9739047596072106,0.07472741007779649,0.28,0,0,0.0
6.98297850400013,393,4855.8,-88.6,17.1,-91.0,0.74,-1.04,-1.31,0.28,-0.89,0.02,-77.9,82.3,45.0,-2.41,-2.28,-0.22,0.0,0.9332202312423366,1.8290161289611417,0.061235221748685564,0.28,0,0,0.0
6.99318637900069,394,4855.81,-88.5,17.2,-91.1,0.71,-0.99,-1.04,0.29,-0.92,0.02,-77.1,85.9,32.0,-2.43,-2.35,-0.19,0.0,0.9648315915225827,1.6018114745499858,0.02903138423907059,0.28,0,0,0.0
7.003310967000289,395,4855.82,-88.5,17.3,-91.2,0.8,-0.91,-0.8,0.32,-0.93,0.01,-76.2,86.1,4.0,-2.46,-2.32,0.03,0.0,0.9835649444749442,1.4519297503667319,0.010092070660974839,0.28,0,0,0.0
7.012955389000126,396,4855.83,-88.4,17.4,-91.3,1.05,-0.83,-0.56,0.34,-0.94,0.0,-75.4,85.1,-5.0,-2.48,-2.29,-0.09,0.0,0.999599919967984,1.4508618128546908,0.0058240467354236936,0.28,0,0,0.0
7.023373146000267,397,4855.84,-88.4,17.5,-91.4,1.17,-0.66,-0.44,0.33,-0.96,-0.01,-74.5,84.2,-9.0,-2.5,-2.27,-0.02,0.0,1.0151847122568385,1.4135416513141732,0.02098066224379258,0.28,0,0,0.0
7.032952631000626,398,4855.85,-88.3,17.6,-91.5,1.16,-0.55,-0.46,0.32,-0.95,-0.01,-73.7,80.6,-24.0,-2.52,-2.16,0.05,0.0,1.002496882788171,1.3637081799270692,0.008126976119622653,0.28,0,0,0.0
7.040956226000162,399,4855.86,-88.2,17.6,-91.5,1.02,-0.46,-0.48,0.3,-0.94,-0.01,-72.9,78.6,-24.0,-2.55,-2.1,0.1,0.0,0.9867623827447011,1.217538500417954,0.007455373445370395,0.28,0,0,0.0
7.053323807000197,400,4855.87,-88.2,17.7,-91.6,0.9,-0.42,-0.52,0.29,-0.92,0.0,-72.1,75.2,-26.0,-2.57,-2.02,0.05,0.0,0.9646242791885347,1.1210709165793216,0.02900160746150604,0.28,0,0,0.0
7.063389672000085,401,4855.88,-88.1,17.7,-91.6,0.75,-0.39,-0.57,0.28,-0.94,0.0,-71.4,71.8,-43.0,-2.59,-1.86,0.0,0.0,0.9808159868191383,1.0195587280779856,0.012553701834284392,0.28,0,0,0.0
7.076849998999933,402,4855.89,-88.1,17.8,-91.7,0.7,-0.36,-0.49,0.29,-0.9,0.0,-70.7,64.4,-67.0,-2.6,-1.65,0.0,0.0,0.945568612000208,0.9272000862812729,0.04684505512015036,0.28,0,0,0.0
7.0849375560001135,403,4855.9,-88.0,17.8,-91.7,0.61,-0.28,-0.33,0.3,-0.92,0.01,-70.2,56.3,-83.0,-2.62,-1.36,0.24,0.0,0.9677293009927931,0.7479304780526062,0.02419067880501402,0.28,0,0,0.0
7.092926203999923,404,4855.91,-88.0,17.8,-91.7,0.6,-0.18,-0.21,0.32,-0.94,0.0,-69.7,43.8,-104.0,-2.63,-1.06,-0.02,0.0,0.9929753269845127,0.6606814663663572,0.0010342402429714959,0.28,0,0,0.0
7.103155966000486,405,4855.92,-87.9,17.9,-91.7,0.57,-0.06,-0.09,0.33,-0.95,0.01,-69.3,31.9,-120.0,-2.64,-0.7,0.03,0.0,1.0057335631269348,0.5801723881744114,0.013516626857685732,0.28,0,0,0.0
7.113485975000003,406,4855.93,-87.9,17.9,-91.7,0.56,0.04,-0.01,0.33,-0.96,0.0,-69.1,18.6,-130.0,-2.64,-0.33,0.05,0.0,1.0151354589413177,0.5615158056546583,0.022460152218627294,0.28,0,0,0.0
7.120974576000663,407,4855.94,-87.9,17.9,-91.7,0.55,0.08,0.02,0.33,-0.96,0.0,-69.0,3.4,-144.0,-2.64,0.07,0.02,0.0,1.0151354589413177,0.5561474624593733,0.022010949174254724,0.28,0,0,0.0
7.133475702999931,408,4855.95,-87.8,17.9,-91.7,0.51,0.11,0.12,0.33,-0.93,0.0,-69.0,-4.3,-66.0,-2.64,0.11,-0.07,0.0,0.9868130522039117,0.5353503525729669,0.006185228411888288,0.28,0,0,0.0
7.14331164000032,409,4855.96,-87.8,17.9,-91.7,0.6,0.19,0.19,0.31,-0.94,0.0,-69.1,-0.8,11.0,-2.64,-0.03,-0.02,0.0,0.9897979591815695,0.6574191965557441,0.0031363150055457867,0.28,0,0,0.0
7.1529432710003675,410,4855.97,-87.7,17.9,-91.7,0.71,0.28,0.24,0.3,-0.93,0.0,-69.1,1.9,3.0,-2.64,-0.02,-0.02,0.0,0.9771898484941399,0.8000624975587844,0.015429537179115882,0.28,0,0,0.0
7.163239725000494,411,4855.98,-87.7,17.8,-91.7,0.62,0.39,0.33,0.29,-0.93,-0.01,-69.0,-0.3,-11.0,-2.64,0.02,0.06,0.0,0.9742176348229383,0.8033679107357973,0.018033715833311148,0.28,0,0,0.0
7.1728319020003255,412,4855.99,-87.6,17.8,-91.6,0.61,0.51,0.31,0.28,-0.94,0.0,-69.1,-0.6,0.0,-2.64,0.0,0.15,0.0,0.9808159868191383,0.8534049449118513,0.01120665656036901,0.28,0,0,0.0
7.1809631670003,413,4856.0,-87.6,17.8,-91.6,0.58,0.54,0.21,0.28,-0.94,0.01,-69.1,0.0,-3.0,-2.64,0.02,0.1,0.0,0.9808669634563089,0.8198170527623831,0.010932566324734494,0.28,0,0,0.0
7.1934961679999105,414,4856.01,-87.5,17.7,-91.5,0.4,0.45,0.09,0.26,-0.94,0.05,-69.1,-0.6,5.0,-2.64,-0.01,-0.21,0.0,0.9765756499114648,0.608769250208977,0.01491940227218691,0.28,0,0,0.0
7.203381115999946,415,4856.02,-87.5,17.7,-91.5,0.18,0.31,0.0,0.24,-0.93,0.08,-69.1,0.4,3.0,-2.64,0.0,-0.02,0.0,0.9637945839233587,0.3584689665786984,0.027146458895087155,0.28,0,0,0.0
7.212956360000135,416,4856.03,-87.4,17.7,-91.5,0.16,0.16,-0.06,0.23,-0.93,0.09,-69.1,0.0,0.0,-2.64,0.0,-0.21,0.0,0.9622369770487934,0.2340939982143925,0.028129984454259405,0.28,0,0,0.0
7.223392160000003,417,4856.04,-87.3,17.6,-91.4,0.32,0.02,-0.1,0.23,-0.91,0.08,-69.1,0.0,0.0,-2.64,0.0,-0.07,0.0,0.9420191080864548,0.33585711247493333,0.04738089634826603,0.28,0,0,0.0
7.232854667000538,418,4856.05,-87.3,17.6,-91.4,0.43,-0.12,-0.15,0.24,-0.88,0.06,-69.1,0.1,0.0,-2.64,0.0,0.01,0.0,0.9141115905621151,0.4709564735726646,0.07378264559515368,0.28,0,0,0.0
7.2435373200005415,419,4856.06,-87.3,17.6,-91.5,0.35,-0.3,-0.22,0.26,-0.86,0.04,-69.1,0.3,3.0,-2.64,-0.01,-0.02,0.0,0.8993330862366846,0.5107837115648853,0.08678992692217247,0.28,0,0,0.0
7.252904526000748,420,4856.07,-87.3,17.7,-91.5,0.05,-0.52,-0.24,0.26,-0.85,0.01,-69.0,0.0,-3.0,-2.64,0.0,0.06,0.0,0.8889319434017432,0.5748912940721924,0.09524724836197163,0.28,0,0,0.0
7.263508701000319,421,4856.08,-87.3,17.7,-91.6,-0.36,-0.76,-0.26,0.27,-0.87,0.02,-69.1,-0.2,-5.0,-2.64,0.02,-0.02,0.0,0.9111531155629112,0.8802272433866155,0.07156555467678749,0.28,0,0,0.0
7.272676236000734,422,4856.09,-87.4,17.7,-91.7,-0.75,-1.01,-0.18,0.29,-0.9,0.03,-69.1,0.0,2.0,-2.64,0.0,0.06,0.0,0.9460443964212251,1.2708265027138834,0.035940788342104235,0.28,0,0,0.0
7.283309350000309,423,4856.1,-87.5,17.7,-91.8,-0.87,-1.16,-0.02,0.31,-0.95,0.04,-69.1,0.0,0.0,-2.64,0.0,-0.02,0.0,1.0000999950004998,1.450137924474772,0.01775251403242717,0.28,0,0,0.0
7.292823010000575,424,4856.11,-87.6,17.7,-91.9,-0.73,-1.12,0.23,0.34,-1.0,0.04,-69.1,0.0,0.0,-2.64,0.0,-0.07,0.0,1.056976820937905,1.3565397155999526,0.07313675317043555,0.28,0,0,0.0
7.3033791840007325,425,4856.12,-87.7,17.7,-92.0,-0.19,-0.86,0.47,0.37,-1.03,0.02,-69.1,0.1,4.0,-2.64,-0.01,0.2,0.0,1.0946232228488486,0.9982985525382675,0.10856749197975168,0.28,0,0,0.0
7.312948778000646,426,4856.13,-87.7,17.7,-92.1,0.46,-0.44,0.64,0.39,-1.03,0.0,-69.1,0.0,-3.0,-2.64,0.01,0.15,0.0,1.1013627921806692,0.9026627277117406,0.1130009200853409,0.28,0,0,0.0
7.323204001000704,427,4856.14,-87.7,17.6,-92.1,0.9,0.0,0.7,0.39,-1.01,-0.01,-69.0,0.1,0.0,-2.64,0.0,0.06,0.0,1.082728036027515,1.140175425099138,0.09247884065354306,0.28,0,0,0.0
7.332895518000441,428,4856.15,-87.6,17.6,-92.1,0.97,0.36,0.58,0.38,-0.98,0.0,-69.1,-0.5,-3.0,-2.64,0.0,-0.02,0.0,1.051094667477673,1.1861281549647154,0.05962856266162708,0.28,0,0,0.0
7.343534050000017,429,4856.16,-87.5,17.6,-92.1,0.67,0.58,0.41,0.34,-0.94,0.01,-69.1,0.3,3.0,-2.64,0.0,0.02,0.0,0.9996499387285531,0.9764220398987316,0.008020157234256975,0.28,0,0,0.0
7.3528749900006005,430,4856.17,-87.5,17.6,-92.0,0.2,0.65,0.22,0.29,-0.93,0.05,-69.0,0.2,-5.0,-2.64,0.01,0.02,0.0,0.9754486147409304,0.7147726911403373,0.01585754341829848,0.28,0,0,0.0
7.363296060000721,431,4856.18,-87.4,17.5,-91.9,-0.14,0.64,0.06,0.24,-0.93,0.08,-69.1,-0.6,4.0,-2.64,0.0,-0.07,0.0,0.9637945839233587,0.657875368135941,0.026961342751152695,0.28,0,0,0.0
7.37693500900059,432,4856.19,-87.4,17.5,-91.9,-0.31,0.52,-0.03,0.21,-0.94,0.09,-69.0,0.9,-1.0,-2.64,0.0,-0.16,0.0,0.9673675619949224,0.6061352984276696,0.022920597385997277,0.28,0,0,0.0
7.385006479999902,433,4856.2,-87.4,17.5,-91.8,-0.33,0.39,-0.03,0.21,-0.94,0.09,-69.1,-0.9,-7.0,-2.64,0.02,-0.02,0.0,0.9673675619949224,0.5117616632769595,0.022462185438277382,0.28,0,0,0.0
7.392873572000099,434,4856.21,-87.4,17.5,-91.8,-0.21,0.24,0.0,0.23,-0.94,0.07,-69.1,0.5,7.0,-2.64,-0.02,-0.02,0.0,0.9702576977277737,0.31890437438203945,0.01918060871131755,0.28,0,0,0.0
7.4034850050002206,435,4856.22,-87.4,17.4,-91.8,-0.1,0.12,0.05,0.26,-0.94,0.05,-69.1,-0.2,-10.0,-2.64,0.03,-0.07,0.0,0.9765756499114648,0.16401219466856726,0.012605403397073833,0.28,0,0,0.0
7.4129393990006065,436,4856.23,-87.4,17.4,-91.8,-0.03,-0.01,0.05,0.28,-0.95,0.03,-69.1,0.0,10.0,-2.64,-0.02,0.06,0.0,0.9908582138732059,0.05916079783099616,0.0016436173533739273,0.28,0,0,0.0
7.423147964000236,437,4856.24,-87.5,17.4,-91.8,-0.02,-0.13,0.05,0.31,-0.95,0.02,-69.1,0.1,-4.0,-2.64,0.0,0.2,0.0,0.9994998749374608,0.1407124727947029,0.010079572849276297,0.28,0,0,0.0
7.433413366999957,438,4856.25,-87.5,17.4,-91.8,-0.03,-0.22,0.07,0.33,-0.96,0.02,-69.0,0.3,0.0,-2.64,0.0,-0.07,0.0,1.015332457867865,0.23280893453645632,0.02539391266408697,0.28,0,0,0.0
7.443475304999993,439,4856.26,-87.5,17.4,-91.8,0.07,-0.23,0.07,0.32,-0.98,0.04,-69.1,-0.2,-1.0,-2.64,0.01,0.01,0.0,1.0316976301223144,0.2503996805109783,0.04092390322016559,0.28,0,0,0.0
7.452792853000574,440,4856.27,-87.5,17.4,-91.8,0.26,-0.24,0.09,0.32,-0.98,0.06,-69.1,0.1,6.0,-2.64,-0.02,0.15,0.0,1.032666451474047,0.3651027252705737,0.04105487008046016,0.28,0,0,0.0
7.463564557000609,441,4856.28,-87.4,17.4,-91.9,0.43,-0.22,0.13,0.32,-0.97,0.06,-69.0,0.0,-2.0,-2.64,0.0,0.11,0.0,1.0231813133555558,0.500199960015992,0.03093833732272977,0.28,0,0,0.0
7.472819022000294,442,4856.29,-87.4,17.4,-91.9,0.52,-0.14,0.16,0.32,-0.95,0.05,-69.0,0.1,0.0,-2.64,0.0,-0.07,0.0,1.0036931802099682,0.5617828762075256,0.011221200093599282,0.28,0,0,0.0
7.483537537000302,443,4856.3,-87.3,17.4,-91.9,0.44,-0.03,0.18,0.32,-0.94,0.04,-69.0,0.2,0.0,-2.64,0.0,-0.02,0.0,0.9937806599043876,0.47634021455258213,0.001282506192258226,0.28,0,0,0.0
7.492866739000419,444,4856.31,-87.3,17.4,-91.9,0.18,0.11,0.22,0.32,-0.93,0.02,-69.0,0.0,3.0,-2.64,-0.01,0.2,0.0,0.9837174391053561,0.3047950130825634,0.008605100314637792,0.28,0,0,0.0
7.50352242200006,445,4856.32,-87.3,17.4,-91.9,-0.01,0.26,0.24,0.31,-0.94,0.0,-69.0,0.4,0.0,-2.64,-0.01,-0.07,0.0,0.9897979591815695,0.3539774004085572,0.0024740886336559464,0.28,0,0,0.0
7.51293276800061,446,4856.33,-87.3,17.4,-91.8,-0.06,0.39,0.2,0.3,-0.95,0.01,-69.0,0.6,0.0,-2.64,-0.01,-0.07,0.0,0.9962931295557548,0.4423799272118933,0.003940660105718696,0.28,0,0,0.0
7.523397976000524,447,4856.34,-87.3,17.4,-91.8,-0.03,0.44,0.15,0.28,-0.96,0.03,-69.0,0.0,-4.0,-2.64,0.0,0.07,0.0,1.0004498987955368,0.4658325879540846,0.00793548075859074,0.28,0,0,0.0
7.5329480110003715,448,4856.35,-87.3,17.3,-91.8,0.04,0.43,0.13,0.26,-0.97,0.04,-69.0,0.7,0.0,-2.64,0.0,-0.03,0.0,1.0050373127401788,0.4509988913511872,0.012272436809168119,0.28,0,0,0.0
7.543436627000119,449,4856.36,-87.3,17.3,-91.7,0.19,0.38,0.12,0.25,-0.97,0.07,-69.0,0.4,-6.0,-2.64,0.01,-0.11,0.0,1.0041414243023739,0.4414748010928823,0.011149017403935924,0.28,0,0,0.0
7.552840669000034,450,4856.37,-87.2,17.3,-91.7,0.38,0.29,0.12,0.25,-0.97,0.08,-69.0,0.2,0.0,-2.64,0.0,-0.01,0.0,1.0048880534666536,0.49284886121406424,0.011657733636851297,0.28,0,0,0.0
7.563394974000403,451,4856.38,-87.1,17.2,-91.6,0.45,0.16,0.08,0.25,-0.95,0.08,-69.0,0.2,-2.0,-2.64,0.0,-0.07,0.0,0.9855962662266938,0.4842520005121301,0.007481372531046304,0.28,0,0,0.0
7.572846035000111,452,4856.39,-87.1,17.2,-91.6,0.34,0.08,0.05,0.27,-0.93,0.06,-69.0,0.0,-1.0,-2.64,0.0,0.08,0.0,0.9702576977277738,0.35284557528754706,0.022363542209366982,0.28,0,0,0.0
7.58332566900026,453,4856.4,-87.0,17.2,-91.6,0.15,0.0,0.02,0.29,-0.92,0.05,-69.0,0.7,4.0,-2.64,-0.02,0.07,0.0,0.96591925128346,0.15132745950421556,0.02616794888060714,0.28,0,0,0.0
7.592891219000194,454,4856.41,-87.0,17.2,-91.6,0.0,0.0,0.0,0.3,-0.92,0.05,-69.0,0.6,1.0,-2.64,-0.02,0.14,0.0,0.9689685237405805,0.0,0.022656302895016855,0.28,0,0,0.0
7.603457609000543,455,4856.42,-87.0,17.2,-91.6,0.03,-0.02,-0.04,0.3,-0.93,0.04,-69.0,1.2,3.0,-2.64,-0.03,0.09,0.0,0.9780081799248921,0.053851648071345036,0.013344313776491146,0.28,0,0,0.0
7.61283473200001,456,4856.43,-87.0,17.2,-91.6,0.04,-0.05,-0.07,0.29,-0.94,0.05,-69.0,1.5,6.0,-2.64,-0.06,0.04,0.0,0.9849873095629201,0.09486832980505139,0.006237880455693845,0.28,0,0,0.0
7.623410623000382,457,4856.44,-87.0,17.2,-91.6,0.08,-0.06,-0.06,0.28,-0.94,0.06,-69.0,1.6,1.0,-2.64,-0.04,0.07,0.0,0.9826494797230597,0.11661903789690602,0.008404196089643157,0.28,0,0,0.0
7.632919583999865,458,4856.45,-87.0,17.2,-91.6,0.17,-0.07,-0.04,0.27,-0.94,0.07,-68.9,2.2,6.0,-2.64,-0.07,-0.01,0.0,0.9805100713404222,0.1881488772222678,0.010332732382835053,0.28,0,0,0.0
7.643446749000759,459,4856.46,-86.9,17.2,-91.6,0.28,-0.08,-0.08,0.27,-0.94,0.08,-68.9,4.4,23.0,-2.65,-0.17,0.0,0.0,0.9812746812182611,0.30199337741083004,0.009376760054896294,0.28,0,0,0.0
7.652816643000733,460,4856.47,-86.9,17.2,-91.6,0.28,-0.13,-0.17,0.27,-0.92,0.08,-68.8,9.3,42.0,-2.65,-0.31,0.31,0.0,0.9621330469326994,0.3524202037341219,0.0279480264536488,0.28,0,0,0.0
7.663583758000641,461,4856.48,-86.9,17.2,-91.6,0.08,-0.24,-0.23,0.27,-0.9,0.07,-68.7,12.7,27.0,-2.65,-0.36,-0.09,0.0,0.9422313940853383,0.3419064199455752,0.046892685714989724,0.28,0,0,0.0
7.672904641000059,462,4856.49,-86.9,17.3,-91.7,-0.22,-0.35,-0.29,0.28,-0.9,0.06,-68.6,14.6,18.0,-2.66,-0.4,-0.01,0.0,0.9444575162494077,0.5049752469181039,0.04377323227990193,0.28,0,0,0.0
7.683405630999914,463,4856.5,-86.9,17.3,-91.7,-0.43,-0.39,-0.3,0.29,-0.92,0.04,-68.4,15.5,21.0,-2.66,-0.46,0.0,0.0,0.9654532614269838,0.6534523701081816,0.02232193736027921,0.28,0,0,0.0
7.6929441239999505,464,4856.51,-87.0,17.3,-91.8,-0.56,-0.39,-0.29,0.3,-0.95,0.05,-68.2,17.3,7.0,-2.67,-0.46,0.11,0.0,0.9974968671630001,0.7414849964766651,0.009527235008222279,0.28,0,0,0.0
7.703484790000402,465,4856.52,-87.1,17.4,-91.8,-0.54,-0.34,-0.22,0.32,-0.99,0.05,-68.1,14.1,-27.0,-2.67,-0.32,0.11,0.0,1.041633332799983,0.6749814812274483,0.05259042663230096,0.28,0,0,0.0
7.712804587999926,466,4856.53,-87.1,17.4,-91.8,-0.25,-0.24,-0.14,0.33,-1.01,0.04,-68.0,11.5,-15.0,-2.67,-0.29,0.01,0.0,1.063296760081587,0.37376463182061515,0.07276877683562699,0.28,0,0,0.0
7.723212799000066,467,4856.54,-87.1,17.4,-91.8,0.06,-0.1,-0.06,0.34,-1.03,0.03,-67.9,8.3,-44.0,-2.67,-0.13,0.07,0.0,1.085080642164443,0.13114877048604,0.09266160574011328,0.28,0,0,0.0
7.732948996000232,468,4856.55,-87.1,17.4,-91.8,0.25,0.04,0.0,0.34,-1.02,0.04,-67.8,1.9,-47.0,-2.67,0.0,0.0,0.0,1.0759182125050213,0.25317977802344327,0.08182919255907772,0.28,0,0,0.0
7.743400345000737,469,4856.56,-87.1,17.4,-91.8,0.36,0.16,-0.01,0.33,-1.03,0.06,-67.8,-0.1,-19.0,-2.67,0.0,-0.02,0.0,1.0832358930537707,0.3940812099047606,0.08736393564567058,0.28,0,0,0.0
7.752867101000447,470,4856.57,-87.0,17.4,-91.8,0.37,0.19,-0.03,0.32,-1.0,0.07,-67.8,0.1,-7.0,-2.67,0.0,0.17,0.0,1.0522832318344715,0.41701318923986086,0.05528304893784397,0.28,0,0,0.0
7.763557805000346,471,4856.58,-87.0,17.5,-91.8,0.35,0.23,-0.01,0.31,-0.96,0.05,-67.8,0.1,-3.0,-2.67,0.0,0.0,0.0,1.0100495037373167,0.4189272013130682,0.012788334423875392,0.28,0,0,0.0
7.772740875000636,472,4856.59,-86.9,17.5,-91.7,0.43,0.3,-0.01,0.3,-0.95,0.05,-67.8,0.1,-2.0,-2.67,0.0,-0.02,0.0,0.9974968671630001,0.5244044240850757,0.00023098389256759333,0.28,0,0,0.0
7.783239422000406,473,4856.6,-86.8,17.5,-91.7,0.51,0.33,0.01,0.3,-0.92,0.05,-67.8,0.0,0.0,-2.67,0.0,0.17,0.0,0.9689685237405805,0.6075360071633614,0.027731412339255024,0.28,0,0,0.0
7.792941136000081,474,4856.61,-86.8,17.5,-91.7,0.3,0.44,0.03,0.26,-0.92,0.05,-67.8,-0.2,-1.0,-2.67,0.0,-0.06,0.0,0.9573400649716902,0.5333854141237835,0.038572673685982384,0.28,0,0,0.0
7.803398190000735,475,4856.62,-86.8,17.4,-91.6,0.14,0.47,0.01,0.25,-0.91,0.05,-67.8,0.0,-1.0,-2.67,0.0,0.08,0.0,0.9450396817065408,0.4905099387372288,0.04985559581210908,0.28,0,0,0.0
7.812780199000372,476,4856.63,-86.7,17.4,-91.6,0.08,0.41,0.01,0.26,-0.91,0.06,-67.8,0.1,0.0,-2.67,0.0,-0.23,0.0,0.948314293892062,0.4178516483155235,0.045649363954056166,0.28,0,0,0.0
7.823196006000217,477,4856.64,-86.7,17.4,-91.5,0.09,0.33,0.03,0.26,-0.91,0.07,-67.8,-0.1,1.0,-2.67,0.0,-0.03,0.0,0.9489994731294639,0.3433656942677879,0.04406490102232119,0.28,0,0,0.0
7.832909391000612,478,4856.65,-86.7,17.4,-91.5,0.2,0.22,0.05,0.27,-0.9,0.05,-67.8,0.2,1.0,-2.67,0.0,0.05,0.0,0.9409569596958194,0.3014962686336267,0.05106526616684637,0.28,0,0,0.0
7.843467803000749,479,4856.66,-86.6,17.4,-91.5,0.28,0.14,0.12,0.29,-0.88,0.03,-67.8,0.0,-1.0,-2.67,0.0,0.0,0.0,0.9270382947861431,0.3352610922848042,0.06368425245499221,0.28,0,0,0.0
7.8529095470003085,480,4856.67,-86.6,17.4,-91.5,0.18,0.08,0.17,0.3,-0.88,0.03,-67.8,0.0,0.0,-2.67,0.0,-0.06,0.0,0.9302150289046076,0.2601922366251538,0.05929736796979712,0.28,0,0,0.0
7.863466671999959,481,4856.68,-86.6,17.4,-91.5,-0.09,-0.01,0.17,0.29,-0.9,0.03,-67.8,0.0,-1.0,-2.67,0.0,0.08,0.0,0.9460443964212251,0.19261360284258225,0.0425986404441161,0.28,0,0,0.0
7.876843535000262,482,4856.69,-86.7,17.4,-91.5,-0.33,-0.08,0.24,0.29,-0.91,0.03,-67.8,0.0,0.0,-2.67,0.0,0.02,0.0,0.9555626614722867,0.4158124577258358,0.03241876788519338,0.28,0,0,0.0
7.884993828000006,483,4856.7,-86.7,17.3,-91.5,-0.37,-0.1,0.31,0.28,-0.95,0.04,-67.8,0.3,0.0,-2.67,0.0,0.05,0.0,0.9912113800799505,0.4929503017546495,0.0031653517080209026,0.28,0,0,0.0
7.8929049910002504,484,4856.71,-86.7,17.3,-91.5,-0.19,-0.15,0.39,0.28,-0.98,0.05,-67.8,0.0,0.0,-2.67,0.0,0.02,0.0,1.0204410811016968,0.45902069670114004,0.03174715167517195,0.28,0,0,0.0
7.9032651360003,485,4856.72,-86.8,17.2,-91.5,0.07,-0.17,0.44,0.27,-1.0,0.06,-67.8,-0.2,0.0,-2.67,0.0,0.02,0.0,1.0375451797391764,0.47686476070265454,0.0478742253063984,0.28,0,0,0.0
7.91331408699989,486,4856.73,-86.7,17.2,-91.6,0.3,-0.2,0.46,0.28,-0.99,0.06,-67.8,0.0,-1.0,-2.67,0.0,-0.03,0.0,1.030582359639442,0.5844655678480983,0.040093177102530686,0.28,0,0,0.0
7.923242554000353,487,4856.74,-86.7,17.1,-91.6,0.39,-0.22,0.45,0.28,-0.98,0.06,-67.8,0.0,2.0,-2.67,0.0,0.0,0.0,1.0209799214480175,0.6348228099241552,0.029880924132884235,0.28,0,0,0.0
7.933192997000333,488,4856.75,-86.7,17.1,-91.6,0.36,-0.25,0.43,0.29,-0.96,0.06,-67.8,-0.1,0.0,-2.67,0.0,0.0,0.0,1.0046392387319938,0.6140032573203501,0.013269436588523309,0.28,0,0,0.0
7.943350427000041,489,4856.76,-86.6,17.0,-91.6,0.28,-0.17,0.41,0.27,-0.95,0.04,-67.8,0.0,-1.0,-2.67,0.0,-0.06,0.0,0.9884331034521254,0.524785670536077,0.002877964717518111,0.28,0,0,0.0
7.952915278000546,490,4856.77,-86.6,17.0,-91.7,0.17,-0.08,0.38,0.27,-0.95,0.05,-67.8,0.1,-2.0,-2.67,0.01,-0.18,0.0,0.9888882646689665,0.42391036788453285,0.0023743474306634482,0.28,0,0,0.0
7.963551226000163,491,4856.78,-86.6,16.9,-91.7,0.09,-0.09,0.31,0.26,-0.95,0.06,-67.8,-0.1,0.0,-2.67,0.0,0.05,0.0,0.9867623827447011,0.33511192160232084,0.004410224767830262,0.28,0,0,0.0
7.972917447000327,492,4856.79,-86.6,16.9,-91.7,0.01,-0.18,0.24,0.27,-0.95,0.07,-67.8,0.0,-4.0,-2.67,0.02,0.05,0.0,0.990101004948485,0.30016662039607267,0.0010501705127654581,0.28,0,0,0.0
7.983600244000627,493,4856.8,-86.6,16.8,-91.7,0.0,-0.29,0.21,0.28,-0.94,0.07,-67.8,0.0,0.0,-2.67,0.0,0.05,0.0,0.9833107342035884,0.3580502757993631,0.007683632432508802,0.28,0,0,0.0
7.99289231000057,494,4856.81,-86.6,16.8,-91.7,0.02,-0.33,0.23,0.28,-0.93,0.06,-67.8,0.0,1.0,-2.67,0.0,-0.03,0.0,0.9730878685915266,0.40274061131204536,0.0175483680836791,0.28,0,0,0.0
8.003471502000139,495,4856.82,-86.6,16.8,-91.8,0.09,-0.28,0.36,0.3,-0.91,0.04,-67.8,-0.1,3.0,-2.67,-0.01,0.05,0.0,0.9590099061010788,0.4648655719667784,0.030993803962644395,0.28,0,0,0.0
8.01290805500048,496,4856.83,-86.6,16.8,-91.8,0.11,-0.26,0.42,0.3,-0.91,0.03,-67.8,-0.2,-2.0,-2.67,0.0,-0.03,0.0,0.9586448768965492,0.5060632371551999,0.030731656503830584,0.28,0,0,0.0
8.023442091000106,497,4856.84,-86.6,16.8,-91.8,0.0,-0.21,0.43,0.31,-0.91,0.02,-67.8,-0.6,-1.0,-2.67,0.0,0.03,0.0,0.9615612304996495,0.4785394445602159,0.02725899684271571,0.28,0,0,0.0
8.03286140199998,498,4856.85,-86.7,16.7,-91.9,-0.17,-0.19,0.4,0.32,-0.92,0.02,-67.8,-0.5,1.0,-2.67,0.0,-0.22,0.0,0.974268956705488,0.47434164902525694,0.014260245224139712,0.28,0,0,0.0
8.043496053000126,499,4856.86,-86.7,16.7,-91.9,-0.38,-0.16,0.38,0.32,-0.94,0.03,-67.8,-0.2,3.0,-2.67,0.0,0.09,0.0,0.9934284070832684,0.5607138307550474,0.004801221050567905,0.28,0,0,0.0
8.052822843000286,500,4856.87,-86.8,16.7,-91.9,-0.52,-0.1,0.39,0.31,-0.98,0.04,-67.8,-0.4,1.0,-2.67,0.0,0.06,0.0,1.028639878674748,0.6576473218982953,0.03921243878920644,0.28,0,0,0.0
8.063157399000374,501,4856.88,-86.8,16.7,-91.9,-0.47,-0.02,0.42,0.31,-1.0,0.04,-67.8,-0.1,0.0,-2.67,0.0,-0.06,0.0,1.0477117924314874,0.6306346010171024,0.05711866549502698,0.28,0,0,0.0
8.072755889000291,502,4856.89,-86.9,16.6,-91.9,-0.28,0.06,0.46,0.31,-1.01,0.04,-67.9,-0.7,-3.0,-2.67,0.02,0.02,0.0,1.057260611202366,0.5418486873657626,0.06533413458058746,0.28,0,0,0.0
8.080998976000046,503,4856.9,-86.9,16.6,-91.9,0.01,0.2,0.47,0.31,-1.0,0.02,-67.9,-0.4,4.0,-2.67,0.0,-0.02,0.0,1.0471389592599447,0.5108815909777921,0.054108232985402904,0.28,0,0,0.0
8.093329744000584,504,4856.91,-86.9,16.6,-91.9,0.21,0.34,0.43,0.32,-0.98,0.01,-67.9,-0.3,0.0,-2.67,0.01,-0.07,0.0,1.030970416646375,0.5870264048575669,0.03718089656439638,0.28,0,0,0.0
8.10099719200025,505,4856.92,-86.9,16.5,-91.8,0.17,0.5,0.36,0.31,-0.96,0.02,-67.9,0.0,2.0,-2.67,0.0,-0.19,0.0,1.0090094152187083,0.6391400472509917,0.014915497233995212,0.28,0,0,0.0
8.113334737000514,506,4856.93,-86.9,16.5,-91.8,0.01,0.61,0.25,0.29,-0.94,0.03,-67.9,0.0,0.0,-2.67,0.0,0.05,0.0,0.9841747812253675,0.6593178292750773,0.009720754024158729,0.28,0,0,0.0
8.123370995000187,507,4856.94,-86.9,16.5,-91.7,-0.17,0.64,0.14,0.25,-0.92,0.04,-67.9,0.0,1.0,-2.67,0.0,-0.03,0.0,0.9542012366372201,0.6768308503607087,0.038900412640059945,0.28,0,0,0.0
8.13328121700033,508,4856.95,-86.9,16.5,-91.7,-0.18,0.68,0.13,0.24,-0.92,0.06,-67.9,0.0,-2.0,-2.67,0.0,0.01,0.0,0.9526804291051644,0.7153320907103218,0.03961279576867338,0.28,0,0,0.0
8.140988812000614,509,4856.96,-86.8,16.4,-91.6,-0.09,0.58,0.06,0.23,-0.93,0.08,-67.9,-0.1,0.0,-2.67,0.0,-0.12,0.0,0.9613532129243654,0.59,0.030321211710482965,0.28,0,0,0.0
8.153292863999923,510,4856.97,-86.8,16.4,-91.5,-0.08,0.46,0.03,0.23,-0.92,0.08,-67.9,0.0,-2.0,-2.67,0.0,-0.15,0.0,0.9516827202382104,0.4678675026115834,0.03919187030870519,0.28,0,0,0.0
8.163219812000534,511,4856.98,-86.8,16.4,-91.5,-0.15,0.36,0.0,0.22,-0.92,0.08,-67.9,0.0,0.0,-2.67,0.0,0.1,0.0,0.9493155429044655,0.38999999999999996,0.040727866689601155,0.28,0,0,0.0
8.172701872000289,512,4856.99,-86.8,16.3,-91.4,-0.11,0.29,-0.06,0.23,-0.92,0.09,-67.9,0.0,1.0,-2.67,0.0,-0.01,0.0,0.9525754563287887,0.3159113799786263,0.036718594199972365,0.28,0,0,0.0
8.18343854000068,513,4857.0,-86.7,16.3,-91.4,-0.07,0.14,-0.15,0.23,-0.9,0.09,-67.9,0.0,-5.0,-2.67,0.02,-0.06,0.0,0.9332738076256079,0.216794833886788,0.05489983804509013,0.28,0,0,0.0
8.19292719600071,514,4857.01,-86.7,16.3,-91.4,-0.27,-0.06,-0.19,0.24,-0.87,0.08,-67.9,-0.6,-3.0,-2.67,0.02,-0.08,0.0,0.9060353193998565,0.3355592347112504,0.08049555974542466,0.28,0,0,0.0
8.203464901000189,515,4857.02,-86.8,16.3,-91.4,-0.57,-0.35,-0.22,0.25,-0.86,0.07,-67.9,-0.7,0.0,-2.67,0.01,-0.09,0.0,0.8983317872590282,0.7041306696913577,0.08643511004852789,0.28,0,0,0.0
8.212885799000105,516,4857.03,-86.8,16.4,-91.5,-0.91,-0.52,-0.12,0.27,-0.85,0.03,-67.9,-0.6,-3.0,-2.67,0.03,0.07,0.0,0.8923564310296642,1.0549407566304376,0.090562256952334,0.28,0,0,0.0
8.223452160000306,517,4857.04,-87.0,16.4,-91.5,-1.22,-0.69,0.0,0.29,-0.89,0.02,-67.9,-1.0,-4.0,-2.67,0.03,0.08,0.0,0.9362691920596341,1.4016062214473792,0.04571650600391686,0.28,0,0,0.0
8.232788551999874,518,4857.05,-87.2,16.4,-91.6,-1.42,-0.69,0.19,0.32,-0.93,0.01,-67.9,-1.4,0.0,-2.67,0.03,0.01,0.0,0.9835649444749442,1.5901572249309184,0.00154766148316543,0.28,0,0,0.0
8.240956073000234,519,4857.06,-87.3,16.4,-91.7,-1.35,-0.58,0.4,0.34,-0.99,0.01,-67.9,-0.9,0.0,-2.67,0.03,-0.06,0.0,1.0468046618161384,1.5227934856703322,0.06349163124787238,0.28,0,0,0.0
8.253285735000645,520,4857.07,-87.5,16.4,-91.7,-1.05,-0.35,0.58,0.36,-1.05,0.01,-67.9,-1.0,1.0,-2.67,0.02,0.1,0.0,1.110045044131093,1.2495599225327292,0.12419737329157043,0.28,0,0,0.0
8.260895000000346,521,4857.08,-87.6,16.4,-91.8,-0.62,-0.03,0.67,0.36,-1.08,0.03,-67.9,-0.7,1.0,-2.67,0.02,0.18,0.0,1.1388151737661383,0.9133454987024352,0.14990815286808346,0.28,0,0,0.0
8.273620824000318,522,4857.09,-87.6,16.3,-91.8,-0.13,0.29,0.72,0.34,-1.07,0.04,-68.0,-0.9,0.0,-2.67,0.03,-0.14,0.0,1.1234322409473567,0.7870196947980399,0.13183471564831584,0.28,0,0,0.0
8.283577617000446,523,4857.1,-87.6,16.2,-91.7,0.31,0.58,0.72,0.32,-1.03,0.04,-68.0,-1.0,2.0,-2.67,0.01,0.02,0.0,1.0793053321465618,0.9751410154434075,0.08595365071057048,0.28,0,0,0.0
8.292886535999969,524,4857.11,-87.5,16.2,-91.6,0.42,0.88,0.63,0.3,-0.98,0.02,-68.0,-0.4,5.0,-2.67,0.0,0.03,0.0,1.02508536229916,1.1609048195265623,0.03109900724590542,0.28,0,0,0.0
8.303540468000392,525,4857.12,-87.5,16.1,-91.5,0.15,1.1,0.5,0.28,-0.94,0.02,-68.0,0.0,0.0,-2.67,0.01,0.02,0.0,0.9810198774744576,1.2175795661885922,0.01270714802722106,0.28,0,0,0.0
8.312931434000348,526,4857.13,-87.5,16.1,-91.4,-0.21,1.24,0.34,0.26,-0.92,0.03,-68.0,-0.1,0.0,-2.67,0.01,-0.06,0.0,0.9565040512198576,1.3028046668629953,0.03647851479618469,0.28,0,0,0.0
8.32337257800009,527,4857.14,-87.5,16.0,-91.3,-0.55,1.23,0.18,0.23,-0.93,0.04,-68.0,-0.5,0.0,-2.67,0.0,-0.06,0.0,0.9588534820294496,1.3593380742111212,0.03344650230686075,0.28,0,0,0.0
8.332950700000765,528,4857.15,-87.5,16.0,-91.2,-0.72,1.15,0.15,0.22,-0.95,0.05,-68.0,-0.3,2.0,-2.67,0.0,-0.05,0.0,0.9764220398987314,1.3650641010589941,0.015560385548827327,0.28,0,0,0.0
8.343616040000597,529,4857.16,-87.5,15.9,-91.1,-0.73,0.96,0.16,0.21,-0.99,0.06,-68.0,-0.8,-5.0,-2.67,0.03,-0.04,0.0,1.013804714922948,1.2165936051122412,0.02138584368588159,0.28,0,0,0.0
8.352801065000676,530,4857.17,-87.6,15.9,-91.0,-0.51,0.77,0.25,0.22,-1.01,0.06,-68.0,-1.8,-5.0,-2.67,0.04,-0.04,0.0,1.0354226190305098,0.9568176419778223,0.042143672837574475,0.28,0,0,0.0
8.363365455000348,531,4857.18,-87.6,15.8,-90.9,-0.19,0.52,0.35,0.23,-1.02,0.07,-68.0,-3.1,-16.0,-2.67,0.12,0.02,0.0,1.0479503805047259,0.6549809157525126,0.0535780056255547,0.28,0,0,0.0
8.37286007000057,532,4857.19,-87.5,15.8,-90.8,0.16,0.36,0.43,0.25,-1.01,0.05,-68.1,-6.6,-37.0,-2.67,0.25,0.12,0.0,1.0416813332300814,0.5831809324729332,0.04636277918389198,0.28,0,0,0.0
8.383342438,533,4857.2,-87.5,15.7,-90.8,0.35,0.27,0.46,0.28,-0.99,0.04,-68.2,-11.9,-38.0,-2.66,0.35,-0.07,0.0,1.0296115772464878,0.6379655163094633,0.033607162736292384,0.28,0,0,0.0
8.392970532000618,534,4857.21,-87.5,15.7,-90.8,0.36,0.3,0.42,0.28,-0.97,0.03,-68.3,-12.7,-12.0,-2.66,0.34,-0.14,0.0,1.0100495037373167,0.6292853089020909,0.013764187442578901,0.28,0,0,0.0
8.403552181000123,535,4857.22,-87.4,15.6,-90.8,0.35,0.38,0.34,0.29,-0.95,0.01,-68.4,-10.3,21.0,-2.66,0.22,-0.07,0.0,0.993327740476425,0.6184658438426491,0.002898424301946534,0.28,0,0,0.0
8.412882106000325,536,4857.23,-87.4,15.6,-90.7,0.28,0.48,0.26,0.29,-0.93,0.02,-68.5,-8.3,5.0,-2.65,0.25,-0.17,0.0,0.9743715923609432,0.6135144660071187,0.021417480969079805,0.28,0,0,0.0
8.423502698000448,537,4857.24,-87.4,15.6,-90.7,0.17,0.54,0.15,0.28,-0.93,0.03,-68.6,-11.1,-15.0,-2.65,0.32,0.18,0.0,0.9716995420396164,0.5856620185738529,0.023607740664598476,0.28,0,0,0.0
8.432930478000344,538,4857.25,-87.3,15.6,-90.6,-0.05,0.56,0.02,0.27,-0.94,0.04,-68.7,-11.8,-5.0,-2.65,0.32,-0.17,0.0,0.9788258272031853,0.5625833271614082,0.016151826391008983,0.28,0,0,0.0
8.443413924000197,539,4857.26,-87.3,15.6,-90.5,-0.22,0.48,-0.09,0.25,-0.94,0.05,-68.8,-10.3,16.0,-2.65,0.23,0.13,0.0,0.9739609848448756,0.5356304696336832,0.020596335374332364,0.28,0,0,0.0
8.452794513000299,540,4857.27,-87.3,15.6,-90.5,-0.23,0.37,-0.12,0.25,-0.95,0.06,-68.9,-7.7,12.0,-2.64,0.21,0.04,0.0,0.9841747812253675,0.45188494110780014,0.010174888213963618,0.28,0,0,0.0
8.46333982500073,541,4857.28,-87.3,15.6,-90.5,-0.17,0.28,-0.1,0.26,-0.97,0.07,-69.0,-8.9,-1.0,-2.64,0.24,0.07,0.0,1.006677704133751,0.34249087579087417,0.01208147400053139,0.28,0,0,0.0
8.472854516000552,542,4857.29,-87.3,15.6,-90.4,-0.09,0.28,0.0,0.26,-0.96,0.05,-69.1,-7.1,20.0,-2.64,0.15,-0.14,0.0,0.9958413528268446,0.29410882339705485,0.0012202202397525452,0.28,0,0,0.0
8.48328107799989,543,4857.3,-87.3,15.6,-90.4,0.0,0.28,0.08,0.27,-0.96,0.06,-69.1,-3.1,28.0,-2.64,0.05,0.23,0.0,0.9990495483208027,0.29120439557122074,0.00433984741903648,0.28,0,0,0.0
8.492956798000705,544,4857.31,-87.3,15.6,-90.4,0.11,0.31,0.17,0.28,-0.95,0.04,-69.2,-2.8,0.0,-2.64,0.1,-0.04,0.0,0.9912113800799505,0.37027017163147236,0.0034283544053794746,0.28,0,0,0.0
8.503532119000738,545,4857.32,-87.3,15.6,-90.3,0.18,0.36,0.19,0.28,-0.94,0.03,-69.2,-5.7,-16.0,-2.64,0.17,0.12,0.0,0.9812746812182611,0.4450842616853577,0.013097752201727486,0.28,0,0,0.0
8.512874992000434,546,4857.33,-87.2,15.6,-90.3,0.08,0.44,0.15,0.27,-0.94,0.03,-69.3,-8.3,-23.0,-2.63,0.25,0.0,0.0,0.9784681905918046,0.4716990566028302,0.015586157971620329,0.28,0,0,0.0
8.523496007000176,547,4857.34,-87.2,15.6,-90.2,-0.05,0.45,0.1,0.26,-0.94,0.04,-69.4,-12.2,-50.0,-2.63,0.43,-0.01,0.0,0.9761147473529943,0.46368092477478523,0.017580809186221957,0.28,0,0,0.0
8.532917819000431,548,4857.35,-87.2,15.6,-90.2,-0.16,0.45,0.11,0.26,-0.94,0.03,-69.6,-18.0,-35.0,-2.63,0.49,0.11,0.0,0.9757561170702441,0.4901020301937139,0.01758065067959269,0.28,0,0,0.0
8.54353892600011,549,4857.36,-87.3,15.5,-90.2,-0.24,0.46,0.12,0.25,-0.96,0.05,-69.7,-19.2,-14.0,-2.62,0.51,0.18,0.0,0.9932774033471213,0.532541078227774,5.8177114661162044e-05,0.28,0,0,0.0
8.556963146000271,550,4857.37,-87.3,15.5,-90.1,-0.16,0.42,0.16,0.24,-0.97,0.05,-69.9,-20.7,-22.0,-2.61,0.59,-0.05,0.0,1.000499875062461,0.47707441767506253,0.007021008708664844,0.28,0,0,0.0
8.564948666000419,551,4857.38,-87.2,15.5,-90.1,-0.04,0.37,0.23,0.25,-0.97,0.05,-70.2,-22.5,-9.0,-2.61,0.6,0.0,0.0,1.0029456615390486,0.43749285708454716,0.00927745928154744,0.28,0,0,0.0
8.572784337000485,552,4857.39,-87.2,15.4,-90.0,0.05,0.32,0.27,0.25,-0.97,0.04,-70.4,-24.6,-26.0,-2.6,0.71,0.0,0.0,1.002496882788171,0.42166337284616034,0.008652106920056468,0.28,0,0,0.0
8.583317854000597,553,4857.4,-87.2,15.4,-90.0,0.1,0.29,0.29,0.26,-0.97,0.05,-70.7,-25.8,-3.0,-2.59,0.69,0.15,0.0,1.0054849576199536,0.4221374183841086,0.011407378116802258,0.28,0,0,0.0
8.59293752800022,554,4857.41,-87.2,15.4,-90.0,0.07,0.28,0.29,0.26,-0.96,0.05,-70.9,-27.3,-24.0,-2.59,0.79,0.18,0.0,0.9958413528268446,0.40914545090957566,0.001728497857219402,0.28,0,0,0.0
8.603438256000118,555,4857.42,-87.2,15.3,-89.9,0.05,0.3,0.29,0.26,-0.95,0.05,-71.2,-29.0,-16.0,-2.58,0.81,0.07,0.0,0.9862048468751307,0.42023802778901387,0.007749847932604692,0.28,0,0,0.0
8.61293919900072,556,4857.43,-87.2,15.3,-89.9,0.0,0.32,0.27,0.25,-0.96,0.05,-71.5,-30.6,-7.0,-2.57,0.81,-0.17,0.0,0.9932774033471213,0.41868842830916647,0.0006637456314017021,0.28,0,0,0.0
8.623447048000344,557,4857.44,-87.1,15.3,-89.9,0.0,0.34,0.23,0.24,-0.95,0.06,-71.8,-29.9,9.0,-2.56,0.77,0.04,0.0,0.9816822296446035,0.41048751503547587,0.01201374094724117,0.28,0,0,0.0
8.632929903000331,558,4857.45,-87.1,15.2,-89.8,-0.05,0.33,0.21,0.23,-0.94,0.05,-72.1,-26.6,24.0,-2.56,0.67,-0.01,0.0,0.9690201236300513,0.39433488306260706,0.02418233002255754,0.28,0,0,0.0
8.643428046000736,559,4857.46,-87.1,15.2,-89.8,-0.11,0.33,0.22,0.24,-0.93,0.05,-72.3,-21.8,45.0,-2.55,0.52,0.18,0.0,0.9617692030835673,0.41158231254513356,0.030804585557660746,0.28,0,0,0.0
8.652831193000566,560,4857.47,-87.1,15.2,-89.8,-0.15,0.35,0.26,0.25,-0.93,0.03,-72.6,-21.6,-5.0,-2.54,0.63,0.13,0.0,0.9634832639957999,0.46108567533594014,0.028508714152519654,0.28,0,0,0.0
8.663427870000305,561,4857.48,-87.1,15.1,-89.7,-0.13,0.39,0.27,0.26,-0.94,0.03,-72.8,-22.3,11.0,-2.54,0.57,-0.19,0.0,0.9757561170702441,0.4918333050943175,0.015911143856513932,0.28,0,0,0.0
8.67290260200025,562,4857.49,-87.1,15.1,-89.7,-0.07,0.4,0.26,0.24,-0.96,0.04,-73.0,-20.1,8.0,-2.53,0.55,0.06,0.0,0.9903534722511957,0.4821825380496478,0.0012875129020510911,0.28,0,0,0.0
8.683524095000394,563,4857.5,-87.1,15.1,-89.7,0.0,0.33,0.24,0.24,-0.96,0.05,-73.2,-19.8,7.0,-2.53,0.52,0.01,0.0,0.9908077512817509,0.4080441152620633,0.0008165691940660302,0.28,0,0,0.0
8.692894108000473,564,4857.51,-87.1,15.0,-89.6,0.1,0.23,0.24,0.25,-0.96,0.06,-73.4,-18.8,-1.0,-2.52,0.54,-0.02,0.0,0.9938309715439543,0.34713109915419565,0.0021625180467745864,0.28,0,0,0.0
8.703349181000704,565,4857.52,-87.1,15.0,-89.6,0.17,0.18,0.27,0.27,-0.95,0.05,-73.6,-22.3,-26.0,-2.52,0.66,-0.06,0.0,0.9888882646689665,0.36633318168028406,0.0027245850516489645,0.28,0,0,0.0
8.712868276000336,566,4857.53,-87.1,15.0,-89.6,0.05,0.21,0.31,0.27,-0.96,0.04,-73.8,-24.6,-30.0,-2.51,0.73,-0.04,0.0,0.9980480950335009,0.37775653535048204,0.006306540406627703,0.28,0,0,0.0
8.723504206000143,567,4857.54,-87.1,15.0,-89.6,-0.04,0.24,0.36,0.26,-0.97,0.04,-74.1,-30.3,-43.0,-2.5,0.86,-0.04,0.0,1.0050373127401788,0.43451121964800865,0.013029842951039483,0.28,0,0,0.0
8.732897835000585,568,4857.55,-87.1,14.9,-89.5,-0.09,0.28,0.39,0.26,-0.99,0.05,-74.4,-35.2,-44.0,-2.49,0.99,0.0,0.0,1.024792661956554,0.48846698967279256,0.03212948832406626,0.28,0,0,0.0
8.743384494000566,569,4857.56,-87.1,14.9,-89.5,-0.02,0.32,0.38,0.25,-0.99,0.04,-74.8,-36.9,-22.0,-2.48,1.02,0.06,0.0,1.0218610473053564,0.4971921157862421,0.028613916199411338,0.28,0,0,0.0
8.752246861000458,570,4857.57,-87.1,14.8,-89.5,0.02,0.36,0.35,0.25,-0.98,0.03,-75.2,-37.7,-12.0,-2.47,1.03,0.1,0.0,1.011830025251277,0.5024937810560445,0.01821123626242538,0.28,0,0,0.0
8.763221335000708,571,4857.58,-87.1,14.8,-89.4,0.07,0.47,0.39,0.26,-0.96,0.02,-75.6,-40.1,-30.0,-2.46,1.14,0.06,0.0,0.994786409235671,0.6147357155721473,0.0011442678418829288,0.28,0,0,0.0
8.776925855000627,572,4857.59,-87.0,14.8,-89.4,0.11,0.5,0.36,0.26,-0.94,0.02,-76.0,-43.1,-22.0,-2.45,1.19,0.14,0.0,0.9754998718605759,0.6258594091327541,0.01777942414254796,0.28,0,0,0.0
8.784915502999866,573,4857.6,-87.0,14.7,-89.3,0.06,0.52,0.34,0.25,-0.93,0.03,-76.5,-45.6,-27.0,-2.43,1.28,0.05,0.0,0.9634832639957999,0.6241794613730894,0.029200111367177484,0.28,0,0,0.0
8.792745022999952,574,4857.61,-87.0,14.7,-89.3,-0.01,0.54,0.33,0.24,-0.93,0.04,-76.9,-48.9,-39.0,-2.42,1.41,-0.1,0.0,0.9613012014972208,0.6329296959378664,0.030754530388441448,0.28,0,0,0.0
8.803372347000732,575,4857.62,-87.0,14.7,-89.2,-0.09,0.52,0.32,0.23,-0.93,0.05,-77.4,-52.1,-19.0,-2.41,1.39,0.06,0.0,0.9593226777263217,0.617170964968379,0.03207839307615368,0.28,0,0,0.0
8.812840016999871,576,4857.63,-87.0,14.6,-89.2,-0.1,0.44,0.31,0.23,-0.94,0.05,-77.9,-51.4,-4.0,-2.39,1.4,0.02,0.0,0.9690201236300513,0.5474486277268398,0.021933328228975646,0.28,0,0,0.0
8.820995955999933,577,4857.64,-87.0,14.6,-89.1,-0.1,0.36,0.32,0.23,-0.94,0.05,-78.4,-51.3,-2.0,-2.38,1.41,0.12,0.0,0.9690201236300513,0.4919349550499537,0.021494661664396175,0.28,0,0,0.0
8.833323481000662,578,4857.65,-87.0,14.5,-89.1,-0.13,0.31,0.34,0.23,-0.95,0.05,-79.0,-53.2,-13.0,-2.36,1.48,-0.18,0.0,0.9787236586493656,0.47812132351527686,0.011555304112180198,0.28,0,0,0.0
8.84096777600007,579,4857.66,-87.0,14.5,-89.1,-0.2,0.27,0.36,0.24,-0.96,0.05,-79.5,-56.4,-35.0,-2.35,1.62,0.05,0.0,0.9908077512817509,0.49244289008980524,0.000518212749801017,0.28,0,0,0.0
8.853330347000337,580,4857.67,-87.0,14.5,-89.1,-0.26,0.24,0.37,0.25,-0.96,0.04,-80.1,-60.7,-33.0,-2.33,1.69,0.09,0.0,0.9928242543370907,0.5119570294468082,0.002484021489037924,0.28,0,0,0.0
8.863214474000415,581,4857.68,-87.1,14.4,-89.0,-0.28,0.23,0.38,0.25,-0.97,0.03,-80.7,-63.8,-36.0,-2.31,1.81,0.11,0.0,1.0021476937058729,0.5250714237130031,0.011571311640663717,0.28,0,0,0.0
8.87283377499989,582,4857.69,-87.1,14.4,-89.0,-0.25,0.2,0.4,0.25,-0.96,0.02,-81.4,-68.4,-43.0,-2.3,1.95,0.1,0.0,0.9922197337283712,0.51234753829798,0.0016104846298988784,0.28,0,0,0.0
8.880985806999888,583,4857.7,-87.1,14.3,-89.0,-0.2,0.24,0.44,0.25,-0.96,0.02,-82.1,-74.6,-55.0,-2.27,2.09,0.03,0.0,0.9922197337283712,0.5396295025292817,0.0015782749373008942,0.28,0,0,0.0
8.893324151000343,584,4857.71,-87.1,14.3,-89.0,-0.11,0.27,0.47,0.25,-0.96,0.02,-82.9,-79.0,-48.0,-2.25,2.22,0.0,0.0,0.9922197337283712,0.5530822723609933,0.0015467094385548386,0.28,0,0,0.0
8.903175426999951,585,4857.72,-87.2,14.3,-89.0,-0.05,0.31,0.49,0.24,-0.95,0.02,-83.7,-83.5,-40.0,-2.23,2.31,-0.15,0.0,0.9800510190801293,0.5819793810780585,0.010409565105493401,0.28,0,0,0.0
8.913340372000675,586,4857.73,-87.2,14.2,-88.9,-0.09,0.36,0.45,0.23,-0.96,0.04,-84.6,-86.0,-29.0,-2.21,2.37,-0.04,0.0,0.9879777325425912,0.5832666628567075,0.0024331946101707747,0.28,0,0,0.0
8.920965275000526,587,4857.74,-87.2,14.2,-88.9,-0.14,0.31,0.37,0.22,-0.96,0.05,-85.4,-86.9,-7.0,-2.18,2.36,0.09,0.0,0.986154146165801,0.5025932749251625,0.00417164536722181,0.28,0,0,0.0
8.933378604000609,588,4857.75,-87.2,14.1,-88.9,-0.17,0.25,0.38,0.23,-0.94,0.06,-86.3,-86.7,-5.0,-2.16,2.36,0.25,0.0,0.9695875411740809,0.4855924216871594,0.020323485351763093,0.28,0,0,0.0
8.94327332300054,589,4857.76,-87.2,14.1,-88.8,-0.18,0.23,0.41,0.24,-0.94,0.05,-87.2,-87.8,-12.0,-2.14,2.41,-0.02,0.0,0.9714422267947795,0.5033885179461287,0.018099423736443132,0.28,0,0,0.0
8.953133652999895,590,4857.77,-87.2,14.0,-88.8,-0.25,0.24,0.47,0.24,-0.94,0.04,-88.1,-88.4,-6.0,-2.11,2.4,0.01,0.0,0.9709788875150684,0.5839520528262573,0.018191507755831116,0.28,0,0,0.0
8.963384575000418,591,4857.78,-87.2,14.0,-88.8,-0.32,0.25,0.51,0.25,-0.95,0.04,-89.0,-88.4,-7.0,-2.09,2.42,-0.06,0.0,0.9831581764904364,0.6519202405202649,0.005891974404853895,0.28,0,0,0.0
8.972816163000061,592,4857.79,-87.2,13.9,-88.8,-0.31,0.27,0.56,0.26,-0.95,0.04,-89.9,-91.1,-26.0,-2.06,2.54,-0.02,0.0,0.9857484466130292,0.6946941773183363,0.0032356701966158585,0.28,0,0,0.0
8.980979075000505,593,4857.8,-87.3,13.9,-88.7,-0.32,0.33,0.62,0.25,-0.96,0.02,-90.8,-94.5,-28.0,-2.04,2.6,-0.06,0.0,0.9922197337283712,0.7718160402582989,0.00317090458035163,0.28,0,0,0.0
8.993363016999865,594,4857.81,-87.3,13.8,-88.7,-0.36,0.39,0.64,0.25,-0.97,0.03,-91.8,-97.9,-36.0,-2.01,2.74,0.0,0.0,1.0021476937058729,0.8314445261110329,0.012836887266696184,0.28,0,0,0.0
9.003423709000344,595,4857.82,-87.3,13.8,-88.7,-0.34,0.42,0.64,0.24,-0.98,0.03,-92.8,-105.2,-65.0,-1.98,2.96,0.06,0.0,1.0094057657849989,0.8376156636548769,0.019693060158905706,0.28,0,0,0.0
9.012756042000547,596,4857.83,-87.4,13.7,-88.6,-0.29,0.43,0.63,0.24,-0.98,0.03,-93.9,-111.9,-65.0,-1.95,3.12,0.05,0.0,1.0094057657849989,0.8160269603389338,0.019299198955727626,0.28,0,0,0.0
9.023594051000146,597,4857.84,-87.4,13.6,-88.6,-0.28,0.47,0.63,0.22,-0.98,0.03,-95.1,-118.3,-67.0,-1.92,3.33,0.05,0.0,1.004838295448576,0.8343860018001261,0.01443709404691862,0.28,0,0,0.0
9.032943681000688,598,4857.85,-87.4,13.6,-88.5,-0.32,0.51,0.63,0.21,-0.99,0.03,-96.3,-125.5,-72.0,-1.88,3.54,-0.03,0.0,1.0124722218411721,0.8714355971613738,0.02162960003072456,0.28,0,0,0.0
9.04342093500054,599,4857.86,-87.4,13.5,-88.5,-0.23,0.49,0.62,0.21,-0.98,0.04,-97.6,-134.5,-86.0,-1.84,3.79,0.12,0.0,1.0030453628824572,0.8230431337420901,0.011958686250569395,0.28,0,0,0.0
9.052963525999985,600,4857.87,-87.4,13.4,-88.4,-0.15,0.5,0.63,0.22,-0.96,0.03,-99.0,-142.3,-75.0,-1.81,3.98,-0.02,0.0,0.9853425800197615,0.8181686867633104,0.005629214679883754,0.28,0,0,0.0
9.063649147000433,601,4857.88,-87.4,13.3,-88.4,-0.11,0.54,0.7,0.24,-0.95,0.02,-100.5,-149.9,-81.0,-1.76,4.21,0.02,0.0,0.9800510190801293,0.8908984229416954,0.010702360107125664,0.28,0,0,0.0
9.073012320000089,602,4857.89,-87.5,13.3,-88.3,-0.12,0.68,0.76,0.26,-0.95,0.01,-102.0,-157.4,-73.0,-1.72,4.4,0.06,0.0,0.9849873095629201,1.026839812239475,0.0056507482318480795,0.28,0,0,0.0
9.083497894000175,603,4857.9,-87.5,13.2,-88.3,-0.23,0.88,0.8,0.26,-0.95,0.0,-103.7,-167.0,-97.0,-1.67,4.7,0.08,0.0,0.9849365461794988,1.211321592311472,0.005587481382964055,0.28,0,0,0.0
9.093028496999978,604,4857.91,-87.5,13.2,-88.2,-0.31,1.11,0.85,0.26,-0.95,0.01,-105.4,-179.3,-118.0,-1.62,5.05,0.0,0.0,0.9849873095629201,1.4320265360669822,0.0054259836395518235,0.28,0,0,0.0
9.103453198000352,605,4857.92,-87.5,13.1,-88.1,-0.3,1.3,0.88,0.26,-0.97,0.01,-107.3,-192.3,-124.0,-1.57,5.41,-0.08,0.0,1.004290794541103,1.598249041920564,0.013599951311858427,0.28,0,0,0.0
9.113033655000436,606,4857.93,-87.5,13.0,-87.9,-0.29,1.43,0.89,0.23,-0.97,0.02,-109.3,-204.7,-120.0,-1.52,5.72,-0.06,0.0,0.9970957827611147,1.709122581911549,0.006276840741232692,0.28,0,0,0.0
9.123488733000158,607,4857.94,-87.5,12.9,-87.8,-0.36,1.49,0.9,0.21,-0.98,0.03,-111.4,-215.4,-107.0,-1.46,6.0,0.02,0.0,1.00269636480841,1.7775544998677255,0.011639874332757483,0.28,0,0,0.0
9.133031929000026,608,4857.95,-87.5,12.8,-87.6,-0.32,1.51,0.89,0.2,-0.97,0.03,-113.7,-226.0,-108.0,-1.39,6.29,-0.15,0.0,0.9908582138732059,1.7817407218784667,0.00019431107039757922,0.28,0,0,0.0
9.143629189000421,609,4857.96,-87.5,12.7,-87.5,-0.26,1.51,0.9,0.19,-0.97,0.04,-116.0,-235.0,-86.0,-1.33,6.47,0.13,0.0,0.9892421341612982,1.7769918401613443,0.0017741829666592102,0.28,0,0,0.0
9.152898241000003,610,4857.97,-87.5,12.6,-87.3,-0.17,1.49,0.88,0.19,-0.97,0.04,-118.4,-239.5,-51.0,-1.26,6.54,-0.06,0.0,0.9892421341612982,1.7387926845946875,0.0017386993073260637,0.28,0,0,0.0
9.163542901000255,611,4857.98,-87.5,12.5,-87.2,-0.16,1.41,0.82,0.2,-0.96,0.05,-120.8,-240.8,-22.0,-1.21,6.56,-0.03,0.0,0.9818859404228171,1.638932579455299,0.008912995184891082,0.28,0,0,0.0
9.172969416999877,612,4857.99,-87.5,12.4,-87.0,-0.15,1.3,0.83,0.22,-0.94,0.04,-123.2,-240.9,-3.0,-1.14,6.53,-0.12,0.0,0.966229786334493,1.5496451206647281,0.024077766287750935,0.28,0,0,0.0
9.183475841000472,613,4858.0,-87.5,12.3,-86.9,-0.23,1.27,0.85,0.22,-0.94,0.02,-124.8,-238.9,34.0,-1.08,6.37,0.12,0.0,0.9656086163658648,1.5454125662747795,0.024204957531251514,0.28,0,0,0.0
9.19303746300011,614,4858.01,-87.5,12.2,-86.8,-0.33,1.3,0.88,0.23,-0.94,0.02,-127.9,-229.0,79.0,-1.01,6.09,0.19,0.0,0.9679359482941007,1.6041508657230468,0.021440073090955303,0.28,0,0,0.0
9.203594577999866,615,4858.02,-87.5,12.2,-86.7,-0.44,1.32,0.92,0.24,-0.95,0.03,-130.1,-216.5,115.0,-0.96,5.72,-0.12,0.0,0.9803060746521975,1.6680527569594434,0.008888547798201252,0.28,0,0,0.0
9.212968855999861,616,4858.03,-87.5,12.1,-86.5,-0.46,1.35,0.94,0.23,-0.97,0.02,-132.2,-205.4,104.0,-0.9,5.47,-0.29,0.0,0.9970957827611147,1.708127629891865,0.007743137104501585,0.28,0,0,0.0
9.223454879000201,617,4858.04,-87.6,12.0,-86.4,-0.4,1.4,0.97,0.23,-0.97,0.02,-134.2,-195.3,104.0,-0.85,5.18,0.0,0.0,0.9970957827611147,1.7495427974187998,0.007588274362411607,0.28,0,0,0.0
9.232959379000022,618,4858.05,-87.6,11.9,-86.2,-0.3,1.44,0.99,0.22,-0.98,0.03,-136.1,-184.0,109.0,-0.8,4.86,0.17,0.0,1.004838295448576,1.7730482226944646,0.015024171308875456,0.28,0,0,0.0
9.243441375000657,619,4858.06,-87.6,11.8,-86.1,-0.32,1.46,0.95,0.21,-0.99,0.03,-137.8,-172.1,120.0,-0.75,4.51,0.05,0.0,1.0124722218411721,1.7710166571774528,0.0222049357474422,0.28,0,0,0.0
9.252840989000106,620,4858.07,-87.6,11.7,-86.0,-0.43,1.5,0.9,0.19,-0.99,0.02,-139.5,-160.2,105.0,-0.71,4.27,-0.03,0.0,1.008265837961398,1.8013605968822566,0.017638580830314665,0.28,0,0,0.0
9.263421220000055,621,4858.08,-87.6,11.6,-85.8,-0.43,1.53,0.86,0.19,-0.98,0.03,-141.0,-152.0,94.0,-0.67,4.02,-0.03,0.0,0.9986991538997116,1.8070417814760122,0.007910458833255696,0.28,0,0,0.0
9.272914109999874,622,4858.09,-87.6,11.5,-85.7,-0.42,1.58,0.84,0.2,-0.97,0.02,-142.5,-143.9,74.0,-0.63,3.84,0.04,0.0,0.9906058752097122,1.8380424369420856,0.0001791634596088887,0.28,0,0,0.0
9.283398248000594,623,4858.1,-87.6,11.4,-85.5,-0.41,1.61,0.84,0.21,-0.95,0.02,-143.9,-136.8,81.0,-0.59,3.6,-0.05,0.0,0.973139250056229,1.8616659206205608,0.017292872840830253,0.28,0,0,0.0
9.292958517000443,624,4858.11,-87.7,11.3,-85.3,-0.52,1.67,0.82,0.2,-0.96,0.02,-145.2,-127.9,84.0,-0.56,3.37,0.04,0.0,0.9808159868191383,1.9317608547643779,0.009423813356362554,0.28,0,0,0.0
9.303567984000438,625,4858.12,-87.7,11.3,-85.2,-0.58,1.64,0.81,0.21,-0.95,0.02,-146.4,-119.5,76.0,-0.52,3.17,0.02,0.0,0.973139250056229,1.9188798815975947,0.016758539116886406,0.28,0,0,0.0
9.312750402999882,626,4858.13,-87.7,11.2,-85.0,-0.7,1.63,0.8,0.21,-0.95,0.03,-147.5,-113.2,62.0,-0.49,3.02,-0.03,0.0,0.9733961166965892,1.9459958889987408,0.0161716390269957,0.28,0,0,0.0
9.323610229000224,627,4858.14,-87.8,11.1,-84.8,-0.74,1.59,0.79,0.2,-0.96,0.03,-148.6,-108.3,53.0,-0.46,2.89,-0.18,0.0,0.9810708435174292,1.9234864179400906,0.008326973962032524,0.28,0,0,0.0
9.33296160900045,628,4858.15,-87.8,11.0,-84.7,-0.73,1.55,0.82,0.19,-0.96,0.04,-149.7,-105.8,31.0,-0.44,2.84,0.29,0.0,0.979438614717635,1.899420964399414,0.009760018706590157,0.28,0,0,0.0
9.343670422000287,629,4858.16,-87.9,10.9,-84.5,-0.73,1.5,0.83,0.18,-0.97,0.04,-150.8,-106.9,-7.0,-0.41,2.94,0.07,0.0,0.9873702446397704,1.8632766836946142,0.0017918210087657371,0.28,0,0,0.0
9.352854293000746,630,4858.17,-87.9,10.8,-84.4,-0.69,1.45,0.87,0.18,-0.97,0.03,-151.8,-111.2,-41.0,-0.38,3.12,0.0,0.0,0.9870157040290696,1.82633512806385,0.0021034343870772743,0.28,0,0,0.0
9.363522726000156,631,4858.18,-87.9,10.8,-84.2,-0.74,1.41,0.87,0.17,-0.97,0.03,-153.0,-118.5,-70.0,-0.34,3.34,-0.01,0.0,0.9852410872471773,1.8145522863781027,0.0038004901455901408,0.28,0,0,0.0
9.372893073000341,632,4858.19,-88.0,10.7,-84.1,-0.78,1.39,0.87,0.18,-0.97,0.01,-154.3,-127.2,-83.0,-0.31,3.57,0.24,0.0,0.986610358753647,1.8158744449988826,0.002382594266338023,0.28,0,0,0.0
9.383678279000378,633,4858.2,-88.1,10.6,-84.0,-0.8,1.44,0.88,0.18,-0.97,0.0,-155.6,-136.4,-86.0,-0.27,3.81,-0.06,0.0,0.9865596788841514,1.8676188047886004,0.0023846086531169597,0.28,0,0,0.0
9.392922981000083,634,4858.21,-88.1,10.5,-83.8,-0.8,1.47,0.92,0.19,-0.97,0.01,-157.0,-144.8,-83.0,-0.23,4.03,0.07,0.0,0.9884836872705588,1.9097905644337025,0.0004513882613753628,0.28,0,0,0.0
9.403572299000189,635,4858.22,-88.2,10.4,-83.7,-0.74,1.51,0.95,0.19,-0.97,0.01,-158.5,-153.4,-88.0,-0.19,4.28,0.1,0.0,0.9884836872705588,1.9313725689260475,0.00044236049614787554,0.28,0,0,0.0
9.412880765999944,636,4858.23,-88.2,10.3,-83.5,-0.72,1.58,0.94,0.17,-0.98,0.0,-160.1,-162.7,-87.0,-0.14,4.53,-0.09,0.0,0.9946356116689167,1.9744366285095099,0.005595372624165762,0.28,0,0,0.0
9.423522468000556,637,4858.24,-88.3,10.2,-83.4,-0.75,1.64,0.93,0.17,-0.98,0.0,-161.8,-170.1,-68.0,-0.1,4.68,-0.03,0.0,0.9946356116689167,2.029039181484675,0.005483465171682411,0.28,0,0,0.0
9.432955299000241,638,4858.25,-88.4,10.1,-83.2,-0.82,1.69,0.91,0.16,-0.99,0.02,-163.5,-173.3,-37.0,-0.05,4.72,-0.25,0.0,1.0030453628824572,2.087246990655394,0.013615352057518404,0.28,0,0,0.0
9.443493532000502,639,4858.26,-88.4,10.0,-83.0,-0.8,1.67,0.9,0.17,-0.98,0.02,-165.3,-172.6,0.0,0.0,4.66,0.05,0.0,0.994836670011716,2.0588589072590673,0.005298526003041704,0.28,0,0,0.0
9.452853370000412,640,4858.27,-88.5,9.9,-82.9,-0.84,1.69,0.88,0.17,-0.99,0.0,-167.0,-173.0,-9.0,0.03,4.72,-0.22,0.0,1.0044899203078146,2.082330425268766,0.01465274077315748,0.28,0,0,0.0
