host_time_s,seq,device_time_s,roll,pitch,yaw,gyro_x,gyro_y,gyro_z,accel_x,accel_y,accel_z,belt_length,belt_velocity,belt_acceleration,motor_pos,motor_vel,motor_iq_meas,motor_iq_set,acc_mag,gyro_mag,gyro_corrected,gyro_side_score,gyro_side_separation,dynamic_refractory_s,step_period_s,gait_cycle_s,cadence_spm,gait_speed_ratio,assist_pulse_s,acc_residual,threshold,gyro_threshold,belt_threshold,belt_ok,belt_ready,calibrated,imu_side,imu_heel_strike,heel_strike,hs_count,left_hs_count,right_hs_count,torque_cmd_nm
0.004801351999049075,2,245.02,92.3,6.5,-39.8,0.05,2.53,-0.6,0.02,1.02,0.01,-172.7,21.6,156.0,0.17,-0.61,-0.05,0.0,1.0202450685987166,2.6006537639601315,0.0,0.0,2.0,0.45,0.6,1.2,100.0,1.0,0.18,0.0,0.2,1.0,-160.0,0,1,0,calibrating,0,0,0,0,0,0.0
0.012485383998864563,3,245.03,92.2,6.4,-40.1,0.03,2.33,-0.7,0.01,1.03,0.0,-172.5,30.2,144.0,0.16,-1.03,0.0,0.0,1.030048542545447,2.4330639120253297,0.0,0.0,2.0,0.45,0.6,1.2,100.0,1.0,0.18,0.009607404467795844,0.2,1.0,-160.0,0,1,0,calibrating,0,0,0,0,0,0.0
0.04026729499855719,5,245.05,92.1,6.2,-40.5,-0.16,1.93,-0.82,0.0,1.03,0.0,-171.4,70.1,209.0,0.12,-2.18,0.13,0.0,1.03,2.103069185737835,0.0,0.0,2.0,0.45,0.6,1.2,100.0,1.0,0.18,0.0093676846839017,0.2,1.0,-160.0,0,1,0,calibrating,0,0,0,0,0,0.0
0.04852360599943495,6,245.06,92.1,6.0,-40.7,-0.19,1.71,-0.83,0.0,1.02,-0.01,-170.5,92.5,215.0,0.1,-2.76,0.03,0.0,1.0200490184299968,1.9102617621676876,0.0,0.0,2.0,0.45,0.6,1.2,100.0,1.0,0.18,0.0005716309483794202,0.2,1.0,-160.0,0,1,0,calibrating,0,0,0,0,0,0.0
0.05649381999865,7,245.07,92.0,5.9,-40.9,-0.26,1.54,-0.84,0.01,1.01,-0.02,-169.5,114.4,227.0,0.07,-3.41,-0.1,0.0,1.010247494428964,1.7733583958128711,0.0,0.0,2.0,0.45,0.6,1.2,100.0,1.0,0.18,0.01016569185042382,0.2,1.0,-160.0,0,1,0,calibrating,0,0,0,0,0,0.0
0.0644404319991736,8,245.08,92.0,5.8,-41.0,-0.35,1.43,-0.83,0.02,1.02,-0.02,-168.2,138.4,231.0,0.03,-4.04,0.08,0.0,1.0203920815059278,1.6900591705617882,0.0,0.0,2.0,0.45,0.6,1.2,100.0,1.0,0.18,2.068267799093526e-05,0.2,1.0,-160.0,0,1,0,calibrating,0,0,0,0,0,0.0
0.07215013199856912,9,245.09,91.9,5.7,-41.2,-0.46,1.35,-0.82,0.02,1.01,-0.03,-166.6,161.1,233.0,-0.01,-4.69,-0.01,0.0,1.010643359449811,1.6451443705644804,0.0,0.0,2.0,0.45,0.6,1.2,100.0,1.0,0.18,0.009574016639425365,0.2,1.0,-160.0,0,1,0,calibrating,0,0,0,0,0,0.0
0.08358168099948671,10,245.1,91.8,5.5,-41.3,-0.52,1.27,-0.82,0.03,1.0,-0.03,-164.8,185.6,241.0,-0.06,-5.34,-0.06,0.0,1.0008995953640905,1.5986556852555838,0.0,0.0,2.0,0.45,0.6,1.2,100.0,1.0,0.18,0.018931425110643163,0.2,1.0,-160.0,0,1,0,calibrating,0,0,0,0,0,0.0
0.09222720499928982,11,245.11,91.8,5.4,-41.4,-0.54,1.21,-0.82,0.03,1.0,-0.04,-162.8,211.0,255.0,-0.12,-6.05,-0.08,0.0,1.0012492197250393,1.5582361823549085,0.0,0.0,2.0,0.45,0.6,1.2,100.0,1.0,0.18,0.018210164734700385,0.2,1.0,-160.0,0,1,0,calibrating,0,0,0,0,0,0.0
0.1036361409987876,12,245.12,91.7,5.3,-41.6,-0.52,1.13,-0.81,0.03,1.0,-0.04,-160.5,234.6,232.0,-0.18,-6.65,0.1,0.0,1.0012492197250393,1.4843853947004464,0.0,0.0,2.0,0.45,0.6,1.2,100.0,1.0,0.18,0.017845961440006386,0.2,1.0,-160.0,0,1,0,calibrating,0,0,0,0,0,0.0
0.11236034600005951,13,245.13,91.7,5.2,-41.7,-0.47,1.05,-0.8,0.03,1.0,-0.05,-158.0,255.2,211.0,-0.25,-7.17,-0.03,0.0,1.0016985574512922,1.4012137595670404,0.0,0.0,2.0,0.45,0.6,1.2,100.0,1.0,0.18,0.017048691239478275,0.2,1.0,-160.0,0,1,0,calibrating,0,0,0,0,0,0.0
0.12362257599852455,14,245.14,91.6,5.1,-41.8,-0.4,0.99,-0.82,0.03,0.98,-0.06,-155.3,275.1,204.0,-0.33,-7.72,-0.07,0.0,0.9822932352408826,1.346291201783626,0.0,0.0,2.0,0.45,0.6,1.2,100.0,1.0,0.18,0.03572493318089032,0.2,1.0,-160.0,0,1,0,calibrating,0,0,0,0,0,0.0
0.13235029399947962,15,245.15,91.6,5.0,-41.9,-0.32,0.92,-0.85,0.03,0.97,-0.07,-152.4,296.2,207.0,-0.41,-8.3,0.0,0.0,0.9729850975220535,1.2927876855849145,0.0,0.0,2.0,0.45,0.6,1.2,100.0,1.0,0.18,0.04413240948172481,0.2,1.0,-160.0,0,1,0,calibrating,0,0,0,0,0,0.0
0.14373078499920666,16,245.16,91.6,4.9,-42.0,-0.29,0.88,-0.88,0.03,0.97,-0.08,-149.3,315.7,200.0,-0.5,-8.84,-0.11,0.0,0.973755616158387,1.2778497564267874,0.0,0.0,2.0,0.45,0.6,1.2,100.0,1.0,0.18,0.04249465302848343,0.2,1.0,-160.0,0,1,0,calibrating,0,0,0,0,0,0.0
0.15247691900003701,17,245.17,91.6,4.8,-42.1,-0.27,0.83,-0.9,0.03,0.97,-0.08,-146.0,339.7,243.0,-0.59,-9.57,-0.14,0.0,0.973755616158387,1.2537144810522052,0.0,0.0,2.0,0.45,0.6,1.2,100.0,1.0,0.18,0.041644759967913836,0.2,1.0,-160.0,0,1,0,calibrating,0,0,0,0,0,0.0
0.16365260099883017,18,245.18,91.6,4.7,-42.1,-0.29,0.81,-0.9,0.03,0.97,-0.09,-142.5,362.5,198.0,-0.69,-10.03,-0.02,0.0,0.9746281342132496,1.2450702791409007,0.0,0.0,2.0,0.45,0.6,1.2,100.0,1.0,0.18,0.03995679707479016,0.2,1.0,-160.0,0,1,0,calibrating,0,0,0,0,0,0.0
0.17225168499862775,19,245.19,91.6,4.5,-42.2,-0.36,0.79,-0.88,0.02,0.98,-0.1,-138.7,376.6,173.0,-0.79,-10.45,0.04,0.0,0.985291834940288,1.2361634196173255,0.0,0.0,2.0,0.45,0.6,1.2,100.0,1.0,0.18,0.0287072344207967,0.2,1.0,-160.0,0,1,0,calibrating,0,0,0,0,0,0.0
0.1837887089986907,20,245.2,91.6,4.4,-42.3,-0.49,0.71,-0.84,0.0,0.98,-0.1,-134.8,396.5,184.0,-0.9,-10.98,-0.17,0.0,0.9850888284819801,1.204076409535541,0.0,0.0,2.0,0.45,0.6,1.2,100.0,1.0,0.18,0.02833203606152246,0.2,1.0,-160.0,0,1,0,calibrating,0,0,0,0,0,0.0
0.19644098699973256,21,245.21,91.5,4.4,-42.4,-0.6,0.63,-0.8,0.0,0.99,-0.09,-130.8,408.5,128.0,-1.01,-11.24,-0.17,0.0,0.9940824915468535,1.181905241548577,0.0,0.0,2.0,0.45,0.6,1.2,100.0,1.0,0.18,0.018951605536716154,0.2,1.0,-160.0,0,1,0,calibrating,0,0,0,0,0,0.0
0.20422133699867118,22,245.22,91.5,4.3,-42.4,-0.74,0.54,-0.75,0.0,0.99,-0.09,-126.6,425.6,178.0,-1.13,-11.82,0.06,0.0,0.9940824915468535,1.1839341197887658,0.0,0.0,2.0,0.45,0.6,1.2,100.0,1.0,0.18,0.01857257342598173,0.2,1.0,-160.0,0,1,0,calibrating,0,0,0,0,0,0.0
0.21244743299939728,23,245.23,91.4,4.2,-42.5,-0.95,0.44,-0.66,-0.02,1.0,-0.08,-122.2,434.9,61.0,-1.25,-11.76,0.15,0.0,1.0033942395688744,1.2376186811776881,0.0,0.0,2.0,0.45,0.6,1.2,100.0,1.0,0.18,0.00907560889588166,0.2,1.0,-160.0,0,1,0,calibrating,0,0,0,0,0,0.0
0.2237594309990527,24,245.24,91.3,4.1,-42.5,-1.12,0.28,-0.55,-0.03,1.0,-0.07,-117.9,429.7,-10.0,-1.36,-11.63,0.14,0.0,1.0028958071504734,1.278788489156827,0.0,0.0,2.0,0.45,0.6,1.2,100.0,1.0,0.18,0.009382560487996683,0.2,1.0,-160.0,0,1,0,calibrating,0,0,0,0,0,0.0
0.23235758999908285,25,245.25,91.1,4.1,-42.5,-1.2,0.06,-0.45,-0.04,1.0,-0.06,-113.7,421.4,-91.0,-1.48,-11.24,0.13,0.0,1.0025966287595427,1.2830042868205858,0.0,0.0,2.0,0.45,0.6,1.2,100.0,1.0,0.18,0.009488104101349037,0.2,1.0,-160.0,0,1,0,calibrating,0,0,0,0,0,0.0
0.2433864859995083,26,245.26,91.0,4.1,-42.5,-1.25,-0.19,-0.34,-0.05,1.0,-0.05,-109.6,402.8,-163.0,-1.59,-10.68,0.04,0.0,1.002496882788171,1.30927460832325,0.0,0.0,2.0,0.45,0.6,1.2,100.0,1.0,0.18,0.00939609307126621,0.2,1.0,-160.0,0,1,0,calibrating,0,0,0,0,0,0.0
0.2524831369992171,27,245.27,90.9,4.0,-42.5,-1.36,-0.5,-0.23,-0.06,0.99,-0.05,-105.8,370.9,-327.0,-1.68,-9.5,0.35,0.0,0.9930760293149764,1.4671400751121213,0.0,0.0,2.0,0.45,0.6,1.2,100.0,1.0,0.18,0.01844060761357158,0.2,1.0,-160.0,0,1,0,calibrating,0,0,0,0,0,0.0
0.2636272789986833,28,245.28,90.7,4.0,-42.4,-1.4,-0.8,-0.13,-0.04,0.99,-0.05,-102.4,323.8,-398.0,-1.77,-8.33,0.22,0.0,0.9920685460188726,1.6176835290006508,0.0,0.0,2.0,0.45,0.6,1.2,100.0,1.0,0.18,0.019059129091481775,0.2,1.0,-160.0,0,1,0,calibrating,0,0,0,0,0,0.0
0.27225694799926714,29,245.29,90.6,4.0,-42.3,-1.31,-1.05,-0.08,0.01,0.97,-0.05,-99.4,288.8,-342.0,-1.85,-7.49,0.11,0.0,0.9713392816107047,1.680773631397161,0.0,0.0,2.0,0.45,0.6,1.2,100.0,1.0,0.18,0.03899262562965666,0.2,1.0,-160.0,0,1,0,calibrating,0,0,0,0,0,0.0
0.2837233760001254,30,245.3,90.6,3.9,-42.2,-1.22,-1.2,-0.02,0.03,0.97,-0.06,-96.7,258.2,-323.0,-1.92,-6.63,0.07,0.0,0.9723168207945392,1.7113737172225123,0.0,0.0,2.0,0.45,0.6,1.2,100.0,1.0,0.18,0.03725478471690591,0.2,1.0,-160.0,0,1,0,calibrating,0,0,0,0,0,0.0
0.29243710299851955,31,245.31,90.5,3.9,-42.1,-1.2,-1.29,0.02,0.04,0.95,-0.08,-94.3,229.3,-283.0,-1.98,-5.94,0.01,0.0,0.95420123663722,1.761959136870092,0.0,0.0,2.0,0.45,0.6,1.2,100.0,1.0,0.18,0.05426296149674037,0.2,1.0,-160.0,0,1,0,calibrating,0,0,0,0,0,0.0
0.3035130640000716,32,245.32,90.4,3.9,-41.9,-1.17,-1.37,0.1,0.05,0.95,-0.08,-92.2,211.1,-183.0,-2.04,-5.62,0.18,0.0,0.9546727187890098,1.8043835512440252,0.0,0.0,2.0,0.45,0.6,1.2,100.0,1.0,0.18,0.05271564975805132,0.2,1.0,-160.0,0,1,0,calibrating,0,0,0,0,0,0.0
0.3122573119999288,33,245.33,90.4,3.9,-41.8,-1.11,-1.42,0.18,0.04,0.94,-0.08,-90.1,203.8,-99.0,-2.09,-5.47,0.05,0.0,0.9442457307290301,1.8113254815189896,0.0,0.0,2.0,0.45,0.6,1.2,100.0,1.0,0.18,0.06187978506167047,0.2,1.0,-160.0,0,1,0,calibrating,0,0,0,0,0,0.0
0.32375813299950096,34,245.34,90.3,3.9,-41.6,-1.08,-1.5,0.27,0.01,0.94,-0.09,-88.1,200.2,-55.0,-2.15,-5.4,0.24,0.0,0.9443516294262428,1.8679668091269717,0.0,0.0,2.0,0.45,0.6,1.2,100.0,1.0,0.18,0.06053840863716853,0.2,1.0,-160.0,0,1,0,calibrating,0,0,0,0,0,0.0
0.33239978599885944,35,245.35,90.2,3.9,-41.5,-1.01,-1.66,0.33,0.0,0.94,-0.1,-86.1,196.4,-45.0,-2.2,-5.28,-0.01,0.0,0.9453041838477179,1.97093886257286,0.0,0.0,2.0,0.45,0.6,1.2,100.0,1.0,0.18,0.05839413713137964,0.2,1.0,-160.0,0,1,0,calibrating,0,0,0,0,0,0.0
0.3435431999987486,36,245.36,90.1,4.0,-41.3,-0.88,-1.83,0.39,0.0,0.94,-0.1,-84.2,191.9,-44.0,-2.25,-5.16,0.03,0.0,0.9453041838477179,2.0677040407176266,0.0,0.0,2.0,0.45,0.6,1.2,100.0,1.0,0.18,0.05722625438875206,0.2,1.0,-160.0,0,1,0,calibrating,0,0,0,0,0,0.0
0.35241388699978415,37,245.37,90.1,4.0,-41.1,-0.81,-1.98,0.42,0.0,0.95,-0.1,-82.3,187.3,-50.0,-2.3,-5.03,-0.08,0.0,0.95524865872714,2.1801146758828995,0.0,0.0,2.0,0.45,0.6,1.2,100.0,1.0,0.18,0.0463361439191432,0.2,1.0,-160.0,0,1,0,calibrating,0,0,0,0,0,0.0
0.36359905599965714,38,245.38,90.0,4.1,-40.9,-0.86,-2.09,0.44,0.0,0.95,-0.1,-80.5,180.1,-69.0,-2.35,-4.79,-0.03,0.0,0.95524865872714,2.3024552112907646,0.0,0.0,2.0,0.45,0.6,1.2,100.0,1.0,0.18,0.04540942104076029,0.2,1.0,-160.0,0,1,0,calibrating,0,0,0,0,0,0.0
0.3722657700000127,39,245.39,89.9,4.1,-40.7,-0.87,-2.22,0.46,0.0,0.94,-0.1,-78.8,169.9,-105.0,-2.4,-4.44,0.1,0.0,0.9453041838477179,2.42835335155327,0.0,0.0,2.0,0.45,0.6,1.2,100.0,1.0,0.18,0.054246818001778774,0.2,1.0,-160.0,0,1,0,calibrating,0,0,0,0,0,0.0
0.38355310699989786,40,245.4,89.8,4.2,-40.5,-0.79,-2.33,0.49,0.01,0.93,-0.1,-77.2,154.1,-149.0,-2.44,-3.96,-0.02,0.0,0.9354143466934854,2.5086051901405293,0.0,0.0,2.0,0.45,0.6,1.2,100.0,1.0,0.18,0.06285392205289098,0.2,1.0,-160.0,0,1,0,calibrating,0,0,0,0,0,0.0
0.39237688399953186,41,245.41,89.8,4.2,-40.2,-0.63,-2.4,0.54,0.02,0.93,-0.1,-75.8,135.2,-182.0,-2.47,-3.42,0.32,0.0,0.9355746896961248,2.539389690457138,0.0,0.0,2.0,0.45,0.6,1.2,100.0,1.0,0.18,0.06143970746924665,0.2,1.0,-160.0,0,1,0,calibrating,0,0,0,0,0,0.0
0.4036715530000947,42,245.42,89.8,4.3,-40.0,-0.47,-2.43,0.62,0.03,0.93,-0.11,-74.6,112.6,-220.0,-2.5,-2.76,0.21,0.0,0.9369631796394137,2.5515093572236807,0.0,0.0,2.0,0.45,0.6,1.2,100.0,1.0,0.18,0.0588501931754386,0.2,1.0,-160.0,0,1,0,calibrating,0,0,0,0,0,0.0
0.4122105480000755,43,245.43,89.7,4.3,-39.7,-0.35,-2.44,0.71,0.02,0.94,-0.11,-73.6,83.9,-283.0,-2.52,-1.87,0.13,0.0,0.9466255859631092,2.5651900514386843,0.0,0.0,2.0,0.45,0.6,1.2,100.0,1.0,0.18,0.04820403111470817,0.2,1.0,-160.0,0,1,0,calibrating,0,0,0,0,0,0.0
0.42370754100011254,44,245.44,89.7,4.4,-39.5,-0.29,-2.45,0.82,0.02,0.94,-0.12,-73.0,49.3,-332.0,-2.54,-0.89,0.16,0.0,0.9478396488858228,2.5998076851951955,0.0,0.0,2.0,0.45,0.6,1.2,100.0,1.0,0.18,0.0460501688281546,0.2,1.0,-160.0,0,1,0,calibrating,0,0,0,0,0,0.0
0.43241454399867507,45,245.45,89.7,4.5,-39.2,-0.26,-2.5,0.91,0.02,0.94,-0.12,-72.8,11.5,-355.0,-2.54,0.1,-0.01,0.0,0.9478396488858228,2.6731442160871155,0.0,0.0,2.0,0.45,0.6,1.2,100.0,1.0,0.18,0.04512916545159151,0.2,1.0,-160.0,0,1,0,calibrating,0,0,0,0,0,0.0
0.4437331629997061,46,245.46,89.7,4.6,-39.0,-0.21,-2.56,1.02,0.02,0.93,-0.12,-72.9,-11.2,-212.0,-2.53,0.41,-0.05,0.0,0.9379232377972091,2.7637112729082247,0.0,0.0,2.0,0.45,0.6,1.2,100.0,1.0,0.18,0.053944665009401094,0.2,1.0,-160.0,0,1,0,calibrating,0,0,0,0,0,0.0
0.4522474149998743,47,245.47,89.7,4.7,-38.7,-0.17,-2.66,1.14,0.01,0.93,-0.13,-73.0,-17.5,-101.0,-2.53,0.52,0.05,0.0,0.939095309327014,2.898982580147732,0.0,0.0,2.0,0.45,0.6,1.2,100.0,1.0,0.18,0.0517171416100044,0.2,1.0,-160.0,0,1,0,calibrating,0,0,0,0,0,0.0
0.4637484790000599,48,245.48,89.7,4.8,-38.5,-0.1,-2.82,1.29,0.0,0.94,-0.14,-73.2,-22.0,-73.0,-2.52,0.69,-0.01,0.0,0.9503683496413377,3.1026601489689454,0.0,0.0,2.0,0.45,0.6,1.2,100.0,1.0,0.18,0.03963521926976721,0.2,1.0,-160.0,0,1,0,calibrating,0,0,0,0,0,0.0
0.47229523500027426,49,245.49,89.7,5.0,-38.2,-0.03,-3.03,1.44,-0.02,0.94,-0.14,-73.5,-32.8,-108.0,-2.51,1.05,-0.07,0.0,0.9505787710652915,3.3549068541466243,0.0,0.0,2.0,0.45,0.6,1.2,100.0,1.0,0.18,0.03863630188889711,0.2,1.0,-160.0,0,1,0,calibrating,0,0,0,0,0,0.0
0.48370447299930674,50,245.5,89.8,5.1,-37.8,0.11,-3.33,1.56,-0.03,0.94,-0.13,-73.9,-46.6,-132.0,-2.5,1.44,-0.09,0.0,0.9494208761134337,3.6789400647469104,0.0,0.0,2.0,0.45,0.6,1.2,100.0,1.0,0.18,0.03899831290393985,0.2,1.0,-160.0,0,1,0,calibrating,0,0,0,0,0,0.0
0.49241717199947743,51,245.51,89.8,5.3,-37.5,0.65,-3.73,1.52,0.0,0.93,-0.1,-74.5,-58.3,-104.0,-2.48,1.67,0.04,0.0,0.9353608929178086,4.079926469925653,0.0,0.0,2.0,0.45,0.6,1.2,100.0,1.0,0.18,0.05199713017757368,0.2,1.0,-160.0,0,1,0,calibrating,0,0,0,0,0,0.0
0.5035299270002724,52,245.52,90.0,5.4,-37.1,1.27,-4.0,1.32,0.06,0.96,-0.12,-75.1,-66.5,-95.0,-2.47,1.93,0.25,0.0,0.9693296652842107,4.399465876671849,0.0,0.0,2.0,0.45,0.6,1.2,100.0,1.0,0.18,0.017667790654948057,0.2,1.0,-160.0,0,1,0,calibrating,0,0,0,0,0,0.0
0.5122164459990017,53,245.53,90.2,5.6,-36.7,1.51,-4.02,1.02,0.06,0.97,-0.16,-75.9,-79.0,-130.0,-2.44,2.34,0.0,0.0,0.9849365461794988,4.413717254197419,0.0,0.0,2.0,0.45,0.6,1.2,100.0,1.0,0.18,0.0020196915644667968,0.2,1.0,-160.0,0,1,0,calibrating,0,0,0,0,0,0.0
0.5237511449995509,54,245.54,90.4,5.6,-36.3,1.49,-3.96,0.72,0.03,0.97,-0.15,-76.8,-99.0,-199.0,-2.42,3.0,0.16,0.0,0.9819877799646999,4.291864396739487,0.0,0.0,2.0,0.45,0.6,1.2,100.0,1.0,0.18,0.0048690886236804065,0.2,1.0,-160.0,0,1,0,calibrating,0,0,0,0,0,0.0
0.5324624349996157,55,245.55,90.6,5.7,-35.9,1.74,-4.03,0.54,0.04,0.96,-0.11,-78.0,-122.8,-218.0,-2.38,3.61,0.18,0.0,0.9671090941563936,4.4226801828755375,0.0,0.0,2.0,0.45,0.6,1.2,100.0,1.0,0.18,0.01935281894334695,0.2,1.0,-160.0,0,1,0,calibrating,0,0,0,0,0,0.0
0.543591835999905,56,245.56,90.8,5.7,-35.5,2.32,-4.23,0.42,0.08,0.94,-0.08,-79.3,-144.8,-209.0,-2.34,4.17,-0.01,0.0,0.9467840302835699,4.84269553038388,0.0,0.0,2.0,0.45,0.6,1.2,100.0,1.0,0.18,0.03888432515984719,0.2,1.0,-160.0,0,1,0,calibrating,0,0,0,0,0,0.0
0.5524040349991992,57,245.57,91.2,5.8,-35.0,3.13,-4.34,0.21,0.13,0.95,-0.07,-80.9,-162.8,-183.0,-2.3,4.63,0.16,0.0,0.9614052215377239,5.355053687872793,0.0,0.0,2.0,0.45,0.6,1.2,100.0,1.0,0.18,0.02377787122757935,0.2,1.0,-160.0,0,1,0,calibrating,0,0,0,0,0,0.0
0.5636393839995435,58,245.58,91.6,5.8,-34.6,3.68,-4.19,-0.08,0.18,1.01,-0.08,-82.6,-177.5,-147.0,-2.25,4.97,-0.03,0.0,1.0290286682109493,5.5771767051080605,0.0,0.0,2.0,0.45,0.6,1.2,100.0,1.0,0.18,0.042968663936733154,0.2,1.0,-160.0,0,1,0,calibrating,0,0,0,0,0,0.0
0.57238562800012,59,245.59,92.1,5.8,-34.2,3.73,-3.76,-0.39,0.23,1.07,-0.08,-84.5,-188.0,-106.0,-2.2,5.19,0.0,0.0,1.097360469490313,5.310612017460888,0.0,0.0,2.0,0.45,0.6,1.2,100.0,1.0,0.18,0.10907445591177489,0.2,1.0,-160.0,0,1,0,calibrating,0,0,0,0,0,0.0
0.5834106969996355,60,245.6,92.4,5.7,-33.8,3.47,-3.15,-0.68,0.26,1.1,-0.08,-86.4,-190.2,-21.0,-2.14,5.1,0.04,0.0,1.1331372379372238,4.73558866456959,0.0,0.0,2.0,0.45,0.6,1.2,100.0,1.0,0.18,0.14195419987151203,0.2,1.0,-160.0,0,1,0,calibrating,0,0,0,0,0,0.0
0.5923554679993686,61,245.61,92.8,5.6,-33.6,3.36,-2.55,-0.98,0.24,1.09,-0.06,-88.3,-181.4,75.0,-2.1,4.75,-0.09,0.0,1.117720895393837,4.330415684434925,0.0,0.0,2.0,0.45,0.6,1.2,100.0,1.0,0.18,0.12400710018156247,0.2,1.0,-160.0,0,1,0,calibrating,0,0,0,0,0,0.0
0.6034791929996572,62,245.62,93.2,5.6,-33.3,3.67,-2.01,-1.39,0.23,1.11,-0.05,-90.0,-165.2,140.0,-2.05,4.26,-0.07,0.0,1.1346805717910218,4.409206277778348,0.0,0.0,2.0,0.45,0.6,1.2,100.0,1.0,0.18,0.13814744104717258,0.2,1.0,-160.0,0,1,0,calibrating,0,0,0,0,0,0.0
0.6121863009993831,63,245.63,93.6,5.5,-33.2,3.9,-1.43,-1.79,0.24,1.19,-0.04,-91.5,-145.6,179.0,-2.01,3.72,-0.01,0.0,1.2146192819151194,4.523162610386675,0.0,0.0,2.0,0.45,0.6,1.2,100.0,1.0,0.18,0.21372442814784454,0.2,1.0,-160.0,0,1,0,calibrating,0,0,0,0,0,0.0
0.6236158800002158,64,245.64,93.9,5.3,-33.1,3.37,-0.85,-2.06,0.21,1.27,-0.06,-92.8,-126.5,178.0,-1.98,3.23,0.1,0.0,1.288642696793801,4.040173263611352,0.0,0.0,2.0,0.45,0.6,1.2,100.0,1.0,0.18,0.2819928861659957,0.2,1.0,-160.0,0,1,0,calibrating,0,0,0,0,0,0.0
0.6324184770001011,65,245.65,94.2,5.1,-33.1,2.06,-0.35,-2.07,0.06,1.28,-0.06,-94.0,-113.7,121.0,-1.95,3.01,-0.04,0.0,1.2828094168659663,2.94125823415762,0.0,0.0,2.0,0.45,0.6,1.2,100.0,1.0,0.18,0.2706364141133979,0.2,1.0,-160.0,0,1,0,calibrating,0,0,0,0,0,0.0
0.6435627859991655,66,245.66,94.3,4.9,-33.0,0.98,-0.2,-1.82,-0.11,1.2,-0.01,-95.1,-107.7,67.0,-1.92,2.9,0.02,0.0,1.2050726119201283,2.0767281959852135,0.0,0.0,2.0,0.45,0.6,1.2,100.0,1.0,0.18,0.18904161698420863,0.2,1.0,-160.0,0,1,0,calibrating,0,0,0,0,0,0.0
0.6521756709989859,67,245.67,94.4,4.7,-33.0,0.71,-0.58,-1.4,-0.23,1.12,0.04,-96.1,-106.6,21.0,-1.89,2.92,0.09,0.0,1.144071676076285,1.6734694499751106,0.0,0.0,2.0,0.45,0.6,1.2,100.0,1.0,0.18,0.12547986751755813,0.2,1.0,-160.0,0,1,0,calibrating,0,0,0,0,0,0.0
0.6636158069995872,68,245.68,94.5,4.6,-32.9,0.85,-1.27,-0.93,-0.3,1.06,0.08,-97.2,-109.5,-16.0,-1.86,3.02,-0.04,0.0,1.104536101718726,1.788938232583786,0.0,0.0,2.0,0.45,0.6,1.2,100.0,1.0,0.18,0.08422540729679917,0.2,1.0,-160.0,0,1,0,calibrating,0,0,0,0,0,0.0
0.672378890998516,69,245.69,94.6,4.5,-32.8,1.23,-2.04,-0.52,-0.31,1.03,0.08,-98.3,-112.6,-20.0,-1.83,3.08,0.0,0.0,1.0786102168995062,2.4382165613415063,0.0,0.0,2.0,0.45,0.6,1.2,100.0,1.0,0.18,0.057133532028027734,0.2,1.0,-160.0,0,1,0,calibrating,0,0,0,0,0,0.0
0.6834326489988598,70,245.7,94.8,4.5,-32.5,1.52,-2.75,-0.2,-0.27,1.04,0.07,-99.5,-114.1,-12.0,-1.8,3.1,-0.16,0.0,1.0767543823918249,3.148475821727078,0.0,0.0,2.0,0.45,0.6,1.2,100.0,1.0,0.18,0.05417214356993938,0.2,1.0,-160.0,0,1,0,calibrating,0,0,0,0,0,0.0
0.6924119129998871,71,245.71,95.0,4.4,-32.2,1.52,-3.24,0.07,-0.2,1.07,0.04,-100.6,-113.3,11.0,-1.77,3.03,0.0,0.0,1.0892658077806354,3.5795111398066637,0.0,0.0,2.0,0.45,0.6,1.2,100.0,1.0,0.18,0.06534989757957499,0.2,1.0,-160.0,0,1,0,calibrating,0,0,0,0,0,0.0
0.703576742000223,72,245.72,95.1,4.4,-31.9,1.38,-3.51,0.32,-0.12,1.08,0.02,-101.7,-109.4,27.0,-1.74,2.93,-0.03,0.0,1.086830253535482,3.7850891667172117,0.0,0.0,2.0,0.45,0.6,1.2,100.0,1.0,0.18,0.06165605646773309,0.2,1.0,-160.0,0,1,0,calibrating,0,0,0,0,0,0.0
0.7122034789990721,73,245.73,95.3,4.4,-31.5,1.14,-3.62,0.52,-0.05,1.09,0.02,-102.8,-105.2,41.0,-1.71,2.79,-0.05,0.0,1.0913294644606641,3.8307179483746907,0.0,0.0,2.0,0.45,0.6,1.2,100.0,1.0,0.18,0.06483216204505693,0.2,1.0,-160.0,0,1,0,calibrating,0,0,0,0,0,0.0
0.7236230889993749,74,245.74,95.4,4.5,-31.1,0.76,-3.58,0.75,0.01,1.07,0.03,-103.8,-99.3,59.0,-1.68,2.61,0.11,0.0,1.070467187726929,3.7358399323311486,0.0,0.0,2.0,0.45,0.6,1.2,100.0,1.0,0.18,0.04309048760509526,0.2,1.0,-160.0,0,1,0,calibrating,0,0,0,0,0,0.0
0.7323434459995042,75,245.75,95.5,4.5,-30.8,0.45,-3.53,0.91,0.07,1.03,0.08,-104.7,-92.5,64.0,-1.66,2.43,-0.17,0.0,1.0354709073653396,3.67307772855408,0.0,0.0,2.0,0.45,0.6,1.2,100.0,1.0,0.18,0.007932323098636118,0.2,1.0,-160.0,0,1,0,calibrating,0,0,0,0,0,0.0
0.7435111779996078,76,245.76,95.6,4.6,-30.4,0.21,-3.52,1.01,0.13,0.98,0.12,-105.6,-85.0,73.0,-1.64,2.21,-0.03,0.0,0.9958413528268446,3.6680512537313326,0.0,0.0,2.0,0.45,0.6,1.2,100.0,1.0,0.18,0.031063286811061852,0.2,1.0,-160.0,0,1,0,calibrating,0,0,0,0,0,0.0
0.7521085190001031,77,245.77,95.6,4.7,-30.1,0.08,-3.55,1.04,0.17,0.93,0.16,-106.4,-75.4,92.0,-1.62,1.92,-0.27,0.0,0.9588534820294496,3.700067566950636,0.0,0.0,2.0,0.45,0.6,1.2,100.0,1.0,0.18,0.06669013445628758,0.2,1.0,-160.0,0,1,0,calibrating,0,0,0,0,0,0.0
0.763753369999904,78,245.78,95.6,4.7,-29.7,0.07,-3.6,0.99,0.2,0.89,0.15,-107.1,-64.3,101.0,-1.6,1.63,0.04,0.0,0.9244457799135654,3.734300469967568,0.0,0.0,2.0,0.45,0.6,1.2,100.0,1.0,0.18,0.09907587984072841,0.2,1.0,-160.0,0,1,0,calibrating,0,0,0,0,0,0.0
0.7724039839995385,79,245.79,95.7,4.8,-29.3,0.11,-3.51,0.89,0.21,0.86,0.12,-107.6,-51.4,127.0,-1.58,1.23,0.12,0.0,0.8933644273195569,3.622747576080895,0.0,0.0,2.0,0.45,0.6,1.2,100.0,1.0,0.18,0.12755408778604216,0.2,1.0,-160.0,0,1,0,calibrating,0,0,0,0,0,0.0
0.7836142859996471,80,245.8,95.7,4.8,-29.0,0.14,-3.34,0.75,0.19,0.84,0.1,-108.1,-37.4,137.0,-1.58,0.83,-0.02,0.0,0.8670063436907482,3.426032691029086,0.0,0.0,2.0,0.45,0.6,1.2,100.0,1.0,0.18,0.15083392798655382,0.2,1.0,-160.0,0,1,0,calibrating,0,0,0,0,0,0.0
0.792398139999932,81,245.81,95.8,4.9,-28.6,0.16,-3.12,0.55,0.17,0.84,0.07,-108.3,-22.2,138.0,-1.57,0.46,-0.03,0.0,0.8598837130682264,3.1721443851123805,0.0,0.0,2.0,0.45,0.6,1.2,100.0,1.0,0.18,0.15479742743689417,0.2,1.0,-160.0,0,1,0,calibrating,0,0,0,0,0,0.0
0.8036029519989825,82,245.82,95.8,4.9,-28.3,0.07,-2.88,0.38,0.15,0.86,0.04,-108.5,-11.7,118.0,-1.57,0.16,-0.08,0.0,0.8738993077008357,2.9058045357525337,0.0,0.0,2.0,0.45,0.6,1.2,100.0,1.0,0.18,0.13796619614819927,0.2,1.0,-160.0,0,1,0,calibrating,0,0,0,0,0,0.0
0.8122422929991444,83,245.83,95.8,4.9,-28.1,-0.01,-2.65,0.27,0.13,0.87,0.03,-108.5,-0.3,104.0,-1.57,-0.09,-0.08,0.0,0.8801704380402696,2.6637379751019052,0.0,0.0,2.0,0.45,0.6,1.2,100.0,1.0,0.18,0.12906116449258997,0.2,1.0,-160.0,0,1,0,calibrating,0,0,0,0,0,0.0
0.82370554299996,84,245.84,95.9,4.9,-27.8,0.0,-2.48,0.26,0.11,0.89,0.02,-108.5,3.2,29.0,-1.57,-0.02,0.08,0.0,0.8969949832635632,2.4935917869611295,0.0,0.0,2.0,0.45,0.6,1.2,100.0,1.0,0.18,0.10999188688391037,0.2,1.0,-160.0,0,1,0,calibrating,0,0,0,0,0,0.0
0.8323062589988695,85,245.85,95.9,4.9,-27.6,0.09,-2.33,0.31,0.11,0.91,0.0,-108.5,-1.1,-9.0,-1.57,0.04,0.19,0.0,0.916624241442479,2.3522542379598343,0.0,0.0,2.0,0.45,0.6,1.2,100.0,1.0,0.18,0.08855537613089459,0.2,1.0,-160.0,0,1,0,calibrating,0,0,0,0,0,0.0
0.8436373149997962,86,245.86,95.9,4.9,-27.3,0.28,-2.18,0.35,0.12,0.94,-0.01,-108.5,-0.5,6.0,-1.57,0.0,-0.06,0.0,0.9476813810558905,2.2256010424152843,0.0,0.0,2.0,0.45,0.6,1.2,100.0,1.0,0.18,0.05634827178713342,0.2,1.0,-160.0,0,1,0,calibrating,0,0,0,0,0,0.0
0.8520589759991708,87,245.87,95.9,4.9,-27.1,0.49,-1.96,0.41,0.14,0.98,-0.04,-108.5,0.0,-1.0,-1.57,0.01,0.02,0.0,0.9907572861200667,2.061504305113137,0.0,0.0,2.0,0.45,0.6,1.2,100.0,1.0,0.18,0.013006919388497962,0.2,1.0,-160.0,0,1,0,calibrating,0,0,0,0,0,0.0
0.8637483909988077,88,245.88,96.0,5.0,-26.9,0.61,-1.66,0.46,0.17,1.02,-0.06,-108.5,-0.3,2.0,-1.57,0.0,-0.06,0.0,1.0358088626768938,1.827375166735063,0.0,0.0,2.0,0.45,0.6,1.2,100.0,1.0,0.18,0.03140376402496248,0.2,1.0,-160.0,0,1,0,calibrating,0,0,0,0,0,0.0
0.87242224199872,89,245.89,96.0,5.1,-26.8,0.64,-1.31,0.52,0.18,1.05,-0.07,-108.5,-0.1,-3.0,-1.57,0.02,0.0,0.0,1.06761416251378,1.5479341071247188,0.0,0.0,2.0,0.45,0.6,1.2,100.0,1.0,0.18,0.06194488258461184,0.2,1.0,-160.0,0,1,0,calibrating,0,0,0,0,0,0.0
0.8834553950000554,90,245.9,96.1,5.2,-26.7,0.62,-0.98,0.55,0.18,1.07,-0.08,-108.5,-1.4,-9.0,-1.57,0.05,0.03,0.0,1.0879797792238604,1.2834718539960275,0.0,0.0,2.0,0.45,0.6,1.2,100.0,1.0,0.18,0.08066428930879832,0.2,1.0,-160.0,0,1,0,calibrating,0,0,0,0,0,0.0
0.8924883419986145,91,245.91,96.1,5.3,-26.6,0.55,-0.65,0.6,0.17,1.1,-0.09,-108.5,-3.1,-19.0,-1.57,0.12,0.15,0.0,1.1166915420114905,1.041633332799983,0.0,0.0,2.0,0.45,0.6,1.2,100.0,1.0,0.18,0.10718853105449977,0.2,1.0,-160.0,0,1,0,calibrating,0,0,0,0,0,0.0
0.9037731859989435,92,245.92,96.2,5.4,-26.5,0.52,-0.4,0.69,0.14,1.13,-0.08,-108.6,-8.7,-61.0,-1.56,0.36,-0.19,0.0,1.1414464507807625,0.9521029356114811,0.0,0.0,2.0,0.45,0.6,1.2,100.0,1.0,0.18,0.12930457102729642,0.2,1.0,-160.0,0,1,0,calibrating,0,0,0,0,0,0.0
0.9123687419996713,93,245.93,96.2,5.4,-26.5,0.48,-0.32,0.82,0.12,1.15,-0.06,-108.7,-18.3,-84.0,-1.56,0.62,-0.02,0.0,1.1577996372429902,1.0025966287595425,0.0,0.0,2.0,0.45,0.6,1.2,100.0,1.0,0.18,0.14274460233973363,0.2,1.0,-160.0,0,1,0,calibrating,0,0,0,0,0,0.0
0.9236177619986847,94,245.94,96.2,5.5,-26.5,0.28,-0.38,0.91,0.1,1.14,-0.06,-109.0,-27.8,-86.0,-1.55,0.86,0.16,0.0,1.145949388062143,1.0251341375644458,0.0,0.0,2.0,0.45,0.6,1.2,100.0,1.0,0.18,0.12827646609570875,0.2,1.0,-160.0,0,1,0,calibrating,0,0,0,0,0,0.0
0.9324434840000322,95,245.95,96.2,5.6,-26.4,0.04,-0.52,0.93,0.08,1.1,-0.06,-109.3,-37.6,-106.0,-1.54,1.18,0.03,0.0,1.104536101718726,1.066255128944288,0.0,0.0,2.0,0.45,0.6,1.2,100.0,1.0,0.18,0.08512591615724596,0.2,1.0,-160.0,0,1,0,calibrating,0,0,0,0,0,0.0
0.9435518669997691,96,245.96,96.2,5.7,-26.3,-0.13,-0.68,0.92,0.07,1.06,-0.07,-109.8,-48.6,-102.0,-1.53,1.44,0.07,0.0,1.064612605598863,1.1513904637437293,0.0,0.0,2.0,0.45,0.6,1.2,100.0,1.0,0.18,0.04429837163663519,0.2,1.0,-160.0,0,1,0,calibrating,0,0,0,0,0,0.0
0.9522623109987762,97,245.97,96.1,5.7,-26.2,-0.21,-0.88,0.93,0.07,1.04,-0.07,-110.3,-58.0,-93.0,-1.51,1.67,0.25,0.0,1.04470091413763,1.297459055230646,0.0,0.0,2.0,0.45,0.6,1.2,100.0,1.0,0.18,0.023898946571894397,0.2,1.0,-160.0,0,1,0,calibrating,0,0,0,0,0,0.0
0.9636069199987105,98,245.98,96.1,5.8,-26.1,-0.27,-1.01,0.97,0.08,1.02,-0.08,-111.0,-66.8,-82.0,-1.49,1.89,0.05,0.0,1.0262553288533998,1.426148659852822,0.0,0.0,2.0,0.45,0.6,1.2,100.0,1.0,0.18,0.005344294061910615,0.2,1.0,-160.0,0,1,0,calibrating,0,0,0,0,0,0.0
0.9724790869986464,99,245.99,96.1,5.9,-26.0,-0.36,-1.04,1.02,0.09,1.02,-0.09,-111.7,-70.9,-41.0,-1.47,1.93,-0.13,0.0,1.0279105019407089,1.5005332385522154,0.0,0.0,2.0,0.45,0.6,1.2,100.0,1.0,0.18,0.0068594778062354145,0.2,1.0,-160.0,0,1,0,calibrating,0,0,0,0,0,0.0
0.9836146609995922,100,246.0,96.0,6.0,-25.9,-0.45,-1.01,1.04,0.11,1.01,-0.09,-112.2,-72.1,-32.0,-1.45,1.96,-0.02,0.0,1.0199509792141974,1.5179591562357664,0.0,0.0,2.0,0.45,0.6,1.2,100.0,1.0,0.18,0.0010780440218705056,0.2,1.0,-160.0,0,1,0,calibrating,0,0,0,0,0,0.0
0.992423890000282,101,246.01,96.0,6.1,-25.8,-0.64,-0.92,1.04,0.13,0.99,-0.1,-113.1,-72.0,-7.0,-1.43,1.96,0.12,0.0,1.003493896344168,1.5289211882893115,0.0,0.0,2.0,0.45,0.6,1.2,100.0,1.0,0.18,0.017184424354061978,0.2,1.0,-160.0,0,1,0,calibrating,0,0,0,0,0,0.0
1.0037339899990911,102,246.02,95.9,6.2,-25.7,-0.8,-0.84,1.04,0.14,0.97,-0.09,-113.8,-69.3,27.0,-1.41,1.81,0.01,0.0,0.9841747812253675,1.5579473675320357,0.0,0.0,2.0,0.45,0.6,1.2,100.0,1.0,0.18,0.03577346868340514,0.2,1.0,-160.0,0,1,0,calibrating,0,0,0,0,0,0.0
1.0124080650002725,103,246.03,95.8,6.3,-25.6,-0.91,-0.75,1.05,0.15,0.95,-0.08,-114.5,-60.9,74.0,-1.4,1.53,-0.21,0.0,0.965090669315583,1.5789553508570153,0.0,0.0,2.0,0.45,0.6,1.2,100.0,1.0,0.18,0.053760428981325825,0.2,1.0,-160.0,0,1,0,calibrating,0,0,0,0,0,0.0
1.0235960659992998,104,246.04,95.8,6.5,-25.5,-0.96,-0.67,1.02,0.16,0.93,-0.07,-115.0,-50.7,96.0,-1.38,1.23,-0.06,0.0,0.946255779374689,1.552707313050338,0.0,0.0,2.0,0.45,0.6,1.2,100.0,1.0,0.18,0.07114341254377543,0.2,1.0,-160.0,0,1,0,calibrating,0,0,0,0,0,0.0
1.0323697049989278,105,246.05,95.7,6.6,-25.5,-1.01,-0.63,0.95,0.17,0.92,-0.07,-115.5,-40.1,102.0,-1.37,0.95,0.08,0.0,0.9381897462667134,1.522990479287379,0.0,0.0,2.0,0.45,0.6,1.2,100.0,1.0,0.18,0.07762525673871601,0.2,1.0,-160.0,0,1,0,calibrating,0,0,0,0,0,0.0
1.0437323109999852,106,246.06,95.5,6.7,-25.4,-1.1,-0.58,0.87,0.18,0.92,-0.06,-115.8,-26.6,124.0,-1.37,0.57,-0.01,0.0,0.9393614852653903,1.5176626766182266,0.0,0.0,2.0,0.45,0.6,1.2,100.0,1.0,0.18,0.07492444738523829,0.2,1.0,-160.0,0,1,0,calibrating,0,0,0,0,0,0.0
1.0522337479997077,107,246.07,95.4,6.8,-25.3,-1.15,-0.55,0.76,0.18,0.91,-0.07,-115.9,-12.4,143.0,-1.36,0.15,-0.04,0.0,0.9302687783646187,1.484115898439202,0.0,0.0,2.0,0.45,0.6,1.2,100.0,1.0,0.18,0.08233681120028968,0.2,1.0,-160.0,0,1,0,calibrating,0,0,0,0,0,0.0
1.063906618999681,108,246.08,95.3,6.9,-25.3,-1.19,-0.52,0.64,0.18,0.9,-0.08,-116.0,0.9,114.0,-1.36,-0.1,-0.11,0.0,0.9213034245024817,1.4477914214416383,0.0,0.0,2.0,0.45,0.6,1.2,100.0,1.0,0.18,0.08947612176117825,0.2,1.0,-160.0,0,1,0,calibrating,0,0,0,0,0,0.0
1.0723827319998236,109,246.09,95.2,7.0,-25.2,-1.25,-0.51,0.51,0.18,0.9,-0.07,-115.9,4.0,41.0,-1.37,-0.09,0.03,0.0,0.9204890004774636,1.4431562631953616,0.0,0.0,2.0,0.45,0.6,1.2,100.0,1.0,0.18,0.08848473487047237,0.2,1.0,-160.0,0,1,0,calibrating,0,0,0,0,0,0.0
1.083716506998826,110,246.1,95.1,7.1,-25.2,-1.26,-0.48,0.38,0.18,0.89,-0.08,-115.9,3.1,7.0,-1.37,-0.07,0.12,0.0,0.9115371632577577,1.4008568806269968,0.0,0.0,2.0,0.45,0.6,1.2,100.0,1.0,0.18,0.09548784064837468,0.2,1.0,-160.0,0,1,0,calibrating,0,0,0,0,0,0.0
1.092083931000161,111,246.11,94.9,7.2,-25.1,-1.31,-0.41,0.26,0.18,0.89,-0.09,-115.9,1.7,-4.0,-1.37,-0.04,0.08,0.0,0.9124691775616314,1.3970683591005846,0.0,0.0,2.0,0.45,0.6,1.2,100.0,1.0,0.18,0.09266470981761099,0.2,1.0,-160.0,0,1,0,calibrating,0,0,0,0,0,0.0
1.1038618259990471,112,246.12,94.8,7.2,-25.1,-1.26,-0.33,0.14,0.18,0.9,-0.09,-115.9,1.2,0.0,-1.37,-0.04,0.22,0.0,0.9222255689363639,1.31,0.0,0.0,2.0,0.45,0.6,1.2,100.0,1.0,0.18,0.08125015207402098,0.2,1.0,-160.0,0,1,0,calibrating,0,0,0,0,0,0.0
1.1123496269992756,113,246.13,94.7,7.3,-25.0,-1.27,-0.22,0.03,0.17,0.91,-0.1,-115.8,2.0,5.0,-1.37,-0.06,0.17,0.0,0.9311283477587825,1.2892633555639437,0.0,0.0,2.0,0.45,0.6,1.2,100.0,1.0,0.18,0.0709004257865703,0.2,1.0,-160.0,0,1,0,calibrating,0,0,0,0,0,0.0
1.1237319089996163,114,246.14,94.6,7.3,-25.0,-1.3,-0.13,-0.04,0.17,0.92,-0.1,-115.8,1.9,2.0,-1.37,-0.05,0.04,0.0,0.9409038208021052,1.3070960178961606,0.0,0.0,2.0,0.45,0.6,1.2,100.0,1.0,0.18,0.05990245368838254,0.2,1.0,-160.0,0,1,0,calibrating,0,0,0,0,0,0.0
1.1323760279992712,115,246.15,94.5,7.3,-25.0,-1.29,-0.03,-0.14,0.16,0.94,-0.11,-115.8,1.9,1.0,-1.37,-0.06,0.04,0.0,0.9598437372822723,1.2979214151866052,0.0,0.0,2.0,0.45,0.6,1.2,100.0,1.0,0.18,0.040143286464051076,0.2,1.0,-160.0,0,1,0,calibrating,0,0,0,0,0,0.0
1.1437608519991045,116,246.16,94.4,7.3,-25.0,-1.28,0.03,-0.25,0.15,0.96,-0.11,-115.8,1.7,0.0,-1.37,-0.04,-0.12,0.0,0.9778547949465708,1.304530566909032,0.0,0.0,2.0,0.45,0.6,1.2,100.0,1.0,0.18,0.021689584223757552,0.2,1.0,-160.0,0,1,0,calibrating,0,0,0,0,0,0.0
1.152265601000181,117,246.17,94.3,7.3,-25.0,-1.31,0.08,-0.36,0.14,0.98,-0.11,-115.8,1.1,-6.0,-1.37,-0.01,0.02,0.0,0.9960421677820673,1.3609188072769074,0.0,0.0,2.0,0.45,0.6,1.2,100.0,1.0,0.18,0.0034321671604957693,0.2,1.0,-160.0,0,1,0,calibrating,0,0,0,0,0,0.0
1.1637283449999813,118,246.18,94.2,7.3,-25.0,-1.35,0.11,-0.49,0.13,0.98,-0.11,-115.8,-0.3,-9.0,-1.37,0.01,-0.06,0.0,0.9946858800646564,1.4403818938045563,0.0,0.0,2.0,0.45,0.6,1.2,100.0,1.0,0.18,0.004692685780348538,0.2,1.0,-160.0,0,1,0,calibrating,0,0,0,0,0,0.0
1.17243199099903,119,246.19,94.1,7.2,-25.0,-1.41,0.12,-0.63,0.12,0.98,-0.12,-115.8,0.6,3.0,-1.37,-0.02,-0.06,0.0,0.9945853407325084,1.5489996772110703,0.0,0.0,2.0,0.45,0.6,1.2,100.0,1.0,0.18,0.004697360610246504,0.2,1.0,-160.0,0,1,0,calibrating,0,0,0,0,0,0.0
1.183578279998983,120,246.2,94.0,7.2,-25.1,-1.43,0.12,-0.77,0.12,0.97,-0.12,-115.8,0.1,-5.0,-1.37,0.01,0.02,0.0,0.984733466477097,1.6285576440519383,0.0,0.0,2.0,0.45,0.6,1.2,100.0,1.0,0.18,0.01425825016834481,0.2,1.0,-160.0,0,1,0,calibrating,0,0,0,0,0,0.0
1.1922660379987065,121,246.21,93.8,7.1,-25.1,-1.44,0.15,-0.88,0.12,0.97,-0.13,-115.8,-0.2,-2.0,-1.37,0.0,0.0,0.0,0.9860020283954795,1.6942549985170472,0.0,0.0,2.0,0.45,0.6,1.2,100.0,1.0,0.18,0.012729894484963089,0.2,1.0,-160.0,0,1,0,calibrating,0,0,0,0,0,0.0
1.2038156829985383,122,246.22,93.7,7.0,-25.1,-1.36,0.2,-0.95,0.13,0.96,-0.13,-115.8,-0.1,1.0,-1.37,0.0,-0.19,0.0,0.9774456506629922,1.6709578091621584,0.0,0.0,2.0,0.45,0.6,1.2,100.0,1.0,0.18,0.02086054677310134,0.2,1.0,-160.0,0,1,0,calibrating,0,0,0,0,0,0.0
1.2123992219985666,123,246.23,93.6,6.9,-25.1,-1.29,0.26,-0.99,0.15,0.97,-0.13,-115.8,-0.1,-1.0,-1.37,0.0,0.11,0.0,0.990101004948485,1.646754383628597,0.0,0.0,2.0,0.45,0.6,1.2,100.0,1.0,0.18,0.008041088637856353,0.2,1.0,-160.0,0,1,0,calibrating,0,0,0,0,0,0.0
1.2235980589994142,124,246.24,93.6,6.8,-25.1,-1.22,0.38,-1.0,0.16,0.97,-0.13,-115.8,-0.7,-4.0,-1.37,0.03,0.0,0.0,0.9916652661054535,1.6225905213577454,0.0,0.0,2.0,0.45,0.6,1.2,100.0,1.0,0.18,0.0063472909312700665,0.2,1.0,-160.0,0,1,0,calibrating,0,0,0,0,0,0.0
1.2322767209989252,125,246.25,93.5,6.8,-25.2,-1.14,0.51,-0.98,0.17,0.98,-0.13,-115.8,-0.9,-5.0,-1.37,0.04,0.21,0.0,1.0030952098380292,1.5874822833657074,0.0,0.0,2.0,0.45,0.6,1.2,100.0,1.0,0.18,0.004980999745279546,0.2,1.0,-160.0,0,1,0,calibrating,0,0,0,0,0,0.0
1.2437620059990877,126,246.26,93.4,6.7,-25.3,-1.1,0.63,-0.94,0.18,0.97,-0.13,-115.8,-1.2,-1.0,-1.37,0.03,-0.15,0.0,0.9950879358127099,1.5781318069160128,0.0,0.0,2.0,0.45,0.6,1.2,100.0,1.0,0.18,0.002965748794439005,0.2,1.0,-160.0,0,1,0,calibrating,0,0,0,0,0,0.0
1.2524525449989596,127,246.27,93.3,6.6,-25.3,-1.02,0.76,-0.87,0.18,0.96,-0.13,-115.8,-1.0,1.0,-1.37,0.02,-0.1,0.0,0.9853425800197615,1.541071056116492,0.0,0.0,2.0,0.45,0.6,1.2,100.0,1.0,0.18,0.012456882495639698,0.2,1.0,-160.0,0,1,0,calibrating,0,0,0,0,0,0.0
1.2635690139995859,128,246.28,93.2,6.6,-25.4,-0.92,0.87,-0.81,0.19,0.95,-0.14,-115.8,-0.8,1.0,-1.37,0.02,-0.18,0.0,0.9788769074812216,1.5031300675590253,0.0,0.0,2.0,0.45,0.6,1.2,100.0,1.0,0.18,0.018544103933496037,0.2,1.0,-160.0,0,1,0,calibrating,0,0,0,0,0,0.0
1.2724755389990605,129,246.29,93.1,6.5,-25.5,-0.82,0.99,-0.76,0.19,0.94,-0.14,-115.8,-1.7,-7.0,-1.37,0.06,0.12,0.0,0.9691749068150701,1.4933519344079613,0.0,0.0,2.0,0.45,0.6,1.2,100.0,1.0,0.18,0.0276811825076545,0.2,1.0,-160.0,0,1,0,calibrating,0,0,0,0,0,0.0
1.283621757000219,130,246.3,93.0,6.4,-25.6,-0.76,1.11,-0.71,0.2,0.94,-0.15,-115.8,-2.3,-6.0,-1.37,0.06,0.03,0.0,0.9726767191621274,1.5211180098861496,0.0,0.0,2.0,0.45,0.6,1.2,100.0,1.0,0.18,0.023695782757385264,0.2,1.0,-160.0,0,1,0,calibrating,0,0,0,0,0,0.0
1.2923129559985682,131,246.31,92.9,6.4,-25.7,-0.69,1.25,-0.64,0.2,0.94,-0.16,-115.9,-2.7,-8.0,-1.37,0.09,0.27,0.0,0.974268956705488,1.5646724896923316,0.0,0.0,2.0,0.45,0.6,1.2,100.0,1.0,0.18,0.02166147430974419,0.2,1.0,-160.0,0,1,0,calibrating,0,0,0,0,0,0.0
1.303629980999176,132,246.32,92.8,6.3,-25.9,-0.65,1.4,-0.58,0.21,0.94,-0.15,-115.9,-4.2,-15.0,-1.37,0.14,-0.11,0.0,0.9747820269167872,1.6489087300393555,0.0,0.0,2.0,0.45,0.6,1.2,100.0,1.0,0.18,0.02072543601647603,0.2,1.0,-160.0,0,1,0,calibrating,0,0,0,0,0,0.0
1.312375665998843,133,246.33,92.8,6.3,-26.0,-0.58,1.58,-0.55,0.21,0.93,-0.15,-116.0,-7.6,-34.0,-1.36,0.27,-0.19,0.0,0.9651424765287248,1.7706778363101516,0.0,0.0,2.0,0.45,0.6,1.2,100.0,1.0,0.18,0.029757686676447626,0.2,1.0,-160.0,0,1,0,calibrating,0,0,0,0,0,0.0
1.3235538469998573,134,246.34,92.7,6.2,-26.2,-0.54,1.74,-0.51,0.2,0.92,-0.15,-116.1,-13.3,-47.0,-1.36,0.42,-0.16,0.0,0.9533624704172071,1.8919038030513073,0.0,0.0,2.0,0.45,0.6,1.2,100.0,1.0,0.18,0.040706938932206005,0.2,1.0,-160.0,0,1,0,calibrating,0,0,0,0,0,0.0
1.3324257919994125,135,246.35,92.6,6.2,-26.4,-0.46,1.94,-0.52,0.2,0.9,-0.16,-116.3,-20.9,-78.0,-1.35,0.69,0.05,0.0,0.9357350052231668,2.0604853797103244,0.0,0.0,2.0,0.45,0.6,1.2,100.0,1.0,0.18,0.057167716043721395,0.2,1.0,-160.0,0,1,0,calibrating,0,0,0,0,0,0.0
1.3437556859989854,136,246.36,92.6,6.1,-26.6,-0.38,2.11,-0.57,0.19,0.9,-0.16,-116.5,-28.8,-62.0,-1.34,0.83,-0.4,0.0,0.9336487562247379,2.218422863207103,0.0,0.0,2.0,0.45,0.6,1.2,100.0,1.0,0.18,0.05806888574130731,0.2,1.0,-160.0,0,1,0,calibrating,0,0,0,0,0,0.0
1.3523284629991394,137,246.37,92.5,6.1,-26.8,-0.25,2.29,-0.57,0.18,0.94,-0.15,-116.9,-34.4,-65.0,-1.34,1.02,0.0,0.0,0.9687620966986683,2.3730781698039367,0.0,0.0,2.0,0.45,0.6,1.2,100.0,1.0,0.18,0.022496434362029305,0.2,1.0,-160.0,0,1,0,calibrating,0,0,0,0,0,0.0
1.3636117899986857,138,246.38,92.5,6.0,-27.1,-0.13,2.45,-0.49,0.16,0.97,-0.15,-117.3,-41.8,-75.0,-1.32,1.24,-0.19,0.0,0.9944847912361455,2.5018992785481995,0.0,0.0,2.0,0.45,0.6,1.2,100.0,1.0,0.18,0.0031617349719389454,0.2,1.0,-160.0,0,1,0,calibrating,0,0,0,0,0,0.0
1.372415211999396,139,246.39,92.4,6.0,-27.3,-0.1,2.61,-0.37,0.15,1.01,-0.14,-117.7,-50.9,-85.0,-1.31,1.49,0.1,0.0,1.030630874755846,2.6379916603355666,0.0,0.0,2.0,0.45,0.6,1.2,100.0,1.0,0.18,0.03852166212180652,0.2,1.0,-160.0,0,1,0,calibrating,0,0,0,0,0,0.0
1.383573969000281,140,246.4,92.4,6.0,-27.6,-0.13,2.72,-0.22,0.14,1.03,-0.12,-118.3,-60.0,-91.0,-1.29,1.75,0.02,0.0,1.0463746938836012,2.7319773059086714,0.0,0.0,2.0,0.45,0.6,1.2,100.0,1.0,0.18,0.05318017162457056,0.2,1.0,-160.0,0,1,0,calibrating,0,0,0,0,0,0.0
1.3922519169991574,141,246.41,92.4,6.0,-27.9,-0.11,2.69,-0.06,0.13,1.01,-0.09,-119.0,-69.0,-84.0,-1.27,1.96,0.08,0.0,1.02230132544177,2.692916634431894,0.0,0.0,2.0,0.45,0.6,1.2,100.0,1.0,0.18,0.028524667119084746,0.2,1.0,-160.0,0,1,0,calibrating,0,0,0,0,0,0.0
1.4036292040000262,142,246.42,92.4,6.0,-28.1,0.03,2.53,0.0,0.13,0.96,-0.09,-119.7,-75.6,-68.0,-1.25,2.12,-0.03,0.0,0.9729337079164233,2.5301778593608786,0.0,0.0,2.0,0.45,0.6,1.2,100.0,1.0,0.18,0.02042609139813678,0.2,1.0,-160.0,0,1,0,calibrating,0,0,0,0,0,0.0
1.4124632949988154,143,246.43,92.4,6.1,-28.4,0.19,2.44,-0.03,0.14,0.93,-0.1,-120.5,-81.8,-64.0,-1.23,2.3,-0.07,0.0,0.9457801012920498,2.447570223711671,0.0,0.0,2.0,0.45,0.6,1.2,100.0,1.0,0.18,0.04662810406206008,0.2,1.0,-160.0,0,1,0,calibrating,0,0,0,0,0,0.0
1.4236024239999097,144,246.44,92.5,6.1,-28.6,0.38,2.41,-0.03,0.14,0.95,-0.08,-121.4,-89.1,-77.0,-1.21,2.53,-0.03,0.0,0.9635870484808313,2.439959016049245,0.0,0.0,2.0,0.45,0.6,1.2,100.0,1.0,0.18,0.028244733735813043,0.2,1.0,-160.0,0,1,0,calibrating,0,0,0,0,0,0.0
1.4357277259987313,145,246.45,92.5,6.1,-28.9,0.54,2.42,0.04,0.12,0.99,-0.06,-122.3,-95.8,-65.0,-1.18,2.67,-0.11,0.0,0.9990495483208027,2.4798387044322054,0.0,0.0,2.0,0.45,0.6,1.2,100.0,1.0,0.18,0.00707341078207524,0.2,1.0,-160.0,0,1,0,calibrating,0,0,0,0,0,0.0
1.444324397998571,146,246.46,92.5,6.2,-29.1,0.65,2.45,0.11,0.09,1.03,-0.03,-123.3,-102.3,-61.0,-1.15,2.84,0.03,0.0,1.0343597053249898,2.537144063706277,0.0,0.0,2.0,0.45,0.6,1.2,100.0,1.0,0.18,0.04153589643053701,0.2,1.0,-160.0,0,1,0,calibrating,0,0,0,0,0,0.0
1.4564079739993758,147,246.47,92.6,6.2,-29.3,0.65,2.39,0.2,0.07,1.11,-0.01,-124.4,-107.0,-43.0,-1.12,2.93,0.0,0.0,1.1122499719037984,2.4848742422907444,0.0,0.0,2.0,0.45,0.6,1.2,100.0,1.0,0.18,0.1170376397491587,0.2,1.0,-160.0,0,1,0,calibrating,0,0,0,0,0,0.0
1.464416232000076,148,246.48,92.6,6.2,-29.6,0.45,2.27,0.35,0.03,1.15,0.01,-125.5,-111.1,-45.0,-1.09,3.07,-0.08,0.0,1.1504347004502253,2.3404914013941602,0.0,0.0,2.0,0.45,0.6,1.2,100.0,1.0,0.18,0.1521179209296739,0.2,1.0,-160.0,0,1,0,calibrating,0,0,0,0,0,0.0
1.4724258109999937,149,246.49,92.6,6.2,-29.8,0.18,2.08,0.49,0.01,1.19,0.03,-126.6,-115.7,-50.0,-1.06,3.21,-0.08,0.0,1.1904200939164291,2.1445046047980405,0.0,0.0,2.0,0.45,0.6,1.2,100.0,1.0,0.18,0.1882612481079602,0.2,1.0,-160.0,0,1,0,calibrating,0,0,0,0,0,0.0
1.483557955998549,150,246.5,92.6,6.3,-30.0,-0.08,1.9,0.67,0.0,1.21,0.05,-127.8,-120.8,-48.0,-1.03,3.33,0.03,0.0,1.2110326172320875,2.0162589119455867,0.0,0.0,2.0,0.45,0.6,1.2,100.0,1.0,0.18,0.20469629599514616,0.2,1.0,-160.0,0,1,0,calibrating,0,0,0,0,0,0.0
1.492292285000076,151,246.51,92.5,6.4,-30.2,-0.27,1.66,0.85,-0.01,1.18,0.06,-129.1,-125.4,-51.0,-0.99,3.47,-0.03,0.0,1.1815667564721004,1.8844097219023257,0.0,0.0,2.0,0.45,0.6,1.2,100.0,1.0,0.18,0.17172582653045576,0.2,1.0,-160.0,0,1,0,calibrating,0,0,0,0,0,0.0
1.50361765299931,152,246.52,92.5,6.5,-30.3,-0.26,1.3,0.93,0.0,1.14,0.06,-130.4,-132.2,-72.0,-0.96,3.71,0.04,0.0,1.1415778554264269,1.619413474070165,0.0,0.0,2.0,0.45,0.6,1.2,100.0,1.0,0.18,0.12910218697508657,0.2,1.0,-160.0,0,1,0,calibrating,0,0,0,0,0,0.0
1.5123764039999514,153,246.53,92.4,6.6,-30.4,-0.28,0.95,0.93,0.02,1.1,0.06,-131.7,-142.2,-90.0,-0.92,3.99,0.03,0.0,1.1018166816671457,1.3586022228746721,0.0,0.0,2.0,0.45,0.6,1.2,100.0,1.0,0.18,0.08755419295148936,0.2,1.0,-160.0,0,1,0,calibrating,0,0,0,0,0,0.0
1.5235504409993155,154,246.54,92.4,6.6,-30.5,-0.16,0.67,0.91,0.08,1.06,0.03,-133.2,-152.0,-98.0,-0.88,4.28,0.11,0.0,1.063437821407533,1.1413150310059008,0.0,0.0,2.0,0.45,0.6,1.2,100.0,1.0,0.18,0.048191826038039176,0.2,1.0,-160.0,0,1,0,calibrating,0,0,0,0,0,0.0
1.532209700999374,155,246.55,92.3,6.7,-30.6,-0.02,0.56,0.86,0.13,1.03,0.01,-134.8,-161.7,-95.0,-0.83,4.5,0.16,0.0,1.0382196299434912,1.026450193628507,0.0,0.0,2.0,0.45,0.6,1.2,100.0,1.0,0.18,0.022514161882517314,0.2,1.0,-160.0,0,1,0,calibrating,0,0,0,0,0,0.0
1.5437915089987655,156,246.56,92.3,6.8,-30.6,0.1,0.61,0.79,0.18,1.01,0.0,-136.5,-168.9,-70.0,-0.79,4.65,-0.13,0.0,1.0259142264341596,1.0030952098380295,0.0,0.0,2.0,0.45,0.6,1.2,100.0,1.0,0.18,0.010004583205722062,0.2,1.0,-160.0,0,1,0,calibrating,0,0,0,0,0,0.0
1.5522905019988684,157,246.57,92.3,7.0,-30.7,0.2,0.76,0.68,0.22,0.99,0.0,-138.2,-173.1,-50.0,-0.74,4.76,0.02,0.0,1.0141498903022177,1.0392304845413265,0.0,0.0,2.0,0.45,0.6,1.2,100.0,1.0,0.18,0.001724557867695431,0.2,1.0,-160.0,0,1,0,calibrating,0,0,0,0,0,0.0
1.5637418850001268,158,246.58,92.3,7.0,-30.8,0.39,0.95,0.46,0.24,0.95,0.0,-140.0,-177.7,-49.0,-0.69,4.89,0.11,0.0,0.9798469268207152,1.1252555265360842,0.0,0.0,2.0,0.45,0.6,1.2,100.0,1.0,0.18,0.03530697092221391,0.2,1.0,-160.0,0,1,0,calibrating,0,0,0,0,0,0.0
1.5722779349998746,159,246.59,92.3,7.1,-30.9,0.57,1.17,0.23,0.24,0.93,-0.01,-141.8,-183.8,-62.0,-0.64,5.08,-0.04,0.0,0.9605206921248496,1.3216277842115758,0.0,0.0,2.0,0.45,0.6,1.2,100.0,1.0,0.18,0.053540541505717854,0.2,1.0,-160.0,0,1,0,calibrating,0,0,0,0,0,0.0
1.583731449998595,160,246.6,92.4,7.1,-31.0,0.76,1.5,0.0,0.23,0.93,-0.02,-143.7,-189.7,-52.0,-0.59,5.21,-0.16,0.0,0.9582275303913993,1.6815469068687914,0.0,0.0,2.0,0.45,0.6,1.2,100.0,1.0,0.18,0.0547170291743847,0.2,1.0,-160.0,0,1,0,calibrating,0,0,0,0,0,0.0
1.5924010500002623,161,246.61,92.4,7.1,-31.2,0.87,1.82,-0.2,0.19,0.94,-0.02,-145.6,-192.8,-29.0,-0.53,5.24,0.09,0.0,0.959218431849597,2.0271408436514715,0.0,0.0,2.0,0.45,0.6,1.2,100.0,1.0,0.18,0.05265160516186318,0.2,1.0,-160.0,0,1,0,calibrating,0,0,0,0,0,0.0
1.6034401959987008,162,246.62,92.5,7.1,-31.4,0.88,2.1,-0.36,0.15,0.96,-0.02,-147.5,-191.6,4.0,-0.48,5.18,0.0,0.0,0.9718538984847465,2.3052114870440845,0.0,0.0,2.0,0.45,0.6,1.2,100.0,1.0,0.18,0.039215815756179384,0.2,1.0,-160.0,0,1,0,calibrating,0,0,0,0,0,0.0
1.6124579349998385,163,246.63,92.5,7.1,-31.6,0.84,2.39,-0.45,0.1,0.96,-0.01,-149.4,-189.0,15.0,-0.43,5.12,-0.18,0.0,0.9652460826131334,2.572974931863892,0.0,0.0,2.0,0.45,0.6,1.2,100.0,1.0,0.18,0.04490715899523667,0.2,1.0,-160.0,0,1,0,calibrating,0,0,0,0,0,0.0
1.6235732129989628,164,246.64,92.6,7.1,-31.9,0.77,2.65,-0.49,0.07,0.97,0.0,-151.3,-187.2,22.0,-0.38,5.04,0.02,0.0,0.9725224933131367,2.8027664904518894,0.0,0.0,2.0,0.45,0.6,1.2,100.0,1.0,0.18,0.036878133329328655,0.2,1.0,-160.0,0,1,0,calibrating,0,0,0,0,0,0.0
1.632329125999604,165,246.65,92.6,7.0,-32.2,0.58,2.83,-0.51,0.03,0.97,0.01,-153.1,-184.1,34.0,-0.33,4.93,0.1,0.0,0.9705153270299238,2.933496207599389,0.0,0.0,2.0,0.45,0.6,1.2,100.0,1.0,0.18,0.03810759362029059,0.2,1.0,-160.0,0,1,0,calibrating,0,0,0,0,0,0.0
1.6437585959993157,166,246.66,92.6,6.9,-32.5,0.37,2.97,-0.52,0.0,0.96,0.02,-155.0,-179.7,36.0,-0.28,4.85,-0.1,0.0,0.9602083107326242,3.0377952531400143,0.0,0.0,2.0,0.45,0.6,1.2,100.0,1.0,0.18,0.04744631771923835,0.2,1.0,-160.0,0,1,0,calibrating,0,0,0,0,0,0.0
1.6522761099986383,167,246.67,92.6,6.9,-32.8,0.18,3.01,-0.52,-0.01,0.95,0.04,-156.7,-174.6,43.0,-0.23,4.7,0.0,0.0,0.9508943158942533,3.059885618777277,0.0,0.0,2.0,0.45,0.6,1.2,100.0,1.0,0.18,0.055625106306457006,0.2,1.0,-160.0,0,1,0,calibrating,0,0,0,0,0,0.0
1.663664959000016,168,246.68,92.5,6.9,-33.1,0.0,3.01,-0.5,-0.01,0.95,0.06,-158.4,-169.9,51.0,-0.19,4.53,-0.2,0.0,0.951945376584182,3.051245647272602,0.0,0.0,2.0,0.45,0.6,1.2,100.0,1.0,0.18,0.053482564704197766,0.2,1.0,-160.0,0,1,0,calibrating,0,0,0,0,0,0.0
1.6722038070001872,169,246.69,92.5,6.8,-33.4,-0.13,3.0,-0.45,-0.02,0.95,0.08,-160.1,-164.0,54.0,-0.14,4.4,-0.19,0.0,0.9535722311393091,3.036346488792081,0.0,0.0,2.0,0.45,0.6,1.2,100.0,1.0,0.18,0.05081859594608917,0.2,1.0,-160.0,0,1,0,calibrating,0,0,0,0,0,0.0
1.68373425199934,170,246.7,92.4,6.8,-33.7,-0.21,2.89,-0.45,-0.03,0.94,0.09,-161.7,-157.1,70.0,-0.1,4.17,-0.09,0.0,0.9447751055145346,2.9323540031858366,0.0,0.0,2.0,0.45,0.6,1.2,100.0,1.0,0.18,0.05842340713944649,0.2,1.0,-160.0,0,1,0,calibrating,0,0,0,0,0,0.0
1.692376979999608,171,246.71,92.4,6.8,-34.0,-0.29,2.79,-0.48,-0.03,0.95,0.1,-163.2,-148.8,81.0,-0.06,3.92,-0.07,0.0,0.9557196241576292,2.8458039285938166,0.0,0.0,2.0,0.45,0.6,1.2,100.0,1.0,0.18,0.046529310726424744,0.2,1.0,-160.0,0,1,0,calibrating,0,0,0,0,0,0.0
1.7035991749999084,172,246.72,92.3,6.7,-34.3,-0.37,2.74,-0.52,-0.02,0.96,0.1,-164.6,-139.1,89.0,-0.02,3.67,-0.01,0.0,0.9654014708917735,2.813343206933701,0.0,0.0,2.0,0.45,0.6,1.2,100.0,1.0,0.18,0.03611051471243476,0.2,1.0,-160.0,0,1,0,calibrating,0,0,0,0,0,0.0
1.712415672998759,173,246.73,92.2,6.7,-34.5,-0.44,2.66,-0.51,-0.01,0.97,0.09,-166.0,-129.8,89.0,0.0,3.42,0.04,0.0,0.9742176348229383,2.7439569967475803,0.0,0.0,2.0,0.45,0.6,1.2,100.0,1.0,0.18,0.026748463765644548,0.2,1.0,-160.0,0,1,0,calibrating,0,0,0,0,0,0.0
1.7237029799998709,174,246.74,92.2,6.6,-34.8,-0.43,2.64,-0.49,-0.01,0.97,0.08,-167.2,-121.4,79.0,0.03,3.22,0.02,0.0,0.973344748791506,2.719301380869726,0.0,0.0,2.0,0.45,0.6,1.2,100.0,1.0,0.18,0.027068922801135264,0.2,1.0,-160.0,0,1,0,calibrating,0,0,0,0,0,0.0
1.732215689999066,175,246.75,92.1,6.6,-35.1,-0.44,2.63,-0.48,0.0,0.96,0.07,-168.4,-114.8,68.0,0.06,3.05,-0.03,0.0,0.9625487000666512,2.7094095297684326,0.0,0.0,2.0,0.45,0.6,1.2,100.0,1.0,0.18,0.03710767209547028,0.2,1.0,-160.0,0,1,0,calibrating,0,0,0,0,0,0.0
1.743643453999539,176,246.76,92.0,6.6,-35.3,-0.49,2.68,-0.46,0.0,0.96,0.05,-169.5,-108.0,72.0,0.09,2.84,-0.12,0.0,0.9613012014972206,2.7629875135439903,0.0,0.0,2.0,0.45,0.6,1.2,100.0,1.0,0.18,0.0375880672516028,0.2,1.0,-160.0,0,1,0,calibrating,0,0,0,0,0,0.0
1.752313487999345,177,246.77,91.9,6.5,-35.6,-0.46,2.74,-0.42,0.0,0.96,0.05,-170.5,-101.8,64.0,0.12,2.67,-0.11,0.0,0.9613012014972206,2.809911030620009,0.0,0.0,2.0,0.45,0.6,1.2,100.0,1.0,0.18,0.03683630590657072,0.2,1.0,-160.0,0,1,0,calibrating,0,0,0,0,0,0.0
1.7637503200003266,178,246.78,91.9,6.5,-35.9,-0.39,2.87,-0.34,0.01,0.96,0.04,-171.5,-93.9,76.0,0.15,2.45,-0.04,0.0,0.9608850087289321,2.916264734210528,0.0,0.0,2.0,0.45,0.6,1.2,100.0,1.0,0.18,0.03650744870136202,0.2,1.0,-160.0,0,1,0,calibrating,0,0,0,0,0,0.0
1.7721241599992936,179,246.79,91.8,6.5,-36.2,-0.25,3.03,-0.26,0.02,0.97,0.03,-172.3,-83.6,102.0,0.17,2.12,0.09,0.0,0.9706698717895801,3.0513931244597114,0.0,0.0,2.0,0.45,0.6,1.2,100.0,1.0,0.18,0.02618813392789976,0.2,1.0,-160.0,0,1,0,calibrating,0,0,0,0,0,0.0
1.7837314930002321,180,246.8,91.7,6.5,-36.5,-0.16,3.17,-0.19,0.03,0.98,0.03,-173.1,-70.8,125.0,0.19,1.73,-0.16,0.0,0.9809179374443103,3.179716968536665,0.0,0.0,2.0,0.45,0.6,1.2,100.0,1.0,0.18,0.015621266907706155,0.2,1.0,-160.0,0,1,0,calibrating,0,0,0,0,0,0.0
1.7924191649999557,181,246.81,91.7,6.4,-36.8,-0.14,3.31,-0.15,0.03,0.99,0.03,-173.7,-56.6,139.0,0.2,1.34,-0.11,0.0,0.9909086738948246,3.3163534190432724,0.0,0.0,2.0,0.45,0.6,1.2,100.0,1.0,0.18,0.0055179198480480585,0.2,1.0,-160.0,0,1,0,calibrating,0,0,0,0,0,0.0
1.8035132369986968,182,246.82,91.6,6.4,-37.2,-0.13,3.32,-0.12,0.02,1.0,0.03,-174.1,-40.3,161.0,0.21,0.87,-0.1,0.0,1.000649788887201,3.324710513713938,0.0,0.0,2.0,0.45,0.6,1.2,100.0,1.0,0.18,0.004138731241441818,0.2,1.0,-160.0,0,1,0,calibrating,0,0,0,0,0,0.0
1.812416871998721,183,246.83,91.5,6.4,-37.5,-0.1,3.27,-0.12,0.02,1.0,0.03,-174.4,-19.0,206.0,0.22,0.22,-0.06,0.0,1.000649788887201,3.273728760908576,0.0,0.0,2.0,0.45,0.6,1.2,100.0,1.0,0.18,0.004055956616612955,0.2,1.0,-160.0,0,1,0,calibrating,0,0,0,0,0,0.0
1.8236045349985943,184,246.84,91.5,6.4,-37.8,0.08,3.16,-0.16,0.03,1.02,0.02,-174.5,1.1,173.0,0.22,-0.17,-0.07,0.0,1.0206370559606386,3.1650592411517358,0.0,0.0,2.0,0.45,0.6,1.2,100.0,1.0,0.18,0.023562359216249718,0.2,1.0,-160.0,0,1,0,calibrating,0,0,0,0,0,0.0
1.8321026829999028,185,246.85,91.4,6.3,-38.1,0.32,3.0,-0.22,0.03,1.03,0.02,-174.4,10.2,115.0,0.21,-0.4,0.06,0.0,1.0306308747558457,3.02502892548154,0.0,0.0,2.0,0.45,0.6,1.2,100.0,1.0,0.18,0.03288505445122769,0.2,1.0,-160.0,0,1,0,calibrating,0,0,0,0,0,0.0
1.843633503998717,186,246.86,91.4,6.2,-38.4,0.43,2.87,-0.33,0.03,1.05,0.02,-174.2,21.0,110.0,0.21,-0.69,0.05,0.0,1.0506188652408637,2.9207362085611224,0.0,0.0,2.0,0.45,0.6,1.2,100.0,1.0,0.18,0.05181558403752051,0.2,1.0,-160.0,0,1,0,calibrating,0,0,0,0,0,0.0
1.8522826899989013,187,246.87,91.4,6.1,-38.7,0.46,2.75,-0.46,0.02,1.06,0.02,-173.9,31.1,114.0,0.2,-1.01,-0.11,0.0,1.060377291344925,2.825898087334361,0.0,0.0,2.0,0.45,0.6,1.2,100.0,1.0,0.18,0.06034252993875011,0.2,1.0,-160.0,0,1,0,calibrating,0,0,0,0,0,0.0
1.8637239709987625,188,246.88,91.4,6.1,-39.0,0.42,2.58,-0.58,0.01,1.05,0.02,-173.5,46.1,143.0,0.18,-1.45,-0.11,0.0,1.0502380682492898,2.677536180894667,0.0,0.0,2.0,0.45,0.6,1.2,100.0,1.0,0.18,0.0491992407062527,0.2,1.0,-160.0,0,1,0,calibrating,0,0,0,0,0,0.0
1.872082899999441,189,246.89,91.4,5.9,-39.3,0.4,2.36,-0.71,0.0,1.04,0.02,-172.9,64.8,181.0,0.17,-2.01,0.09,0.0,1.0401922899156675,2.496737871703796,0.0,0.0,2.0,0.45,0.6,1.2,100.0,1.0,0.18,0.03837039312517776,0.2,1.0,-160.0,0,1,0,calibrating,0,0,0,0,0,0.0
1.883748401000048,190,246.9,91.4,5.8,-39.5,0.41,2.15,-0.81,0.0,1.03,0.01,-172.1,85.7,204.0,0.14,-2.6,-0.01,0.0,1.030048542545447,2.3338166166175096,0.0,0.0,2.0,0.45,0.6,1.2,100.0,1.0,0.18,0.0276621128398582,0.2,1.0,-160.0,0,1,0,calibrating,0,0,0,0,0,0.0
1.8923661799999536,191,246.91,91.4,5.7,-39.7,0.33,1.97,-0.93,0.0,1.02,0.0,-171.1,108.0,218.0,0.11,-3.21,-0.18,0.0,1.02,2.2033383761919096,0.0,0.0,2.0,0.45,0.6,1.2,100.0,1.0,0.18,0.017261298888523013,0.2,1.0,-160.0,0,1,0,calibrating,0,0,0,0,0,0.0
1.9036636089986132,192,246.92,91.4,5.5,-39.9,0.17,1.84,-1.04,-0.01,1.02,0.0,-169.9,130.5,219.0,0.07,-3.82,-0.01,0.0,1.0200490184299968,2.120400905489337,0.0,0.0,2.0,0.45,0.6,1.2,100.0,1.0,0.18,0.01696411097214945,0.2,1.0,-160.0,0,1,0,calibrating,0,0,0,0,0,0.0
1.9122953309997683,193,246.93,91.3,5.3,-40.1,-0.02,1.74,-1.15,-0.01,1.01,0.0,-168.4,152.3,212.0,0.03,-4.39,-0.06,0.0,1.0100495037373167,2.0857852238425703,0.0,0.0,2.0,0.45,0.6,1.2,100.0,1.0,0.18,0.006825304353879957,0.2,1.0,-160.0,0,1,0,calibrating,0,0,0,0,0,0.0
1.9237033079989487,194,246.94,91.3,5.2,-40.2,-0.18,1.63,-1.24,-0.01,1.0,0.0,-166.7,173.5,222.0,-0.01,-5.01,-0.2,0.0,1.0000499987500624,2.055942606202809,0.0,0.0,2.0,0.45,0.6,1.2,100.0,1.0,0.18,0.0031107166207069437,0.2,1.0,-160.0,0,1,0,calibrating,0,0,0,0,0,0.0
1.9323620380000648,195,246.95,91.2,5.0,-40.4,-0.3,1.53,-1.29,-0.01,0.98,0.0,-164.8,197.5,233.0,-0.06,-5.65,-0.16,0.0,0.9800510190801293,2.023610634484806,0.0,0.0,2.0,0.45,0.6,1.2,100.0,1.0,0.18,0.022647502364827377,0.2,1.0,-160.0,0,1,0,calibrating,0,0,0,0,0,0.0
1.9436259409994818,196,246.96,91.2,4.8,-40.6,-0.35,1.41,-1.31,0.0,0.97,0.0,-162.7,222.6,247.0,-0.12,-6.37,-0.16,0.0,0.97,1.9561952867748147,0.0,0.0,2.0,0.45,0.6,1.2,100.0,1.0,0.18,0.03204455101605763,0.2,1.0,-160.0,0,1,0,calibrating,0,0,0,0,0,0.0
1.9522956309992878,197,246.97,91.1,4.6,-40.7,-0.37,1.3,-1.3,0.0,0.96,-0.01,-160.3,245.6,221.0,-0.19,-6.91,0.02,0.0,0.9600520819205591,1.875339969178922,0.0,0.0,2.0,0.45,0.6,1.2,100.0,1.0,0.18,0.04115261971358852,0.2,1.0,-160.0,0,1,0,calibrating,0,0,0,0,0,0.0
1.9636257769998338,198,246.98,91.1,4.4,-40.8,-0.37,1.16,-1.3,0.0,0.96,-0.02,-157.7,264.5,199.0,-0.26,-7.43,-0.12,0.0,0.9602083107326242,1.7811513130556877,0.0,0.0,2.0,0.45,0.6,1.2,100.0,1.0,0.18,0.040176463083492875,0.2,1.0,-160.0,0,1,0,calibrating,0,0,0,0,0,0.0
1.9722089409988257,199,246.99,91.0,4.3,-40.9,-0.38,1.04,-1.29,0.0,0.96,-0.04,-154.9,283.9,202.0,-0.34,-7.98,0.0,0.0,0.9608329719571451,1.7000294115102834,0.0,0.0,2.0,0.45,0.6,1.2,100.0,1.0,0.18,0.03876076582179255,0.2,1.0,-160.0,0,1,0,calibrating,0,0,0,0,0,0.0
1.9836684829988371,200,247.0,91.0,4.1,-41.0,-0.34,0.96,-1.28,0.0,0.97,-0.05,-153.0,297.3,271.0,-0.42,-8.51,-0.04,0.0,0.9712878049270462,1.635726138447387,0.0,0.0,2.0,0.45,0.6,1.2,100.0,1.0,0.18,0.027739814194853607,0.2,1.0,-160.0,0,1,0,calibrating,0,0,0,0,0,0.0
1.9923623529994074,201,247.01,91.0,3.9,-41.1,-0.35,0.92,-1.27,0.0,0.98,-0.05,-148.8,323.5,228.0,-0.51,-9.04,-0.23,0.0,0.9812746812182611,1.606798058251254,0.0,0.0,2.0,0.45,0.6,1.2,100.0,1.0,0.18,0.01739787914556601,0.2,1.0,-160.0,0,1,0,calibrating,0,0,0,0,0,0.0
2.0036116760002187,202,247.02,91.0,3.8,-41.2,-0.41,0.88,-1.24,0.0,0.99,-0.05,-145.4,345.5,230.0,-0.61,-9.67,-0.2,0.0,0.9912618221237011,1.574833324514058,0.0,0.0,2.0,0.45,0.6,1.2,100.0,1.0,0.18,0.0072625234753235235,0.2,1.0,-160.0,0,1,0,calibrating,0,0,0,0,0,0.0
2.0122749940001086,203,247.03,90.9,3.6,-41.3,-0.52,0.86,-1.21,-0.01,0.99,-0.05,-141.8,364.3,179.0,-0.71,-10.07,-0.02,0.0,0.991312261600753,1.5729272074701994,0.0,0.0,2.0,0.45,0.6,1.2,100.0,1.0,0.18,0.007067842318306039,0.2,1.0,-160.0,0,1,0,calibrating,0,0,0,0,0,0.0
2.0237440769997193,204,247.04,90.9,3.4,-41.4,-0.7,0.78,-1.15,-0.02,1.0,-0.05,-138.1,378.7,171.0,-0.81,-10.53,-0.07,0.0,1.0014489502715553,1.5559241626763174,0.0,0.0,2.0,0.45,0.6,1.2,100.0,1.0,0.18,0.003007469425446274,0.2,1.0,-160.0,0,1,0,calibrating,0,0,0,0,0,0.0
2.0324125150000327,205,247.05,90.8,3.3,-41.5,-0.86,0.69,-1.04,-0.03,1.0,-0.05,-134.1,396.9,157.0,-0.92,-10.92,-0.12,0.0,1.0016985574512922,1.5156846637740977,0.0,0.0,2.0,0.45,0.6,1.2,100.0,1.0,0.18,0.003191935073079688,0.2,1.0,-160.0,0,1,0,calibrating,0,0,0,0,0,0.0
2.043626703998598,206,247.06,90.8,3.1,-41.5,-0.99,0.56,-0.92,-0.05,0.99,-0.04,-130.1,402.2,75.0,-1.03,-11.0,0.02,0.0,0.9920685460188726,1.4629080627298492,0.0,0.0,2.0,0.45,0.6,1.2,100.0,1.0,0.18,0.0063093148321533565,0.2,1.0,-160.0,0,1,0,calibrating,0,0,0,0,0,0.0
2.0521608229992125,207,247.07,90.7,3.0,-41.6,-1.05,0.37,-0.75,-0.05,0.99,-0.04,-126.0,412.3,103.0,-1.14,-11.31,0.09,0.0,0.9920685460188726,1.342348687934696,0.0,0.0,2.0,0.45,0.6,1.2,100.0,1.0,0.18,0.006183128535510285,0.2,1.0,-160.0,0,1,0,calibrating,0,0,0,0,0,0.0
2.0636016110001947,208,247.08,90.6,2.8,-41.6,-1.09,0.14,-0.55,-0.05,0.99,-0.04,-121.9,412.2,-19.0,-1.25,-11.06,0.19,0.0,0.9920685460188726,1.2289019488958426,0.0,0.0,2.0,0.45,0.6,1.2,100.0,1.0,0.18,0.006059465964800115,0.2,1.0,-160.0,0,1,0,calibrating,0,0,0,0,0,0.0
2.072231276999446,209,247.09,90.5,2.7,-41.6,-1.11,-0.08,-0.39,-0.05,0.99,-0.04,-117.9,399.9,-90.0,-1.36,-10.7,-0.09,0.0,0.9920685460188726,1.1792370414806346,0.0,0.0,2.0,0.45,0.6,1.2,100.0,1.0,0.18,0.005938276645504059,0.2,1.0,-160.0,0,1,0,calibrating,0,0,0,0,0,0.0
2.083586890999868,210,247.1,90.4,2.7,-41.6,-1.22,-0.32,-0.22,-0.05,0.99,-0.05,-114.0,382.6,-176.0,-1.46,-10.09,-0.09,0.0,0.9925220400575495,1.2803124618623378,0.0,0.0,2.0,0.45,0.6,1.2,100.0,1.0,0.18,0.005375086954690578,0.2,1.0,-160.0,0,1,0,calibrating,0,0,0,0,0,0.0
2.0922241680000297,211,247.11,90.3,2.7,-41.5,-1.34,-0.52,-0.09,-0.05,0.99,-0.05,-110.3,356.7,-222.0,-1.56,-9.41,-0.01,0.0,0.9925220400575495,1.440173600646811,0.0,0.0,2.0,0.45,0.6,1.2,100.0,1.0,0.18,0.005267585215596782,0.2,1.0,-160.0,0,1,0,calibrating,0,0,0,0,0,0.0
2.103567348998695,212,247.12,90.1,2.6,-41.5,-1.42,-0.71,0.02,-0.02,0.98,-0.05,-106.9,332.0,-254.0,-1.65,-8.66,0.07,0.0,0.9814784765851974,1.587734234687909,0.0,0.0,2.0,0.45,0.6,1.2,100.0,1.0,0.18,0.015984925714189968,0.2,1.0,-160.0,0,1,0,calibrating,0,0,0,0,0,0.0
2.1122329589998117,213,247.13,90.0,2.6,-41.4,-1.39,-0.84,0.13,0.0,0.99,-0.05,-103.8,300.9,-299.0,-1.73,-7.78,0.06,0.0,0.9912618221237011,1.6292943257741985,0.0,0.0,2.0,0.45,0.6,1.2,100.0,1.0,0.18,0.006077548572172575,0.2,1.0,-160.0,0,1,0,calibrating,0,0,0,0,0,0.0
2.12374129699856,214,247.14,89.9,2.6,-41.3,-1.41,-0.93,0.24,0.0,0.99,-0.05,-101.0,272.3,-267.0,-1.8,-7.12,0.08,0.0,0.9912618221237011,1.7060480649735517,0.0,0.0,2.0,0.45,0.6,1.2,100.0,1.0,0.18,0.005955997600729068,0.2,1.0,-160.0,0,1,0,calibrating,0,0,0,0,0,0.0
2.132361778998529,215,247.15,89.8,2.6,-41.2,-1.46,-0.99,0.37,0.0,0.99,-0.06,-98.4,252.6,-203.0,-1.87,-6.68,-0.1,0.0,0.9918165152889924,1.802387305769767,0.0,0.0,2.0,0.45,0.6,1.2,100.0,1.0,0.18,0.005293278346728991,0.2,1.0,-160.0,0,1,0,calibrating,0,0,0,0,0,0.0
2.143620248998559,216,247.16,89.7,2.6,-41.1,-1.4,-1.0,0.49,0.01,0.98,-0.06,-96.0,237.6,-174.0,-1.94,-6.25,0.13,0.0,0.9818859404228171,1.7888823326311878,0.0,0.0,2.0,0.45,0.6,1.2,100.0,1.0,0.18,0.014919376148646246,0.2,1.0,-160.0,0,1,0,calibrating,0,0,0,0,0,0.0
2.152282369999739,217,247.17,89.6,2.7,-41.0,-1.31,-1.03,0.61,0.01,0.97,-0.06,-93.7,221.7,-158.0,-1.99,-5.85,0.06,0.0,0.9719053451854249,1.7745703705404303,0.0,0.0,2.0,0.45,0.6,1.2,100.0,1.0,0.18,0.024401971958317614,0.2,1.0,-160.0,0,1,0,calibrating,0,0,0,0,0,0.0
2.1636980259991105,218,247.18,89.6,2.7,-40.9,-1.25,-1.08,0.75,0.0,0.97,-0.06,-91.6,208.8,-129.0,-2.05,-5.55,0.0,0.0,0.9718538984847466,1.814221596167348,0.0,0.0,2.0,0.45,0.6,1.2,100.0,1.0,0.18,0.023964350285816005,0.2,1.0,-160.0,0,1,0,calibrating,0,0,0,0,0,0.0
2.17233482499978,219,247.19,89.5,2.8,-40.8,-1.17,-1.16,0.91,0.0,0.98,-0.05,-89.6,197.3,-122.0,-2.1,-5.21,0.05,0.0,0.9812746812182611,1.882179587605816,0.0,0.0,2.0,0.45,0.6,1.2,100.0,1.0,0.18,0.014252696201255466,0.2,1.0,-160.0,0,1,0,calibrating,0,0,0,0,0,0.0
2.1836312129998987,220,247.2,89.4,2.8,-40.7,-1.1,-1.32,1.02,0.0,0.97,-0.05,-87.7,184.1,-133.0,-2.15,-4.83,0.12,0.0,0.9712878049270462,1.998199189270179,0.0,0.0,2.0,0.45,0.6,1.2,100.0,1.0,0.18,0.023754781042620965,0.2,1.0,-160.0,0,1,0,calibrating,0,0,0,0,0,0.0
2.1923637519994372,221,247.21,89.3,2.9,-40.5,-1.01,-1.52,1.07,0.0,0.97,-0.05,-86.0,168.6,-152.0,-2.2,-4.38,-0.08,0.0,0.9712878049270462,2.115514121909849,0.0,0.0,2.0,0.45,0.6,1.2,100.0,1.0,0.18,0.023279685421768503,0.2,1.0,-160.0,0,1,0,calibrating,0,0,0,0,0,0.0
2.203683863999686,222,247.22,89.3,3.0,-40.3,-0.9,-1.72,1.09,0.0,0.96,-0.06,-84.4,150.9,-168.0,-2.24,-3.89,0.1,0.0,0.9618731725128838,2.2263198332674485,0.0,0.0,2.0,0.45,0.6,1.2,100.0,1.0,0.18,0.03204043147921232,0.2,1.0,-160.0,0,1,0,calibrating,0,0,0,0,0,0.0
2.212191159000213,223,247.23,89.3,3.1,-40.2,-0.76,-1.89,1.08,0.0,0.96,-0.07,-83.0,133.8,-170.0,-2.28,-3.42,0.01,0.0,0.9625487000666512,2.305666931714119,0.0,0.0,2.0,0.45,0.6,1.2,100.0,1.0,0.18,0.030737605846936078,0.2,1.0,-160.0,0,1,0,calibrating,0,0,0,0,0,0.0
2.2236324829991645,224,247.24,89.3,3.2,-40.0,-0.62,-2.02,1.07,0.0,0.96,-0.07,-81.8,119.0,-141.0,-2.31,-3.09,0.1,0.0,0.9625487000666512,2.3684805255690833,0.0,0.0,2.0,0.45,0.6,1.2,100.0,1.0,0.18,0.030122853729997345,0.2,1.0,-160.0,0,1,0,calibrating,0,0,0,0,0,0.0
2.2323634029999084,225,247.25,89.3,3.2,-39.8,-0.51,-2.13,1.05,0.0,0.96,-0.07,-80.7,106.5,-130.0,-2.34,-2.75,0.16,0.0,0.9625487000666512,2.428888634746352,0.0,0.0,2.0,0.45,0.6,1.2,100.0,1.0,0.18,0.029520396655397407,0.2,1.0,-160.0,0,1,0,calibrating,0,0,0,0,0,0.0
2.243632752999474,226,247.26,89.2,3.3,-39.5,-0.46,-2.24,1.07,0.0,0.96,-0.07,-79.7,94.7,-119.0,-2.36,-2.43,0.14,0.0,0.9625487000666512,2.5246980017419904,0.0,0.0,2.0,0.45,0.6,1.2,100.0,1.0,0.18,0.028929988722289468,0.2,1.0,-160.0,0,1,0,calibrating,0,0,0,0,0,0.0
2.252130140999725,227,247.27,89.2,3.5,-39.3,-0.41,-2.36,1.13,-0.01,0.95,-0.08,-78.8,82.8,-119.0,-2.38,-2.11,0.07,0.0,0.9534149149242421,2.648509014521189,0.0,0.0,2.0,0.45,0.6,1.2,100.0,1.0,0.18,0.037302498387404515,0.2,1.0,-160.0,0,1,0,calibrating,0,0,0,0,0,0.0
2.263794204000078,228,247.28,89.2,3.6,-39.1,-0.31,-2.51,1.2,-0.02,0.95,-0.08,-78.1,69.2,-135.0,-2.4,-1.7,-0.07,0.0,0.9535722311393091,2.799321346326641,0.0,0.0,2.0,0.45,0.6,1.2,100.0,1.0,0.18,0.036402278528890775,0.2,1.0,-160.0,0,1,0,calibrating,0,0,0,0,0,0.0
2.2723845279997477,229,247.29,89.2,3.7,-38.8,-0.19,-2.69,1.25,-0.02,0.95,-0.08,-77.5,55.4,-135.0,-2.42,-1.33,0.08,0.0,0.9535722311393091,2.9723223243787005,0.0,0.0,2.0,0.45,0.6,1.2,100.0,1.0,0.18,0.03567423295831296,0.2,1.0,-160.0,0,1,0,calibrating,0,0,0,0,0,0.0
2.28355196099983,230,247.3,89.2,3.8,-38.5,-0.1,-2.84,1.29,-0.02,0.96,-0.09,-77.1,42.0,-135.0,-2.43,-0.96,-0.01,0.0,0.9644169222903546,3.120849243395137,0.0,0.0,2.0,0.45,0.6,1.2,100.0,1.0,0.18,0.02433295097112209,0.2,1.0,-160.0,0,1,0,calibrating,0,0,0,0,0,0.0
2.292216649999318,231,247.31,89.2,4.0,-38.2,-0.08,-2.96,1.31,-0.01,0.96,-0.09,-76.7,25.9,-149.0,-2.43,-0.54,-0.02,0.0,0.9642613753542137,3.237915996439685,0.0,0.0,2.0,0.45,0.6,1.2,100.0,1.0,0.18,0.023998727949117615,0.2,1.0,-160.0,0,1,0,calibrating,0,0,0,0,0,0.0
2.303794231998836,232,247.32,89.2,4.1,-37.9,-0.06,-3.05,1.3,0.0,0.95,-0.1,-76.6,14.2,-131.0,-2.44,-0.2,0.16,0.0,0.95524865872714,3.316036791110738,0.0,0.0,2.0,0.45,0.6,1.2,100.0,1.0,0.18,0.03235121568466748,0.2,1.0,-160.0,0,1,0,calibrating,0,0,0,0,0,0.0
2.312345086998903,233,247.33,89.2,4.2,-37.6,-0.06,-3.09,1.3,0.0,0.96,-0.1,-76.5,0.0,-129.0,-2.44,0.12,0.25,0.0,0.9651942809610923,3.35286444700647,0.0,0.0,2.0,0.45,0.6,1.2,100.0,1.0,0.18,0.021957481581700966,0.2,1.0,-160.0,0,1,0,calibrating,0,0,0,0,0,0.0
2.323763456999586,234,247.34,89.2,4.4,-37.3,-0.04,-3.09,1.33,0.01,0.95,-0.1,-76.6,-4.7,-47.0,-2.43,0.11,-0.26,0.0,0.9553009996854395,3.364312708414603,0.0,0.0,2.0,0.45,0.6,1.2,100.0,1.0,0.18,0.031213747600206676,0.2,1.0,-160.0,0,1,0,calibrating,0,0,0,0,0,0.0
2.332423658999687,235,247.35,89.3,4.5,-37.0,-0.11,-3.08,1.41,0.01,0.95,-0.1,-76.6,-1.5,8.0,-2.43,0.01,0.23,0.0,0.9553009996854395,3.389188693478131,0.0,0.0,2.0,0.45,0.6,1.2,100.0,1.0,0.18,0.030589472648202554,0.2,1.0,-160.0,0,1,0,calibrating,0,0,0,0,0,0.0
2.3436077979986294,236,247.36,89.3,4.7,-36.7,-0.1,-3.09,1.49,0.01,0.95,-0.11,-76.6,-0.9,-4.0,-2.43,0.04,-0.01,0.0,0.9563994981178106,3.4319382278823145,0.0,0.0,2.0,0.45,0.6,1.2,100.0,1.0,0.18,0.02890115473151489,0.2,1.0,-160.0,0,1,0,calibrating,0,0,0,0,0,0.0
2.35218005599927,237,247.37,89.3,4.8,-36.4,-0.12,-3.16,1.58,0.0,0.95,-0.11,-76.6,-4.8,-36.0,-2.43,0.2,-0.1,0.0,0.9563472172804185,3.5350247523885883,0.0,0.0,2.0,0.45,0.6,1.2,100.0,1.0,0.18,0.02837436685752881,0.2,1.0,-160.0,0,1,0,calibrating,0,0,0,0,0,0.0
2.3636590099995374,238,247.38,89.3,5.0,-36.1,-0.08,-3.27,1.65,0.0,0.95,-0.1,-76.7,-10.5,-58.0,-2.43,0.39,0.03,0.0,0.95524865872714,3.6635774865560027,0.0,0.0,2.0,0.45,0.6,1.2,100.0,1.0,0.18,0.028883466902591137,0.2,1.0,-160.0,0,1,0,calibrating,0,0,0,0,0,0.0
2.372413371998846,239,247.39,89.3,5.2,-35.7,0.08,-3.42,1.66,0.01,0.96,-0.09,-76.9,-22.9,-114.0,-2.42,0.8,0.17,0.0,0.9642613753542137,3.802420281873112,0.0,0.0,2.0,0.45,0.6,1.2,100.0,1.0,0.18,0.019473335270007053,0.2,1.0,-160.0,0,1,0,calibrating,0,0,0,0,0,0.0
2.38346925299993,240,247.4,89.4,5.3,-35.4,0.49,-3.56,1.54,0.04,0.98,-0.08,-77.2,-33.1,-87.0,-2.41,0.98,0.0,0.0,0.9840731680114034,3.9096419273381033,0.0,0.0,2.0,0.45,0.6,1.2,100.0,1.0,0.18,0.0003316882394389653,0.2,1.0,-160.0,0,1,0,calibrating,0,0,0,0,0,0.0
2.392501803999039,241,247.41,89.5,5.5,-35.0,0.78,-3.57,1.32,0.07,1.01,-0.08,-77.6,-40.5,-86.0,-2.4,1.22,0.06,0.0,1.0155786527886455,3.885318519761282,0.0,0.0,2.0,0.45,0.6,1.2,100.0,1.0,0.18,0.031200429556347387,0.2,1.0,-160.0,0,1,0,calibrating,0,0,0,0,0,0.0
2.4037083819985128,242,247.42,89.7,5.6,-34.7,0.77,-3.43,1.09,0.06,1.01,-0.1,-78.1,-53.5,-137.0,-2.39,1.68,0.02,0.0,1.0167103815738285,3.68047551275647,0.0,0.0,2.0,0.45,0.6,1.2,100.0,1.0,0.18,0.03168551517469986,0.2,1.0,-160.0,0,1,0,calibrating,0,0,0,0,0,0.0
2.412422778999826,243,247.43,89.8,5.7,-34.3,0.64,-3.33,0.95,0.04,1.0,-0.09,-78.8,-73.7,-188.0,-2.37,2.27,0.26,0.0,1.0048382954485762,3.521505359927768,0.0,0.0,2.0,0.45,0.6,1.2,100.0,1.0,0.18,0.01941716046845854,0.2,1.0,-160.0,0,1,0,calibrating,0,0,0,0,0,0.0
2.423545846999332,244,247.44,89.9,5.7,-34.0,0.85,-3.36,0.89,0.04,0.97,-0.07,-79.6,-96.7,-218.0,-2.34,2.92,0.15,0.0,0.973344748791506,3.578295683701949,0.0,0.0,2.0,0.45,0.6,1.2,100.0,1.0,0.18,0.011834858464839337,0.2,1.0,-160.0,0,1,0,calibrating,0,0,0,0,0,0.0
2.4324927540001227,245,247.45,90.1,5.8,-33.6,1.44,-3.58,0.81,0.07,0.96,-0.05,-80.8,-118.7,-215.0,-2.31,3.49,0.03,0.0,0.9638464608017192,3.942854296065225,0.0,0.0,2.0,0.45,0.6,1.2,100.0,1.0,0.18,0.020906483525533592,0.2,1.0,-160.0,0,1,0,calibrating,0,0,0,0,0,0.0
2.4436850389993197,246,247.46,90.4,5.9,-33.3,1.98,-3.71,0.61,0.11,0.98,-0.05,-82.1,-139.1,-200.0,-2.27,4.0,0.27,0.0,0.9874208829065749,4.24930582566141,0.0,0.0,2.0,0.45,0.6,1.2,100.0,1.0,0.18,0.0026145798077357174,0.2,1.0,-160.0,0,1,0,calibrating,0,0,0,0,0,0.0
2.452315839000221,247,247.47,90.6,5.9,-32.9,2.2,-3.65,0.32,0.15,1.01,-0.06,-83.6,-153.7,-143.0,-2.22,4.29,0.07,0.0,1.022839185796086,4.273745429947835,0.0,0.0,2.0,0.45,0.6,1.2,100.0,1.0,0.18,0.03727222504330174,0.2,1.0,-160.0,0,1,0,calibrating,0,0,0,0,0,0.0
2.4637583610001457,248,247.48,90.9,6.0,-32.5,2.31,-3.36,0.0,0.18,1.03,-0.07,-85.2,-162.3,-91.0,-2.18,4.47,0.09,0.0,1.0479503805047259,4.077462446178996,0.0,0.0,2.0,0.45,0.6,1.2,100.0,1.0,0.18,0.06113575135690286,0.2,1.0,-160.0,0,1,0,calibrating,0,0,0,0,0,0.0
2.4723595439991186,249,247.49,91.2,6.0,-32.2,2.45,-2.94,-0.36,0.2,1.04,-0.05,-86.8,-162.5,-11.0,-2.14,4.37,-0.09,0.0,1.0602358228243376,3.8439172727830657,0.0,0.0,2.0,0.45,0.6,1.2,100.0,1.0,0.18,0.07195276980298426,0.2,1.0,-160.0,0,1,0,calibrating,0,0,0,0,0,0.0
2.4836705929992604,250,247.5,91.5,6.0,-31.9,2.85,-2.56,-0.8,0.21,1.04,-0.04,-88.4,-153.9,71.0,-2.09,4.02,0.03,0.0,1.0617438485811916,3.9135789247183967,0.0,0.0,2.0,0.45,0.6,1.2,100.0,1.0,0.18,0.07199157964864156,0.2,1.0,-160.0,0,1,0,calibrating,0,0,0,0,0,0.0
2.4922022959999595,251,247.51,91.9,5.9,-31.7,3.25,-2.14,-1.33,0.24,1.08,-0.04,-89.7,-141.5,115.0,-2.06,3.62,0.03,0.0,1.107068200247844,4.112298627288636,0.0,0.0,2.0,0.45,0.6,1.2,100.0,1.0,0.18,0.11496961268898787,0.2,1.0,-160.0,0,1,0,calibrating,0,0,0,0,0,0.0
2.5038034039989725,252,247.52,92.2,5.8,-31.5,3.27,-1.57,-1.83,0.26,1.15,-0.04,-91.1,-124.4,144.0,-2.02,3.18,0.01,0.0,1.179703352542494,4.062843831603671,0.0,0.0,2.0,0.45,0.6,1.2,100.0,1.0,0.18,0.1838526696839653,0.2,1.0,-160.0,0,1,0,calibrating,0,0,0,0,0,0.0
2.5123812159999943,253,247.53,92.6,5.7,-31.4,2.82,-1.07,-2.1,0.23,1.19,-0.05,-92.3,-109.9,127.0,-1.99,2.87,-0.13,0.0,1.2130539971493437,3.6752278840909987,0.0,0.0,2.0,0.45,0.6,1.2,100.0,1.0,0.18,0.21285924800499867,0.2,1.0,-160.0,0,1,0,calibrating,0,0,0,0,0,0.0
2.523600319000252,254,247.54,92.8,5.5,-31.3,2.07,-0.71,-2.1,0.12,1.18,-0.06,-93.3,-100.4,94.0,-1.97,2.66,0.03,0.0,1.1876026271442817,3.0329853280225407,0.0,0.0,2.0,0.45,0.6,1.2,100.0,1.0,0.18,0.18365972043993795,0.2,1.0,-160.0,0,1,0,calibrating,0,0,0,0,0,0.0
2.5323586729991803,255,247.55,93.0,5.3,-31.3,1.55,-0.58,-1.84,0.0,1.15,-0.04,-94.3,-98.0,34.0,-1.94,2.66,-0.01,0.0,1.1506954418958997,2.474772716836841,0.0,0.0,2.0,0.45,0.6,1.2,100.0,1.0,0.18,0.1438174844877249,0.2,1.0,-160.0,0,1,0,calibrating,0,0,0,0,0,0.0
2.5439425259992277,256,247.56,93.1,5.1,-31.2,1.42,-0.73,-1.37,-0.11,1.12,0.0,-95.3,-99.7,-11.0,-1.91,2.76,-0.1,0.0,1.1253888216967505,2.1038536070744085,0.0,0.0,2.0,0.45,0.6,1.2,100.0,1.0,0.18,0.11614064700280413,0.2,1.0,-160.0,0,1,0,calibrating,0,0,0,0,0,0.0
2.55217590599932,257,247.57,93.3,5.0,-31.1,1.47,-1.14,-0.84,-0.18,1.1,0.02,-96.3,-103.2,-25.0,-1.89,2.85,-0.05,0.0,1.1148094007497427,2.041102643180886,0.0,0.0,2.0,0.45,0.6,1.2,100.0,1.0,0.18,0.10345000153468042,0.2,1.0,-160.0,0,1,0,calibrating,0,0,0,0,0,0.0
2.563751264999155,258,247.58,93.4,4.9,-31.0,1.44,-1.66,-0.33,-0.21,1.1,0.05,-97.4,-106.6,-25.0,-1.86,2.92,0.21,0.0,1.120981712607302,2.222183610775671,0.0,0.0,2.0,0.45,0.6,1.2,100.0,1.0,0.18,0.10742986712439495,0.2,1.0,-160.0,0,1,0,calibrating,0,0,0,0,0,0.0
2.572375308000119,259,247.59,93.6,4.9,-30.8,1.35,-2.24,0.06,-0.2,1.08,0.06,-98.5,-110.1,-33.0,-1.83,3.03,-0.05,0.0,1.1,2.616046635669938,0.0,0.0,2.0,0.45,0.6,1.2,100.0,1.0,0.18,0.0847191914267511,0.2,1.0,-160.0,0,1,0,calibrating,0,0,0,0,0,0.0
2.5836622189999616,260,247.6,93.7,4.9,-30.5,1.23,-2.78,0.36,-0.17,1.05,0.07,-99.6,-112.1,-18.0,-1.8,3.05,-0.15,0.0,1.0659737332598773,3.0611925780649605,0.0,0.0,2.0,0.45,0.6,1.2,100.0,1.0,0.18,0.04967906619289586,0.2,1.0,-160.0,0,1,0,calibrating,0,0,0,0,0,0.0
2.5923778769993078,261,247.61,93.9,4.9,-30.2,1.16,-3.23,0.58,-0.11,1.02,0.08,-100.7,-111.7,7.0,-1.77,2.99,0.01,0.0,1.0290286682109493,3.480646491673637,0.0,0.0,2.0,0.45,0.6,1.2,100.0,1.0,0.18,0.012479321121088516,0.2,1.0,-160.0,0,1,0,calibrating,0,0,0,0,0,0.0
2.6037749369988887,262,247.62,94.0,5.0,-29.9,1.09,-3.52,0.76,-0.04,1.01,0.07,-101.8,-108.6,19.0,-1.74,2.92,-0.12,0.0,1.0132127121192271,3.762459302105473,0.0,0.0,2.0,0.45,0.6,1.2,100.0,1.0,0.18,0.003269902271221037,0.2,1.0,-160.0,0,1,0,calibrating,0,0,0,0,0,0.0
2.6123810110002523,263,247.63,94.2,5.0,-29.5,0.98,-3.66,0.85,0.0,0.99,0.09,-102.8,-103.7,50.0,-1.71,2.73,0.0,0.0,0.9940824915468535,3.883104428160541,0.0,0.0,2.0,0.45,0.6,1.2,100.0,1.0,0.18,0.021952120386722895,0.2,1.0,-160.0,0,1,0,calibrating,0,0,0,0,0,0.0
2.623601207998945,264,247.64,94.3,5.1,-29.1,0.82,-3.68,0.87,0.07,0.97,0.1,-103.8,-96.6,67.0,-1.68,2.52,-0.28,0.0,0.9776502442080194,3.869328107049078,0.0,0.0,2.0,0.45,0.6,1.2,100.0,1.0,0.18,0.03761668037104593,0.2,1.0,-160.0,0,1,0,calibrating,0,0,0,0,0,0.0
2.632354924999163,265,247.65,94.4,5.1,-28.8,0.6,-3.56,0.82,0.13,0.95,0.1,-104.7,-88.7,77.0,-1.66,2.3,-0.16,0.0,0.9640539403996023,3.7021615307817135,0.0,0.0,2.0,0.45,0.6,1.2,100.0,1.0,0.18,0.05018872449587375,0.2,1.0,-160.0,0,1,0,calibrating,0,0,0,0,0,0.0
2.6437706050000997,266,247.66,94.5,5.2,-28.4,0.33,-3.38,0.72,0.18,0.91,0.1,-105.6,-79.0,96.0,-1.64,2.0,-0.13,0.0,0.9330058949438638,3.471555847167088,0.0,0.0,2.0,0.45,0.6,1.2,100.0,1.0,0.18,0.07961203455258015,0.2,1.0,-160.0,0,1,0,calibrating,0,0,0,0,0,0.0
2.652123694999318,267,247.67,94.5,5.2,-28.1,0.19,-3.19,0.55,0.21,0.87,0.12,-106.3,-66.5,120.0,-1.62,1.64,-0.07,0.0,0.9029950165975447,3.2426378151128747,0.0,0.0,2.0,0.45,0.6,1.2,100.0,1.0,0.18,0.10743045464092127,0.2,1.0,-160.0,0,1,0,calibrating,0,0,0,0,0,0.0
2.6636189709988685,268,247.68,94.6,5.3,-27.8,0.12,-3.0,0.29,0.22,0.83,0.12,-106.8,-51.5,143.0,-1.61,1.21,-0.16,0.0,0.8670063436907482,3.0163719929743413,0.0,0.0,2.0,0.45,0.6,1.2,100.0,1.0,0.18,0.14055074499676334,0.2,1.0,-160.0,0,1,0,calibrating,0,0,0,0,0,0.0
2.6724583719988004,269,247.69,94.6,5.2,-27.5,0.19,-2.74,0.0,0.22,0.82,0.12,-107.3,-37.8,139.0,-1.6,0.84,-0.09,0.0,0.8574380444090406,2.746579691179559,0.0,0.0,2.0,0.45,0.6,1.2,100.0,1.0,0.18,0.14711666339290153,0.2,1.0,-160.0,0,1,0,calibrating,0,0,0,0,0,0.0
2.683611110998754,270,247.7,94.7,5.2,-27.2,0.29,-2.44,-0.22,0.22,0.83,0.11,-107.5,-21.4,145.0,-1.59,0.43,-0.14,0.0,0.8656789243131658,2.467002229427448,0.0,0.0,2.0,0.45,0.6,1.2,100.0,1.0,0.18,0.1360982678190007,0.2,1.0,-160.0,0,1,0,calibrating,0,0,0,0,0,0.0
2.6921038389991736,271,247.71,94.7,5.2,-27.0,0.36,-2.06,-0.33,0.21,0.86,0.09,-107.6,-8.8,131.0,-1.59,0.09,-0.02,0.0,0.889831444712986,2.117097069101934,0.0,0.0,2.0,0.45,0.6,1.2,100.0,1.0,0.18,0.10970683247079693,0.2,1.0,-160.0,0,1,0,calibrating,0,0,0,0,0,0.0
2.703753219999271,272,247.72,94.8,5.1,-26.8,0.46,-1.73,-0.3,0.18,0.9,0.09,-107.7,0.1,92.0,-1.59,-0.06,0.0,0.0,0.9222255689363639,1.8150757559947739,0.0,0.0,2.0,0.45,0.6,1.2,100.0,1.0,0.18,0.07576645408247074,0.2,1.0,-160.0,0,1,0,calibrating,0,0,0,0,0,0.0
2.7124278239989508,273,247.73,94.8,5.1,-26.7,0.49,-1.54,-0.19,0.15,0.95,0.1,-107.6,1.3,23.0,-1.59,-0.01,-0.08,0.0,0.9669539802906858,1.627206194678474,0.0,0.0,2.0,0.45,0.6,1.2,100.0,1.0,0.18,0.030417281873585833,0.2,1.0,-160.0,0,1,0,calibrating,0,0,0,0,0,0.0
2.723491707998619,274,247.74,94.9,5.0,-26.5,0.41,-1.48,-0.1,0.12,0.97,0.09,-107.6,-0.6,-7.0,-1.59,0.04,0.02,0.0,0.9815294188153506,1.5389931773727912,0.0,0.0,2.0,0.45,0.6,1.2,100.0,1.0,0.18,0.01552500648194266,0.2,1.0,-160.0,0,1,0,calibrating,0,0,0,0,0,0.0
2.732347511999251,275,247.75,95.0,5.0,-26.4,0.34,-1.48,-0.1,0.09,0.98,0.07,-107.7,-0.1,11.0,-1.59,-0.02,0.0,0.0,0.986610358753647,1.5218409903797439,0.0,0.0,2.0,0.45,0.6,1.2,100.0,1.0,0.18,0.010235185212773334,0.2,1.0,-160.0,0,1,0,calibrating,0,0,0,0,0,0.0
2.7437957099991763,276,247.76,95.0,5.0,-26.2,0.28,-1.55,-0.12,0.08,0.99,0.03,-107.7,0.3,-4.0,-1.59,0.01,-0.08,0.0,0.9936800289831732,1.5796518603793686,0.0,0.0,2.0,0.45,0.6,1.2,100.0,1.0,0.18,0.0031022046835821326,0.2,1.0,-160.0,0,1,0,calibrating,0,0,0,0,0,0.0
2.7523515619996033,277,247.77,95.0,5.0,-26.1,0.43,-1.53,-0.1,0.07,1.0,0.01,-107.7,-0.2,0.0,-1.59,0.0,0.16,0.0,1.002496882788171,1.5924195427085162,0.0,0.0,2.0,0.45,0.6,1.2,100.0,1.0,0.18,0.005600356138987461,0.2,1.0,-160.0,0,1,0,calibrating,0,0,0,0,0,0.0
2.763571931000115,278,247.78,95.0,4.9,-25.9,0.7,-1.5,0.0,0.07,1.03,0.0,-107.7,0.0,2.0,-1.59,0.0,0.14,0.0,1.0323759005323594,1.6552945357246849,0.0,0.0,2.0,0.45,0.6,1.2,100.0,1.0,0.18,0.034769786405512315,0.2,1.0,-160.0,0,1,0,calibrating,0,0,0,0,0,0.0
2.772445302998676,279,247.79,95.1,4.9,-25.8,0.91,-1.49,0.16,0.09,1.06,-0.02,-107.7,0.0,-1.0,-1.59,0.01,-0.06,0.0,1.0640018796975879,1.7532255987179743,0.0,0.0,2.0,0.45,0.6,1.2,100.0,1.0,0.18,0.06506785025932593,0.2,1.0,-160.0,0,1,0,calibrating,0,0,0,0,0,0.0
2.7836096139999427,280,247.8,95.1,5.0,-25.6,0.94,-1.36,0.34,0.12,1.1,-0.05,-107.7,-0.7,-4.0,-1.59,0.03,0.27,0.0,1.1076551810017412,1.6878388548673715,0.0,0.0,2.0,0.45,0.6,1.2,100.0,1.0,0.18,0.1065467285322097,0.2,1.0,-160.0,0,1,0,calibrating,0,0,0,0,0,0.0
2.792123630999413,281,247.81,95.2,5.0,-25.5,0.78,-1.16,0.47,0.14,1.14,-0.08,-107.7,-1.5,-8.0,-1.59,0.06,0.0,0.0,1.1513470371699404,1.4747542168103809,0.0,0.0,2.0,0.45,0.6,1.2,100.0,1.0,0.18,0.1472338130064006,0.2,1.0,-160.0,0,1,0,calibrating,0,0,0,0,0,0.0
2.8037355719989137,282,247.82,95.3,5.1,-25.4,0.57,-0.9,0.61,0.14,1.16,-0.09,-107.7,-4.8,-34.0,-1.59,0.19,0.0,0.0,1.1718788333270638,1.2275992831539126,0.0,0.0,2.0,0.45,0.6,1.2,100.0,1.0,0.18,0.16441029698025345,0.2,1.0,-160.0,0,1,0,calibrating,0,0,0,0,0,0.0
2.8123721209994983,283,247.83,95.3,5.2,-25.3,0.42,-0.7,0.79,0.15,1.16,-0.08,-107.8,-9.2,-30.0,-1.59,0.26,0.0,0.0,1.1723907198540937,1.136001760562016,0.0,0.0,2.0,0.45,0.6,1.2,100.0,1.0,0.18,0.16162373983713763,0.2,1.0,-160.0,0,1,0,calibrating,0,0,0,0,0,0.0
2.823709553998924,284,247.84,95.4,5.3,-25.2,0.24,-0.58,0.98,0.14,1.15,-0.08,-107.9,-11.6,-42.0,-1.58,0.41,0.18,0.0,1.1612493272333895,1.1637869220780923,0.0,0.0,2.0,0.45,0.6,1.2,100.0,1.0,0.18,0.1474727002721048,0.2,1.0,-160.0,0,1,0,calibrating,0,0,0,0,0,0.0
2.832239354998819,285,247.85,95.4,5.4,-25.2,0.03,-0.54,1.11,0.13,1.12,-0.07,-108.1,-20.4,-80.0,-1.58,0.67,0.06,0.0,1.1296902230257637,1.2347469376354008,0.0,0.0,2.0,0.45,0.6,1.2,100.0,1.0,0.18,0.11359532414318974,0.2,1.0,-160.0,0,1,0,calibrating,0,0,0,0,0,0.0
2.843724137999743,286,247.86,95.3,5.5,-25.1,-0.16,-0.55,1.19,0.13,1.09,-0.07,-108.3,-30.5,-92.0,-1.57,0.94,0.23,0.0,1.0999545445153631,1.3206816421833083,0.0,0.0,2.0,0.45,0.6,1.2,100.0,1.0,0.18,0.08218245272013336,0.2,1.0,-160.0,0,1,0,calibrating,0,0,0,0,0,0.0
2.852406138999868,287,247.87,95.3,5.6,-25.0,-0.41,-0.54,1.21,0.14,1.06,-0.07,-108.7,-39.1,-80.0,-1.56,1.14,0.11,0.0,1.0714942836991712,1.3870111751532501,0.0,0.0,2.0,0.45,0.6,1.2,100.0,1.0,0.18,0.052647748065862476,0.2,1.0,-160.0,0,1,0,calibrating,0,0,0,0,0,0.0
2.8636310799993225,288,247.88,95.3,5.8,-25.0,-0.66,-0.5,1.2,0.14,1.03,-0.07,-109.1,-44.4,-58.0,-1.54,1.26,-0.11,0.0,1.0418253212511202,1.4579437574886076,0.0,0.0,2.0,0.45,0.6,1.2,100.0,1.0,0.18,0.022519209905455195,0.2,1.0,-160.0,0,1,0,calibrating,0,0,0,0,0,0.0
2.872361789999559,289,247.89,95.2,5.9,-24.9,-0.81,-0.5,1.17,0.14,1.01,-0.06,-109.6,-49.1,-49.0,-1.53,1.39,-0.17,0.0,1.0214205793893132,1.5083103128998356,0.0,0.0,2.0,0.45,0.6,1.2,100.0,1.0,0.18,0.0020721786827753164,0.2,1.0,-160.0,0,1,0,calibrating,0,0,0,0,0,0.0
2.883902665998903,290,247.9,95.1,6.0,-24.9,-0.9,-0.43,1.16,0.14,0.98,-0.06,-110.1,-51.8,-24.0,-1.52,1.41,0.09,0.0,0.991766101457395,1.529869275461142,0.0,0.0,2.0,0.45,0.6,1.2,100.0,1.0,0.18,0.0270306532641601,0.2,1.0,-160.0,0,1,0,calibrating,0,0,0,0,0,0.0
2.8921016120002605,291,247.91,95.0,6.2,-24.8,-0.97,-0.37,1.11,0.14,0.96,-0.05,-110.6,-49.8,9.0,-1.5,1.32,-0.01,0.0,0.9714422267947795,1.519835517416276,0.0,0.0,2.0,0.45,0.6,1.2,100.0,1.0,0.18,0.046407437368239934,0.2,1.0,-160.0,0,1,0,calibrating,0,0,0,0,0,0.0
2.9036012079996,292,247.92,94.9,6.3,-24.8,-1.03,-0.33,1.04,0.14,0.93,-0.06,-111.1,-45.9,32.0,-1.49,1.19,-0.05,0.0,0.9423905772024677,1.5004665940966497,0.0,0.0,2.0,0.45,0.6,1.2,100.0,1.0,0.18,0.07394990522134082,0.2,1.0,-160.0,0,1,0,calibrating,0,0,0,0,0,0.0
2.912452074999237,293,247.93,94.7,6.4,-24.7,-1.1,-0.29,0.96,0.14,0.91,-0.07,-111.5,-38.4,72.0,-1.48,0.91,0.07,0.0,0.9233634170791044,1.4885227576359052,0.0,0.0,2.0,0.45,0.6,1.2,100.0,1.0,0.18,0.09111752403781004,0.2,1.0,-160.0,0,1,0,calibrating,0,0,0,0,0,0.0
2.9235929709993798,294,247.94,94.6,6.5,-24.7,-1.13,-0.24,0.86,0.15,0.9,-0.07,-111.8,-28.7,83.0,-1.47,0.67,0.09,0.0,0.9150956234186677,1.4401736006468109,0.0,0.0,2.0,0.45,0.6,1.2,100.0,1.0,0.18,0.09739761134428193,0.2,1.0,-160.0,0,1,0,calibrating,0,0,0,0,0,0.0
2.932283619998998,295,247.95,94.5,6.7,-24.7,-1.13,-0.18,0.75,0.15,0.9,-0.07,-112.1,-19.4,95.0,-1.47,0.4,0.0,0.0,0.9150956234186677,1.3681374199984444,0.0,0.0,2.0,0.45,0.6,1.2,100.0,1.0,0.18,0.09544965911739622,0.2,1.0,-160.0,0,1,0,calibrating,0,0,0,0,0,0.0
2.943782614000156,296,247.96,94.4,6.8,-24.6,-1.12,-0.16,0.66,0.15,0.9,-0.06,-112.2,-9.6,92.0,-1.47,0.16,-0.01,0.0,0.9143850392476902,1.3098091464026353,0.0,0.0,2.0,0.45,0.6,1.2,100.0,1.0,0.18,0.09423703842260611,0.2,1.0,-160.0,0,1,0,calibrating,0,0,0,0,0,0.0
2.952414380999471,297,247.97,94.3,6.8,-24.6,-1.13,-0.15,0.56,0.16,0.91,-0.06,-112.2,-2.1,74.0,-1.47,-0.01,0.16,0.0,0.9259049627256569,1.2700393694685215,0.0,0.0,2.0,0.45,0.6,1.2,100.0,1.0,0.18,0.08106277264574657,0.2,1.0,-160.0,0,1,0,calibrating,0,0,0,0,0,0.0
2.9636697890000505,298,247.98,94.2,6.9,-24.6,-1.11,-0.13,0.42,0.17,0.91,-0.06,-112.2,1.6,36.0,-1.47,-0.03,-0.01,0.0,0.9276852914647296,1.193901168438996,0.0,0.0,2.0,0.45,0.6,1.2,100.0,1.0,0.18,0.07769679502854066,0.2,1.0,-160.0,0,1,0,calibrating,0,0,0,0,0,0.0
2.9722493039989786,299,247.99,94.1,7.0,-24.6,-1.12,-0.14,0.28,0.18,0.91,-0.06,-112.2,0.6,2.0,-1.47,0.0,-0.3,0.0,0.9295697929687691,1.1629273408085306,0.0,0.0,2.0,0.45,0.6,1.2,100.0,1.0,0.18,0.07429604765401099,0.2,1.0,-160.0,0,1,0,calibrating,0,0,0,0,0,0.0
2.9837508450000314,300,248.0,94.0,7.1,-24.6,-1.09,-0.05,0.12,0.19,0.9,-0.07,-112.2,0.0,0.0,-1.47,0.0,0.07,0.0,0.922496612459905,1.0977249200050074,0.0,0.0,2.0,0.45,0.6,1.2,100.0,1.0,0.18,0.07974184359961756,0.2,1.0,-160.0,0,1,0,calibrating,0,0,0,0,0,0.0
2.991793458999382,301,248.01,93.9,7.1,-24.6,-1.11,0.07,-0.01,0.19,0.9,-0.08,-112.2,0.1,6.0,-1.47,-0.03,-0.05,0.0,0.9233092656309694,1.1122499719037984,0.0,0.0,2.0,0.45,0.6,1.2,100.0,1.0,0.18,0.07735060661998205,0.2,1.0,-160.0,0,1,0,calibrating,0,0,0,0,0,0.0
3.0036553619993356,302,248.02,93.8,7.2,-24.6,-1.05,0.18,-0.13,0.18,0.9,-0.08,-112.2,1.8,9.0,-1.47,-0.05,-0.05,0.0,0.9213034245024817,1.0732194556566703,0.0,0.0,2.0,0.45,0.6,1.2,100.0,1.0,0.18,0.07776931879350035,0.2,1.0,-160.0,0,1,0,calibrating,0,0,0,0,0,0.0
3.012432434999937,303,248.03,93.7,7.2,-24.6,-1.0,0.27,-0.23,0.17,0.91,-0.08,-112.2,1.5,-1.0,-1.47,-0.03,0.01,0.0,0.9291931984253867,1.061037228376083,0.0,0.0,2.0,0.45,0.6,1.2,100.0,1.0,0.18,0.06848195397318346,0.2,1.0,-160.0,0,1,0,calibrating,0,0,0,0,0,0.0
3.0237354109995067,304,248.04,93.6,7.2,-24.6,-0.97,0.33,-0.33,0.16,0.92,-0.09,-112.2,0.3,-10.0,-1.47,0.01,-0.14,0.0,0.9381364506296512,1.076429282396201,0.0,0.0,2.0,0.45,0.6,1.2,100.0,1.0,0.18,0.05834792773354058,0.2,1.0,-160.0,0,1,0,calibrating,0,0,0,0,0,0.0
3.032418961998701,305,248.05,93.5,7.2,-24.7,-1.0,0.38,-0.41,0.15,0.94,-0.1,-112.2,0.1,1.0,-1.47,-0.01,0.0,0.0,0.9571311299921239,1.14564392373896,0.0,0.0,2.0,0.45,0.6,1.2,100.0,1.0,0.18,0.03856618340364659,0.2,1.0,-160.0,0,1,0,calibrating,0,0,0,0,0,0.0
3.0442707219990552,306,248.06,93.5,7.2,-24.7,-1.07,0.44,-0.51,0.16,0.95,-0.11,-112.2,0.2,2.0,-1.47,-0.01,-0.15,0.0,0.969639108122192,1.2643575443678896,0.0,0.0,2.0,0.45,0.6,1.2,100.0,1.0,0.18,0.025537041168106955,0.2,1.0,-160.0,0,1,0,calibrating,0,0,0,0,0,0.0
3.0523897369985207,307,248.07,93.4,7.1,-24.8,-1.16,0.52,-0.6,0.15,0.97,-0.11,-112.2,0.5,0.0,-1.47,0.0,-0.21,0.0,0.987674035297071,1.4057026712644463,0.0,0.0,2.0,0.45,0.6,1.2,100.0,1.0,0.18,0.007352071713363384,0.2,1.0,-160.0,0,1,0,calibrating,0,0,0,0,0,0.0
3.064403061998746,308,248.08,93.3,7.1,-24.8,-1.21,0.6,-0.67,0.15,0.97,-0.1,-112.2,-0.1,-5.0,-1.47,0.0,0.22,0.0,0.986610358753647,1.5076471735787522,0.0,0.0,2.0,0.45,0.6,1.2,100.0,1.0,0.18,0.008247433291651673,0.2,1.0,-160.0,0,1,0,calibrating,0,0,0,0,0,0.0
3.0723657379985525,309,248.09,93.2,7.0,-24.9,-1.21,0.68,-0.72,0.14,0.97,-0.1,-112.2,0.0,1.0,-1.47,0.0,-0.06,0.0,0.9851395840184273,1.5636176003102549,0.0,0.0,2.0,0.45,0.6,1.2,100.0,1.0,0.18,0.00952384386633398,0.2,1.0,-160.0,0,1,0,calibrating,0,0,0,0,0,0.0
3.0837925269988773,310,248.1,93.1,7.0,-25.0,-1.14,0.72,-0.76,0.13,0.96,-0.1,-112.2,-0.1,-5.0,-1.47,0.01,-0.14,0.0,0.973909646733207,1.5477725931156683,0.0,0.0,2.0,0.45,0.6,1.2,100.0,1.0,0.18,0.020338705528523127,0.2,1.0,-160.0,0,1,0,calibrating,0,0,0,0,0,0.0
3.0962456420002127,311,248.11,93.0,6.9,-25.0,-1.01,0.76,-0.8,0.13,0.95,-0.11,-112.2,0.3,4.0,-1.47,-0.01,0.06,0.0,0.9651424765287248,1.495894381298359,0.0,0.0,2.0,0.45,0.6,1.2,100.0,1.0,0.18,0.028523758218345296,0.2,1.0,-160.0,0,1,0,calibrating,0,0,0,0,0,0.0
3.104249901000003,312,248.12,92.9,6.8,-25.1,-0.88,0.76,-0.84,0.12,0.95,-0.11,-112.2,-0.3,-2.0,-1.47,0.0,0.15,0.0,0.9638464608017192,1.4344336861632885,0.0,0.0,2.0,0.45,0.6,1.2,100.0,1.0,0.18,0.02922337846644385,0.2,1.0,-160.0,0,1,0,calibrating,0,0,0,0,0,0.0
3.11242091999884,313,248.13,92.9,6.8,-25.2,-0.76,0.78,-0.88,0.12,0.96,-0.11,-112.2,0.0,1.0,-1.47,0.0,0.0,0.0,0.9737042672187485,1.400142849854971,0.0,0.0,2.0,0.45,0.6,1.2,100.0,1.0,0.18,0.018978260608426334,0.2,1.0,-160.0,0,1,0,calibrating,0,0,0,0,0,0.0
3.1237166589999106,314,248.14,92.8,6.7,-25.3,-0.71,0.82,-0.9,0.13,0.97,-0.11,-112.2,-0.5,0.0,-1.47,0.0,-0.07,0.0,0.9848350115628506,1.409432509913121,0.0,0.0,2.0,0.45,0.6,1.2,100.0,1.0,0.18,0.007690565939037719,0.2,1.0,-160.0,0,1,0,calibrating,0,0,0,0,0,0.0
3.132129655999961,315,248.15,92.8,6.6,-25.4,-0.69,0.89,-0.91,0.13,0.97,-0.1,-112.2,-0.1,1.0,-1.47,0.0,0.06,0.0,0.9837682653958706,1.4478604905169559,0.0,0.0,2.0,0.45,0.6,1.2,100.0,1.0,0.18,0.008582165863897373,0.2,1.0,-160.0,0,1,0,calibrating,0,0,0,0,0,0.0
3.143709668000156,316,248.16,92.7,6.5,-25.5,-0.62,0.97,-0.9,0.13,0.97,-0.09,-112.2,-0.4,-6.0,-1.47,0.03,0.0,0.0,0.9828021163998376,1.4612665739008746,0.0,0.0,2.0,0.45,0.6,1.2,100.0,1.0,0.18,0.009357348562731738,0.2,1.0,-160.0,0,1,0,calibrating,0,0,0,0,0,0.0
3.1523038579998683,317,248.17,92.7,6.5,-25.6,-0.57,1.02,-0.86,0.13,0.97,-0.09,-112.2,-1.9,-8.0,-1.47,0.05,-0.03,0.0,0.9828021163998376,1.4508273501695506,0.0,0.0,2.0,0.45,0.6,1.2,100.0,1.0,0.18,0.009170201591477078,0.2,1.0,-160.0,0,1,0,calibrating,0,0,0,0,0,0.0
3.1637001639992377,318,248.18,92.6,6.4,-25.7,-0.51,1.04,-0.82,0.13,0.95,-0.09,-112.2,-1.8,-5.0,-1.47,0.06,-0.05,0.0,0.9630680142129111,1.419189909772473,0.0,0.0,2.0,0.45,0.6,1.2,100.0,1.0,0.18,0.0283262177028355,0.2,1.0,-160.0,0,1,0,calibrating,0,0,0,0,0,0.0
3.1722033219994046,319,248.19,92.6,6.3,-25.8,-0.4,1.09,-0.78,0.13,0.94,-0.09,-112.2,-4.2,-27.0,-1.46,0.18,-0.01,0.0,0.9532051195833979,1.3987494414654829,0.0,0.0,2.0,0.45,0.6,1.2,100.0,1.0,0.18,0.0374253300857017,0.2,1.0,-160.0,0,1,0,calibrating,0,0,0,0,0,0.0
3.1837168729998666,320,248.2,92.6,6.3,-25.9,-0.32,1.12,-0.74,0.14,0.94,-0.08,-112.3,-10.9,-59.0,-1.46,0.38,0.18,0.0,0.9537295214053091,1.3800000000000001,0.0,0.0,2.0,0.45,0.6,1.2,100.0,1.0,0.18,0.03616290969851477,0.2,1.0,-160.0,0,1,0,calibrating,0,0,0,0,0,0.0
3.1923537379989284,321,248.21,92.6,6.3,-26.0,-0.21,1.16,-0.73,0.14,0.94,-0.08,-112.5,-15.7,-38.0,-1.46,0.45,0.02,0.0,0.9537295214053091,1.386578522839583,0.0,0.0,2.0,0.45,0.6,1.2,100.0,1.0,0.18,0.03543965150454442,0.2,1.0,-160.0,0,1,0,calibrating,0,0,0,0,0,0.0
3.203751871998975,322,248.22,92.6,6.2,-26.1,-0.14,1.19,-0.68,0.14,0.94,-0.09,-112.7,-18.7,-37.0,-1.45,0.56,0.05,0.0,0.9546203433826455,1.3777155003846042,0.0,0.0,2.0,0.45,0.6,1.2,100.0,1.0,0.18,0.03385785293666388,0.2,1.0,-160.0,0,1,0,calibrating,0,0,0,0,0,0.0
3.212351359999957,323,248.23,92.6,6.2,-26.2,-0.05,1.25,-0.64,0.14,0.93,-0.1,-112.9,-24.7,-55.0,-1.44,0.75,0.09,0.0,0.9457801012920498,1.4052046114356442,0.0,0.0,2.0,0.45,0.6,1.2,100.0,1.0,0.18,0.04184413312671431,0.2,1.0,-160.0,0,1,0,calibrating,0,0,0,0,0,0.0
3.22378698600005,324,248.24,92.6,6.1,-26.4,0.03,1.29,-0.61,0.14,0.92,-0.11,-113.2,-32.3,-80.0,-1.44,1.01,0.05,0.0,0.9370699013414101,1.4272701215957686,0.0,0.0,2.0,0.45,0.6,1.2,100.0,1.0,0.18,0.049543246415806985,0.2,1.0,-160.0,0,1,0,calibrating,0,0,0,0,0,0.0
3.23224087699964,325,248.25,92.6,6.1,-26.5,0.17,1.37,-0.62,0.15,0.91,-0.12,-113.6,-42.1,-87.0,-1.42,1.25,0.08,0.0,0.9300537618869137,1.5133406754594287,0.0,0.0,2.0,0.45,0.6,1.2,100.0,1.0,0.18,0.055428198152897235,0.2,1.0,-160.0,0,1,0,calibrating,0,0,0,0,0,0.0
3.2438487879990134,326,248.26,92.7,6.1,-26.7,0.31,1.49,-0.67,0.17,0.91,-0.15,-114.0,-49.1,-62.0,-1.41,1.38,0.07,0.0,0.9378166132032425,1.6628589837986865,0.0,0.0,2.0,0.45,0.6,1.2,100.0,1.0,0.18,0.04671203989983719,0.2,1.0,-160.0,0,1,0,calibrating,0,0,0,0,0,0.0
3.2524232670002675,327,248.27,92.7,6.0,-26.8,0.41,1.67,-0.74,0.19,0.91,-0.17,-114.6,-52.2,-43.0,-1.4,1.46,-0.13,0.0,0.9450396817065408,1.8720576914187232,0.0,0.0,2.0,0.45,0.6,1.2,100.0,1.0,0.18,0.03869919196860805,0.2,1.0,-160.0,0,1,0,calibrating,0,0,0,0,0,0.0
3.2637380349988234,328,248.28,92.7,5.9,-27.0,0.5,1.93,-0.79,0.2,0.91,-0.18,-115.1,-57.1,-51.0,-1.38,1.62,0.14,0.0,0.9489467845985886,2.144527920079382,0.0,0.0,2.0,0.45,0.6,1.2,100.0,1.0,0.18,0.034096247295029025,0.2,1.0,-160.0,0,1,0,calibrating,0,0,0,0,0,0.0
3.272276489999058,329,248.29,92.7,5.9,-27.2,0.65,2.25,-0.78,0.22,0.94,-0.18,-115.7,-64.2,-66.0,-1.36,1.84,-0.02,0.0,0.9820386957752734,2.4684813144927795,0.0,0.0,2.0,0.45,0.6,1.2,100.0,1.0,0.18,0.0009842493959774101,0.2,1.0,-160.0,0,1,0,calibrating,0,0,0,0,0,0.0
3.283746352999515,330,248.3,92.8,5.8,-27.5,0.81,2.64,-0.64,0.21,1.0,-0.17,-116.4,-73.2,-86.0,-1.34,2.09,-0.1,0.0,1.0358571330062847,2.8346604734959002,0.0,0.0,2.0,0.45,0.6,1.2,100.0,1.0,0.18,0.05177750407833326,0.2,1.0,-160.0,0,1,0,calibrating,0,0,0,0,0,0.0
3.2924173549999978,331,248.31,92.9,5.8,-27.8,0.99,3.03,-0.44,0.19,1.03,-0.15,-117.2,-81.8,-83.0,-1.32,2.32,-0.05,0.0,1.0580642702596095,3.217856429364119,0.0,0.0,2.0,0.45,0.6,1.2,100.0,1.0,0.18,0.07250494850502487,0.2,1.0,-160.0,0,1,0,calibrating,0,0,0,0,0,0.0
3.3035950579997007,332,248.32,92.9,5.7,-28.1,1.03,3.27,-0.19,0.17,1.05,-0.13,-118.1,-89.8,-82.0,-1.29,2.54,-0.2,0.0,1.0715876072445034,3.433642380912724,0.0,0.0,2.0,0.45,0.6,1.2,100.0,1.0,0.18,0.08430771978012042,0.2,1.0,-160.0,0,1,0,calibrating,0,0,0,0,0,0.0
3.312350358999538,333,248.33,93.0,5.8,-28.4,1.05,3.38,0.04,0.15,1.04,-0.12,-119.1,-99.5,-89.0,-1.27,2.8,-0.15,0.0,1.0575916035975323,3.5395621198108667,0.0,0.0,2.0,0.45,0.6,1.2,100.0,1.0,0.18,0.06890548181048639,0.2,1.0,-160.0,0,1,0,calibrating,0,0,0,0,0,0.0
3.323738580000281,334,248.34,93.2,5.8,-28.7,1.15,3.36,0.21,0.14,0.99,-0.11,-120.1,-106.3,-72.0,-1.24,2.98,0.03,0.0,1.0058826969383656,3.5575553403987965,0.0,0.0,2.0,0.45,0.6,1.2,100.0,1.0,0.18,0.01685264364829331,0.2,1.0,-160.0,0,1,0,calibrating,0,0,0,0,0,0.0
3.332266849000007,335,248.35,93.3,5.9,-29.1,1.35,3.21,0.29,0.13,0.96,-0.1,-121.2,-114.0,-81.0,-1.21,3.21,-0.02,0.0,0.973909646733207,3.494381204161904,0.0,0.0,2.0,0.45,0.6,1.2,100.0,1.0,0.18,0.014817998425727952,0.2,1.0,-160.0,0,1,0,calibrating,0,0,0,0,0,0.0
3.343754321000233,336,248.36,93.4,6.0,-29.4,1.58,3.1,0.37,0.12,0.97,-0.1,-122.4,-121.5,-71.0,-1.17,3.37,0.04,0.0,0.9824968193332739,3.4990427262324193,0.0,0.0,2.0,0.45,0.6,1.2,100.0,1.0,0.18,0.0061062093091478475,0.2,1.0,-160.0,0,1,0,calibrating,0,0,0,0,0,0.0
3.3524603079986264,337,248.37,93.6,6.0,-29.7,1.78,3.04,0.52,0.11,1.01,-0.09,-123.7,-128.7,-76.0,-1.14,3.6,0.05,0.0,1.0199509792141974,3.560954928105662,0.0,0.0,2.0,0.45,0.6,1.2,100.0,1.0,0.18,0.03072099156034014,0.2,1.0,-160.0,0,1,0,calibrating,0,0,0,0,0,0.0
3.363646379999409,338,248.38,93.7,6.1,-30.0,1.9,3.01,0.71,0.08,1.05,-0.07,-125.0,-135.1,-58.0,-1.1,3.72,0.03,0.0,1.0553672346628922,3.629628080120606,0.0,0.0,2.0,0.45,0.6,1.2,100.0,1.0,0.18,0.0648145020688542,0.2,1.0,-160.0,0,1,0,calibrating,0,0,0,0,0,0.0
3.372488789998897,339,248.39,93.9,6.2,-30.3,1.89,2.89,0.89,0.05,1.09,-0.05,-126.4,-139.8,-53.0,-1.06,3.86,-0.09,0.0,1.092291169972549,3.5659921480564143,0.0,0.0,2.0,0.45,0.6,1.2,100.0,1.0,0.18,0.09970366863094082,0.2,1.0,-160.0,0,1,0,calibrating,0,0,0,0,0,0.0
3.3836865089997445,340,248.4,94.0,6.3,-30.6,1.72,2.7,1.05,0.02,1.12,-0.03,-127.8,-144.1,-48.0,-1.02,3.98,0.05,0.0,1.1205802068571442,3.3691096746766793,0.0,0.0,2.0,0.45,0.6,1.2,100.0,1.0,0.18,0.1254328514052253,0.2,1.0,-160.0,0,1,0,calibrating,0,0,0,0,0,0.0
3.3925167769994005,341,248.41,94.1,6.4,-30.8,1.47,2.46,1.23,0.0,1.15,-0.02,-129.3,-149.5,-59.0,-0.98,4.15,0.06,0.0,1.1501738998951418,3.118557358779857,0.0,0.0,2.0,0.45,0.6,1.2,100.0,1.0,0.18,0.15192601355435853,0.2,1.0,-160.0,0,1,0,calibrating,0,0,0,0,0,0.0
3.4035780260001047,342,248.42,94.3,6.5,-31.0,1.28,2.2,1.47,-0.01,1.19,0.01,-130.9,-157.8,-77.0,-0.94,4.39,0.17,0.0,1.1900840306465759,2.9392686165098962,0.0,0.0,2.0,0.45,0.6,1.2,100.0,1.0,0.18,0.18799942141967674,0.2,1.0,-160.0,0,1,0,calibrating,0,0,0,0,0,0.0
3.412430050999319,343,248.43,94.4,6.7,-31.2,1.12,1.92,1.69,-0.02,1.18,0.02,-132.5,-166.8,-84.0,-0.89,4.63,0.0,0.0,1.18033893437436,2.7922929645723062,0.0,0.0,2.0,0.45,0.6,1.2,100.0,1.0,0.18,0.17468923864451158,0.2,1.0,-160.0,0,1,0,calibrating,0,0,0,0,0,0.0
3.42370734799988,344,248.44,94.4,6.9,-31.4,1.12,1.41,1.87,-0.02,1.15,0.03,-134.2,-176.4,-89.0,-0.85,4.9,0.01,0.0,1.1505650785592267,2.59603543889524,0.0,0.0,2.0,0.45,0.6,1.2,100.0,1.0,0.18,0.14201707517279094,0.2,1.0,-160.0,0,1,0,calibrating,0,0,0,0,0,0.0
3.4323920539991377,345,248.45,94.5,7.1,-31.5,1.07,0.91,1.86,0.0,1.08,0.02,-136.1,-184.3,-77.0,-0.79,5.08,0.11,0.0,1.080185169311262,2.33079385617862,0.0,0.0,2.0,0.45,0.6,1.2,100.0,1.0,0.18,0.07020442260632942,0.2,1.0,-160.0,0,1,0,calibrating,0,0,0,0,0,0.0
3.443654542999866,346,248.46,94.6,7.3,-31.5,0.96,0.5,1.68,0.06,1.01,0.0,-137.9,-188.9,-46.0,-0.74,5.16,-0.05,0.0,1.0117806086301517,1.998499437077729,0.0,0.0,2.0,0.45,0.6,1.2,100.0,1.0,0.18,0.0017638646867146335,0.2,1.0,-160.0,0,1,0,calibrating,0,0,0,0,0,0.0
3.451817489998575,347,248.47,94.7,7.4,-31.6,1.02,0.33,1.46,0.14,0.98,-0.02,-139.9,-191.7,-35.0,-0.69,5.24,0.15,0.0,0.990151503558925,1.8113254815189896,0.0,0.0,2.0,0.45,0.6,1.2,100.0,1.0,0.18,0.019467935576821915,0.2,1.0,-160.0,0,1,0,calibrating,0,0,0,0,0,0.0
3.4635934849993646,348,248.48,94.8,7.6,-31.6,1.26,0.37,1.32,0.2,0.98,-0.03,-141.8,-195.1,-37.0,-0.64,5.35,0.03,0.0,1.000649788887201,1.8619613314996637,0.0,0.0,2.0,0.45,0.6,1.2,100.0,1.0,0.18,0.008790257243574962,0.2,1.0,-160.0,0,1,0,calibrating,0,0,0,0,0,0.0
3.472412651999548,349,248.49,94.9,7.7,-31.6,1.51,0.55,1.24,0.24,1.0,-0.04,-143.8,-198.3,-32.0,-0.58,5.43,0.08,0.0,1.0291744264214886,2.029827578884473,0.0,0.0,2.0,0.45,0.6,1.2,100.0,1.0,0.18,0.019339692684898324,0.2,1.0,-160.0,0,1,0,calibrating,0,0,0,0,0,0.0
3.4838105589988118,350,248.5,95.0,7.9,-31.7,1.58,0.83,1.14,0.26,1.02,-0.04,-145.8,-200.3,-15.0,-0.53,5.44,0.03,0.0,1.0533755265810956,2.1177582487149,0.0,0.0,2.0,0.45,0.6,1.2,100.0,1.0,0.18,0.04266997698761488,0.2,1.0,-160.0,0,1,0,calibrating,0,0,0,0,0,0.0
3.492598693999753,351,248.51,95.2,8.0,-31.8,1.46,1.16,0.97,0.26,1.02,-0.05,-147.8,-200.7,-9.0,-0.47,5.46,0.01,0.0,1.0538026380684384,2.1019276866724033,0.0,0.0,2.0,0.45,0.6,1.2,100.0,1.0,0.18,0.042235146705458915,0.2,1.0,-160.0,0,1,0,calibrating,0,0,0,0,0,0.0
3.5043245349988865,352,248.52,95.3,8.1,-31.9,1.27,1.46,0.78,0.25,0.99,-0.04,-149.8,-200.6,-3.0,-0.42,5.46,-0.08,0.0,1.0218610473053564,2.0863604674168843,0.0,0.0,2.0,0.45,0.6,1.2,100.0,1.0,0.18,0.010087684823529397,0.2,1.0,-160.0,0,1,0,calibrating,0,0,0,0,0,0.0
3.5122172299998056,353,248.53,95.4,8.2,-32.1,1.13,1.74,0.55,0.24,0.95,-0.03,-151.8,-200.4,7.0,-0.37,5.4,-0.01,0.0,0.9803060746521975,2.1463923220138486,0.0,0.0,2.0,0.45,0.6,1.2,100.0,1.0,0.18,0.030837942073036806,0.2,1.0,-160.0,0,1,0,calibrating,0,0,0,0,0,0.0
3.5237106189997576,354,248.54,95.5,8.2,-32.2,1.04,1.99,0.34,0.22,0.94,-0.03,-153.8,-197.6,26.0,-0.31,5.32,0.02,0.0,0.9658674857349738,2.27096895619469,0.0,0.0,2.0,0.45,0.6,1.2,100.0,1.0,0.18,0.04437100037045538,0.2,1.0,-160.0,0,1,0,calibrating,0,0,0,0,0,0.0
3.532499510998605,355,248.55,95.5,8.3,-32.5,0.94,2.22,0.16,0.19,0.94,-0.03,-155.7,-193.3,41.0,-0.26,5.18,-0.03,0.0,0.9594790253048786,2.416112580158466,0.0,0.0,2.0,0.45,0.6,1.2,100.0,1.0,0.18,0.049744271584539534,0.2,1.0,-160.0,0,1,0,calibrating,0,0,0,0,0,0.0
3.543772540999271,356,248.56,95.5,8.3,-32.7,0.81,2.48,0.0,0.14,0.94,-0.02,-157.6,-188.7,43.0,-0.21,5.08,-0.2,0.0,0.9505787710652915,2.6089269824968273,0.0,0.0,2.0,0.45,0.6,1.2,100.0,1.0,0.18,0.0574716353076441,0.2,1.0,-160.0,0,1,0,calibrating,0,0,0,0,0,0.0
3.552499423998597,357,248.57,95.5,8.3,-33.0,0.65,2.68,-0.14,0.09,0.94,-0.01,-159.5,-183.7,49.0,-0.16,4.93,-0.16,0.0,0.9443516294262428,2.7612497170665318,0.0,0.0,2.0,0.45,0.6,1.2,100.0,1.0,0.18,0.062424801407758856,0.2,1.0,-160.0,0,1,0,calibrating,0,0,0,0,0,0.0
3.5636614149989327,358,248.58,95.5,8.3,-33.3,0.52,2.82,-0.3,0.04,0.96,0.0,-161.3,-177.7,58.0,-0.11,4.76,-0.04,0.0,0.9608329719571451,2.883192674796466,0.0,0.0,2.0,0.45,0.6,1.2,100.0,1.0,0.18,0.04502458969931955,0.2,1.0,-160.0,0,1,0,calibrating,0,0,0,0,0,0.0
3.5722980169994116,359,248.59,95.5,8.3,-33.5,0.35,2.89,-0.39,0.01,0.98,0.0,-163.0,-171.0,62.0,-0.06,4.58,-0.1,0.0,0.9800510190801293,2.937124444077915,0.0,0.0,2.0,0.45,0.6,1.2,100.0,1.0,0.18,0.025290411724808726,0.2,1.0,-160.0,0,1,0,calibrating,0,0,0,0,0,0.0
3.583646666000277,360,248.6,95.5,8.3,-33.8,0.22,2.9,-0.41,-0.02,0.99,0.02,-164.7,-163.5,69.0,-0.02,4.37,-0.2,0.0,0.9904039579888602,2.93709039697453,0.0,0.0,2.0,0.45,0.6,1.2,100.0,1.0,0.18,0.014638723359756245,0.2,1.0,-160.0,0,1,0,calibrating,0,0,0,0,0,0.0
3.592432387998997,361,248.61,95.5,8.3,-34.1,0.13,2.82,-0.4,-0.04,1.0,0.03,-166.3,-157.5,56.0,0.01,4.23,0.16,0.0,1.0012492197250393,2.851192732875138,0.0,0.0,2.0,0.45,0.6,1.2,100.0,1.0,0.18,0.003717592391105473,0.2,1.0,-160.0,0,1,0,calibrating,0,0,0,0,0,0.0
3.6036766689994693,362,248.62,95.5,8.3,-34.4,0.03,2.64,-0.38,-0.04,0.99,0.04,-167.8,-153.9,39.0,0.05,4.15,-0.02,0.0,0.9916148445843276,2.667376988728815,0.0,0.0,2.0,0.45,0.6,1.2,100.0,1.0,0.18,0.01308492818118101,0.2,1.0,-160.0,0,1,0,calibrating,0,0,0,0,0,0.0
3.6124534779992246,363,248.63,95.4,8.3,-34.7,-0.16,2.48,-0.39,-0.04,0.97,0.05,-169.3,-150.8,38.0,0.1,4.04,-0.26,0.0,0.972111104761179,2.5155715056424057,0.0,0.0,2.0,0.45,0.6,1.2,100.0,1.0,0.18,0.031936894644242875,0.2,1.0,-160.0,0,1,0,calibrating,0,0,0,0,0,0.0
3.623676952000096,364,248.64,95.4,8.3,-34.9,-0.29,2.29,-0.37,-0.02,0.97,0.05,-170.8,-148.1,27.0,0.14,3.99,0.14,0.0,0.9714936952960631,2.33775533364807,0.0,0.0,2.0,0.45,0.6,1.2,100.0,1.0,0.18,0.031903218027171665,0.2,1.0,-160.0,0,1,0,calibrating,0,0,0,0,0,0.0
3.632486370999686,365,248.65,95.3,8.2,-35.1,-0.39,2.14,-0.29,0.0,0.95,0.05,-172.3,-146.2,24.0,0.17,3.94,-0.04,0.0,0.9513148795220223,2.1944931077586003,0.0,0.0,2.0,0.45,0.6,1.2,100.0,1.0,0.18,0.051040393125188155,0.2,1.0,-160.0,0,1,0,calibrating,0,0,0,0,0,0.0
3.643534777000241,366,248.66,95.2,8.2,-35.4,-0.39,2.06,-0.23,0.02,0.92,0.05,-173.7,-142.8,34.0,0.21,3.82,0.02,0.0,0.9215747392371386,2.1091704530454622,0.0,0.0,2.0,0.45,0.6,1.2,100.0,1.0,0.18,0.07916492274187037,0.2,1.0,-160.0,0,1,0,calibrating,0,0,0,0,0,0.0
3.652339223999661,367,248.67,95.2,8.2,-35.6,-0.33,2.03,-0.23,0.04,0.92,0.04,-175.1,-138.1,39.0,0.25,3.7,-0.04,0.0,0.9217374897442331,2.069468530806883,0.0,0.0,2.0,0.45,0.6,1.2,100.0,1.0,0.18,0.07742212879008048,0.2,1.0,-160.0,0,1,0,calibrating,0,0,0,0,0,0.0
3.664038023998728,368,248.68,95.1,8.2,-35.8,-0.22,2.1,-0.22,0.06,0.93,0.04,-176.5,-134.2,35.0,0.29,3.61,-0.1,0.0,0.9327915093953204,2.122922513894466,0.0,0.0,2.0,0.45,0.6,1.2,100.0,1.0,0.18,0.0650407469562132,0.2,1.0,-160.0,0,1,0,calibrating,0,0,0,0,0,0.0
3.6723203900000954,369,248.69,95.1,8.2,-36.0,-0.12,2.25,-0.24,0.06,0.95,0.03,-177.8,-129.3,50.0,0.32,3.44,0.01,0.0,0.9523654760647301,2.2659435120938034,0.0,0.0,2.0,0.45,0.6,1.2,100.0,1.0,0.18,0.04455744468106748,0.2,1.0,-160.0,0,1,0,calibrating,0,0,0,0,0,0.0
3.6836974500001816,370,248.7,95.0,8.2,-36.2,-0.05,2.4,-0.26,0.06,0.98,0.02,-179.0,-122.2,68.0,0.36,3.22,-0.02,0.0,0.9820386957752734,2.414560001325293,0.0,0.0,2.0,0.45,0.6,1.2,100.0,1.0,0.18,0.01458654047111374,0.2,1.0,-160.0,0,1,0,calibrating,0,0,0,0,0,0.0
3.692478648999895,371,248.71,95.0,8.2,-36.5,-0.13,2.57,-0.29,0.05,1.0,0.01,-180.2,-111.4,107.0,0.38,2.86,-0.14,0.0,1.0012991560967182,2.589575254747388,0.0,0.0,2.0,0.45,0.6,1.2,100.0,1.0,0.18,0.00458044145332448,0.2,1.0,-160.0,0,1,0,calibrating,0,0,0,0,0,0.0
3.7036790780002775,372,248.72,94.9,8.2,-36.8,-0.26,2.71,-0.34,0.04,1.01,0.01,-181.2,-98.1,123.0,0.41,2.51,-0.11,0.0,1.0108412338245805,2.7435925353448534,0.0,0.0,2.0,0.45,0.6,1.2,100.0,1.0,0.18,0.013840068797563054,0.2,1.0,-160.0,0,1,0,calibrating,0,0,0,0,0,0.0
3.7123888219994114,373,248.73,94.8,8.2,-37.0,-0.4,2.79,-0.36,0.02,1.02,0.01,-182.1,-83.5,150.0,0.43,2.05,-0.12,0.0,1.0202450685987166,2.8414256984830697,0.0,0.0,2.0,0.45,0.6,1.2,100.0,1.0,0.18,0.022779025500265115,0.2,1.0,-160.0,0,1,0,calibrating,0,0,0,0,0,0.0
3.7238219539995043,374,248.74,94.8,8.2,-37.3,-0.45,2.81,-0.35,0.01,1.02,0.01,-182.8,-64.6,178.0,0.45,1.51,-0.37,0.0,1.0200980345045274,2.867246065478162,0.0,0.0,2.0,0.45,0.6,1.2,100.0,1.0,0.18,0.022179351577954476,0.2,1.0,-160.0,0,1,0,calibrating,0,0,0,0,0,0.0
3.732559002999551,375,248.75,94.7,8.2,-37.6,-0.35,2.71,-0.33,0.0,1.02,0.01,-183.3,-44.1,199.0,0.46,0.93,-0.21,0.0,1.0200490184299968,2.7523626214581536,0.0,0.0,2.0,0.45,0.6,1.2,100.0,1.0,0.18,0.021687728793355454,0.2,1.0,-160.0,0,1,0,calibrating,0,0,0,0,0,0.0
3.743726290000268,376,248.76,94.6,8.2,-37.9,-0.21,2.53,-0.32,0.0,1.03,0.0,-183.6,-21.0,230.0,0.47,0.25,-0.09,0.0,1.03,2.558788775964128,0.0,0.0,2.0,0.45,0.6,1.2,100.0,1.0,0.18,0.031005936156091485,0.2,1.0,-160.0,0,1,0,calibrating,0,0,0,0,0,0.0
3.7525085910001508,377,248.77,94.6,8.1,-38.1,-0.06,2.28,-0.33,0.01,1.04,-0.01,-183.6,2.7,206.0,0.46,-0.25,-0.08,0.0,1.040096149401583,2.304538999453036,0.0,0.0,2.0,0.45,0.6,1.2,100.0,1.0,0.18,0.04028004384652095,0.2,1.0,-160.0,0,1,0,calibrating,0,0,0,0,0,0.0
3.76371724099954,378,248.78,94.5,8.1,-38.3,-0.1,2.06,-0.39,0.03,1.04,0.0,-183.5,14.0,124.0,0.46,-0.46,0.13,0.0,1.0404326023342405,2.0989759407863633,0.0,0.0,2.0,0.45,0.6,1.2,100.0,1.0,0.18,0.03980416684359489,0.2,1.0,-160.0,0,1,0,calibrating,0,0,0,0,0,0.0
3.772402972999771,379,248.79,94.5,8.1,-38.5,-0.05,1.82,-0.5,0.05,1.05,0.0,-183.3,21.6,98.0,0.45,-0.7,-0.06,0.0,1.0511898020814319,1.8880942773071476,0.0,0.0,2.0,0.45,0.6,1.2,100.0,1.0,0.18,0.04955013925897056,0.2,1.0,-160.0,0,1,0,calibrating,0,0,0,0,0,0.0
3.783735174998583,380,248.8,94.5,8.0,-38.7,0.05,1.63,-0.66,0.06,1.06,0.0,-183.0,31.7,110.0,0.44,-1.02,-0.07,0.0,1.06169675519896,1.759261208575918,0.0,0.0,2.0,0.45,0.6,1.2,100.0,1.0,0.18,0.05885595052896875,0.2,1.0,-160.0,0,1,0,calibrating,0,0,0,0,0,0.0
3.792447939998965,381,248.81,94.4,8.0,-38.9,0.05,1.49,-0.84,0.06,1.06,-0.01,-182.6,46.3,147.0,0.43,-1.48,-0.1,0.0,1.0617438485811916,1.711198410471445,0.0,0.0,2.0,0.45,0.6,1.2,100.0,1.0,0.18,0.05772498303297646,0.2,1.0,-160.0,0,1,0,calibrating,0,0,0,0,0,0.0
3.8037834869992366,382,248.82,94.4,7.8,-39.0,0.0,1.44,-0.99,0.05,1.05,-0.01,-182.0,65.6,176.0,0.41,-2.0,0.05,0.0,1.0512373661547614,1.747483905505284,0.0,0.0,2.0,0.45,0.6,1.2,100.0,1.0,0.18,0.04627413059441521,0.2,1.0,-160.0,0,1,0,calibrating,0,0,0,0,0,0.0
3.8123274729987315,383,248.83,94.3,7.7,-39.2,-0.12,1.38,-1.11,0.05,1.04,-0.01,-181.2,83.7,183.0,0.39,-2.51,-0.03,0.0,1.0412492496996097,1.7750774630984418,0.0,0.0,2.0,0.45,0.6,1.2,100.0,1.0,0.18,0.0355602938564783,0.2,1.0,-160.0,0,1,0,calibrating,0,0,0,0,0,0.0
3.823773580999841,384,248.84,94.3,7.6,-39.3,-0.2,1.25,-1.16,0.04,1.02,-0.01,-180.3,103.9,199.0,0.36,-3.08,-0.11,0.0,1.0208329931972222,1.7170032032585147,0.0,0.0,2.0,0.45,0.6,1.2,100.0,1.0,0.18,0.01484115660700902,0.2,1.0,-160.0,0,1,0,calibrating,0,0,0,0,0,0.0
3.8324484690001555,385,248.85,94.2,7.5,-39.5,-0.23,1.08,-1.17,0.03,1.01,-0.02,-179.1,125.3,207.0,0.33,-3.66,-0.03,0.0,1.010643359449811,1.6087883639559306,0.0,0.0,2.0,0.45,0.6,1.2,100.0,1.0,0.18,0.0045584924024060225,0.2,1.0,-160.0,0,1,0,calibrating,0,0,0,0,0,0.0
3.8436900380002044,386,248.86,94.2,7.3,-39.6,-0.26,0.89,-1.19,0.02,1.0,-0.03,-177.7,145.6,207.0,0.29,-4.23,-0.01,0.0,1.000649788887201,1.5085754870075279,0.0,0.0,2.0,0.45,0.6,1.2,100.0,1.0,0.18,0.005326376596999971,0.2,1.0,-160.0,0,1,0,calibrating,0,0,0,0,0,0.0
3.852463925999473,387,248.87,94.1,7.1,-39.7,-0.37,0.68,-1.23,0.01,1.0,-0.04,-176.1,169.3,231.0,0.24,-4.89,0.09,0.0,1.0008496390567367,1.4533409785731635,0.0,0.0,2.0,0.45,0.6,1.2,100.0,1.0,0.18,0.00502399589891489,0.2,1.0,-160.0,0,1,0,calibrating,0,0,0,0,0,0.0
3.8637342249985522,388,248.88,94.0,6.9,-39.7,-0.57,0.54,-1.26,0.01,1.0,-0.06,-174.2,192.7,236.0,0.18,-5.54,-0.14,0.0,1.0018482919085105,1.4846211637990347,0.0,0.0,2.0,0.45,0.6,1.2,100.0,1.0,0.18,0.003944836186198231,0.2,1.0,-160.0,0,1,0,calibrating,0,0,0,0,0,0.0
3.872457030000078,389,248.89,94.0,6.8,-39.8,-0.77,0.43,-1.29,0.01,0.99,-0.07,-172.1,217.1,241.0,0.12,-6.2,-0.14,0.0,0.9925220400575495,1.5626579920123276,0.0,0.0,2.0,0.45,0.6,1.2,100.0,1.0,0.18,0.013005666276416084,0.2,1.0,-160.0,0,1,0,calibrating,0,0,0,0,0,0.0
3.883639495999887,390,248.9,93.9,6.6,-39.8,-0.94,0.31,-1.32,0.01,0.98,-0.08,-169.8,239.4,220.0,0.06,-6.75,-0.1,0.0,0.9833107342035883,1.649878783426225,0.0,0.0,2.0,0.45,0.6,1.2,100.0,1.0,0.18,0.021772632687769855,0.2,1.0,-160.0,0,1,0,calibrating,0,0,0,0,0,0.0
3.8924780679990363,391,248.91,93.8,6.4,-39.9,-1.11,0.2,-1.31,0.02,0.97,-0.08,-167.2,258.4,198.0,0.0,-7.25,-0.18,0.0,0.973498844375277,1.7286410847830733,0.0,0.0,2.0,0.45,0.6,1.2,100.0,1.0,0.18,0.030952832065759384,0.2,1.0,-160.0,0,1,0,calibrating,0,0,0,0,0,0.0
3.903653700999712,392,248.92,93.7,6.2,-39.9,-1.19,0.07,-1.27,0.02,0.96,-0.09,-164.5,280.7,226.0,-0.08,-7.93,-0.11,0.0,0.9644169222903546,1.7418094040393743,0.0,0.0,2.0,0.45,0.6,1.2,100.0,1.0,0.18,0.03923405906766819,0.2,1.0,-160.0,0,1,0,calibrating,0,0,0,0,0,0.0
3.912198914000328,393,248.93,93.6,6.0,-39.9,-1.19,-0.03,-1.24,0.02,0.95,-0.09,-161.5,304.4,221.0,-0.16,-8.52,0.09,0.0,0.9544631999192006,1.7188949938841522,0.0,0.0,2.0,0.45,0.6,1.2,100.0,1.0,0.18,0.04820402581004579,0.2,1.0,-160.0,0,1,0,calibrating,0,0,0,0,0,0.0
3.9238446009985637,394,248.94,93.5,5.9,-39.9,-1.17,-0.09,-1.23,0.03,0.95,-0.08,-158.4,323.9,196.0,-0.25,-9.02,-0.34,0.0,0.9538343671728337,1.6999705879808626,0.0,0.0,2.0,0.45,0.6,1.2,100.0,1.0,0.18,0.04785620138528446,0.2,1.0,-160.0,0,1,0,calibrating,0,0,0,0,0,0.0
3.932424134998655,395,248.95,93.4,5.7,-39.9,-1.28,-0.12,-1.21,0.03,0.96,-0.08,-155.0,342.1,186.0,-0.35,-9.51,-0.04,0.0,0.9637945839233586,1.7654744404833507,0.0,0.0,2.0,0.45,0.6,1.2,100.0,1.0,0.18,0.037138064942064286,0.2,1.0,-160.0,0,1,0,calibrating,0,0,0,0,0,0.0
3.9437928989991633,396,248.96,93.2,5.6,-39.9,-1.33,-0.14,-1.16,0.04,0.97,-0.08,-151.4,360.9,179.0,-0.44,-10.0,-0.16,0.0,0.9741149829460586,1.7703389505967495,0.0,0.0,2.0,0.45,0.6,1.2,100.0,1.0,0.18,0.02628131260097699,0.2,1.0,-160.0,0,1,0,calibrating,0,0,0,0,0,0.0
3.9524632669999846,397,248.97,93.1,5.4,-39.9,-1.43,-0.17,-1.1,0.03,0.97,-0.09,-147.7,379.0,203.0,-0.55,-10.61,-0.1,0.0,0.9746281342132496,1.8121258234460433,0.0,0.0,2.0,0.45,0.6,1.2,100.0,1.0,0.18,0.02525279810711034,0.2,1.0,-160.0,0,1,0,calibrating,0,0,0,0,0,0.0
3.9638481849997333,398,248.98,93.0,5.3,-39.9,-1.5,-0.2,-1.02,0.02,0.97,-0.09,-143.7,403.4,218.0,-0.66,-11.21,-0.17,0.0,0.9743715923609432,1.8249383551232627,0.0,0.0,2.0,0.45,0.6,1.2,100.0,1.0,0.18,0.024999153160228382,0.2,1.0,-160.0,0,1,0,calibrating,0,0,0,0,0,0.0
3.9724887689990283,399,248.99,92.9,5.1,-39.8,-1.51,-0.23,-0.94,0.01,0.98,-0.1,-139.6,420.0,179.0,-0.77,-11.64,-0.01,0.0,0.9851395840184273,1.7934882213162149,0.0,0.0,2.0,0.45,0.6,1.2,100.0,1.0,0.18,0.013946538272689435,0.2,1.0,-160.0,0,1,0,calibrating,0,0,0,0,0,0.0
3.9837186570002814,400,249.0,92.8,5.0,-39.8,-1.55,-0.29,-0.85,0.0,0.98,-0.1,-136.3,435.5,267.0,-0.89,-12.26,-0.1,0.0,0.9850888284819801,1.7913961036018808,0.0,0.0,2.0,0.45,0.6,1.2,100.0,1.0,0.18,0.013717347932953872,0.2,1.0,-160.0,0,1,0,calibrating,0,0,0,0,0,0.0
3.9924823099991045,401,249.01,92.6,4.9,-39.8,-1.6,-0.33,-0.73,0.0,0.98,-0.1,-130.7,454.0,147.0,-1.02,-12.44,0.2,0.0,0.9850888284819801,1.7893574265640726,0.0,0.0,2.0,0.45,0.6,1.2,100.0,1.0,0.18,0.013443000974294739,0.2,1.0,-160.0,0,1,0,calibrating,0,0,0,0,0,0.0
4.003745037000044,402,249.02,92.5,4.8,-39.7,-1.64,-0.4,-0.6,0.0,0.99,-0.1,-126.1,469.3,179.0,-1.15,-12.98,0.04,0.0,0.9950376877284598,1.7915356541246952,0.0,0.0,2.0,0.45,0.6,1.2,100.0,1.0,0.18,0.0034242588932587026,0.2,1.0,-160.0,0,1,0,calibrating,0,0,0,0,0,0.0
4.012205585999254,403,249.03,92.3,4.8,-39.7,-1.71,-0.48,-0.47,0.0,0.99,-0.09,-121.3,478.2,66.0,-1.28,-12.97,-0.11,0.0,0.9940824915468535,1.8372261700726995,0.0,0.0,2.0,0.45,0.6,1.2,100.0,1.0,0.18,0.004291865973367726,0.2,1.0,-160.0,0,1,0,calibrating,0,0,0,0,0,0.0
4.023688229999607,404,249.04,92.1,4.7,-39.6,-1.78,-0.57,-0.32,0.0,1.0,-0.09,-116.5,477.0,19.0,-1.41,-12.95,-0.06,0.0,1.004041831797859,1.8962331080328705,0.0,0.0,2.0,0.45,0.6,1.2,100.0,1.0,0.18,0.005554124792085058,0.2,1.0,-160.0,0,1,0,calibrating,0,0,0,0,0,0.0
4.032417275999251,405,249.05,92.0,4.7,-39.6,-1.87,-0.68,-0.16,0.0,1.0,-0.09,-111.4,467.8,-77.0,-1.55,-12.55,0.08,0.0,1.004041831797859,1.9962214306033288,0.0,0.0,2.0,0.45,0.6,1.2,100.0,1.0,0.18,0.005443042296243372,0.2,1.0,-160.0,0,1,0,calibrating,0,0,0,0,0,0.0
4.0438369949988555,406,249.06,91.8,4.6,-39.5,-2.01,-0.82,0.03,0.0,1.0,-0.08,-106.8,448.5,-217.0,-1.67,-11.72,0.05,0.0,1.0031948963187562,2.1710366187607244,0.0,0.0,2.0,0.45,0.6,1.2,100.0,1.0,0.18,0.004504184680797829,0.2,1.0,-160.0,0,1,0,calibrating,0,0,0,0,0,0.0
4.052472071998636,407,249.07,91.6,4.6,-39.4,-2.11,-1.01,0.24,0.0,0.99,-0.07,-102.6,404.0,-378.0,-1.77,-10.45,0.24,0.0,0.9924716620639604,2.3515526785509184,0.0,0.0,2.0,0.45,0.6,1.2,100.0,1.0,0.18,0.006094668582518059,0.2,1.0,-160.0,0,1,0,calibrating,0,0,0,0,0,0.0
4.063830627999778,408,249.08,91.4,4.6,-39.3,-2.03,-1.22,0.37,0.04,0.98,-0.06,-98.8,365.0,-369.0,-1.87,-9.46,0.16,0.0,0.9826494797230597,2.3971232759288785,0.0,0.0,2.0,0.45,0.6,1.2,100.0,1.0,0.18,0.015598513904950373,0.2,1.0,-160.0,0,1,0,calibrating,0,0,0,0,0,0.0
4.07247078599903,409,249.09,91.3,4.6,-39.2,-1.85,-1.32,0.4,0.07,0.97,-0.07,-95.5,325.8,-398.0,-1.96,-8.33,0.06,0.0,0.9750384607798812,2.3075744841716377,0.0,0.0,2.0,0.45,0.6,1.2,100.0,1.0,0.18,0.022745342191166307,0.2,1.0,-160.0,0,1,0,calibrating,0,0,0,0,0,0.0
4.083545067000159,410,249.1,91.2,4.7,-39.0,-1.78,-1.36,0.38,0.08,0.97,-0.08,-92.5,289.0,-334.0,-2.04,-7.56,0.2,0.0,0.9765756499114648,2.2720915474513785,0.0,0.0,2.0,0.45,0.6,1.2,100.0,1.0,0.18,0.02078398999839104,0.2,1.0,-160.0,0,1,0,calibrating,0,0,0,0,0,0.0
4.092418657999588,411,249.11,91.0,4.7,-38.9,-1.78,-1.32,0.33,0.1,0.97,-0.08,-89.7,270.5,-207.0,-2.11,-7.2,0.16,0.0,0.978417088975862,2.2404687009641533,0.0,0.0,2.0,0.45,0.6,1.2,100.0,1.0,0.18,0.018563699915314036,0.2,1.0,-160.0,0,1,0,calibrating,0,0,0,0,0,0.0
4.1037689369986765,412,249.12,90.9,4.7,-38.8,-1.69,-1.23,0.31,0.08,0.95,-0.08,-87.1,256.6,-171.0,-2.18,-6.77,0.0,0.0,0.9567131231461183,2.113078323205271,0.0,0.0,2.0,0.45,0.6,1.2,100.0,1.0,0.18,0.03946231243015641,0.2,1.0,-160.0,0,1,0,calibrating,0,0,0,0,0,0.0
4.1123607529989386,413,249.13,90.8,4.8,-38.6,-1.55,-1.17,0.32,0.05,0.94,-0.09,-84.7,239.8,-177.0,-2.24,-6.28,0.01,0.0,0.945621488757526,1.9681971445970547,0.0,0.0,2.0,0.45,0.6,1.2,100.0,1.0,0.18,0.04954286788237383,0.2,1.0,-160.0,0,1,0,calibrating,0,0,0,0,0,0.0
4.123681019000287,414,249.14,90.7,4.8,-38.5,-1.39,-1.2,0.36,0.03,0.94,-0.09,-82.4,219.8,-193.0,-2.3,-5.72,0.04,0.0,0.9447751055145346,1.8712829823412598,0.0,0.0,2.0,0.45,0.6,1.2,100.0,1.0,0.18,0.049381466102857985,0.2,1.0,-160.0,0,1,0,calibrating,0,0,0,0,0,0.0
4.1324122629994235,415,249.15,90.6,4.8,-38.4,-1.21,-1.24,0.42,0.02,0.94,-0.09,-80.3,198.6,-215.0,-2.36,-5.11,0.24,0.0,0.9445104552094699,1.7827226368675526,0.0,0.0,2.0,0.45,0.6,1.2,100.0,1.0,0.18,0.048653194079764206,0.2,1.0,-160.0,0,1,0,calibrating,0,0,0,0,0,0.0
4.14383716500015,416,249.16,90.5,4.9,-38.2,-1.04,-1.31,0.46,0.03,0.95,-0.1,-78.5,174.7,-239.0,-2.4,-4.41,0.18,0.0,0.9557196241576292,1.7347334089133122,0.0,0.0,2.0,0.45,0.6,1.2,100.0,1.0,0.18,0.03669514462897272,0.2,1.0,-160.0,0,1,0,calibrating,0,0,0,0,0,0.0
4.152322620999257,417,249.17,90.4,4.9,-38.1,-1.04,-1.4,0.49,0.04,0.97,-0.1,-77.0,146.9,-269.0,-2.44,-3.63,0.04,0.0,0.9759610647971567,1.8115463008159631,0.0,0.0,2.0,0.45,0.6,1.2,100.0,1.0,0.18,0.01612462990965635,0.2,1.0,-160.0,0,1,0,calibrating,0,0,0,0,0,0.0
4.163727260000087,418,249.18,90.3,4.9,-38.0,-1.09,-1.47,0.52,0.04,0.96,-0.1,-75.7,118.5,-265.0,-2.47,-2.92,-0.15,0.0,0.9660227740586658,1.9024720760105784,0.0,0.0,2.0,0.45,0.6,1.2,100.0,1.0,0.18,0.025541662235184392,0.2,1.0,-160.0,0,1,0,calibrating,0,0,0,0,0,0.0
4.172466677999182,419,249.19,90.3,5.0,-37.8,-1.04,-1.51,0.52,0.05,0.96,-0.1,-74.7,97.6,-204.0,-2.5,-2.47,0.13,0.0,0.9664884893261791,1.9058069157183788,0.0,0.0,2.0,0.45,0.6,1.2,100.0,1.0,0.18,0.024574428028317552,0.2,1.0,-160.0,0,1,0,calibrating,0,0,0,0,0,0.0
4.183774891998837,420,249.2,90.3,5.0,-37.6,-0.95,-1.53,0.52,0.04,0.96,-0.09,-73.8,82.6,-166.0,-2.52,-2.07,0.07,0.0,0.9650388593212192,1.8745132701584164,0.0,0.0,2.0,0.45,0.6,1.2,100.0,1.0,0.18,0.025503576872611955,0.2,1.0,-160.0,0,1,0,calibrating,0,0,0,0,0,0.0
4.192305652999494,421,249.21,90.2,5.1,-37.5,-0.92,-1.55,0.56,0.01,0.95,-0.08,-73.1,67.6,-169.0,-2.54,-1.6,0.04,0.0,0.9534149149242421,1.8874586088176875,0.0,0.0,2.0,0.45,0.6,1.2,100.0,1.0,0.18,0.03638497084419734,0.2,1.0,-160.0,0,1,0,calibrating,0,0,0,0,0,0.0
4.203689123998629,422,249.22,90.1,5.1,-37.3,-0.89,-1.61,0.63,0.0,0.95,-0.07,-72.5,44.3,-235.0,-2.55,-0.83,0.19,0.0,0.9525754563287887,1.944505078419699,0.0,0.0,2.0,0.45,0.6,1.2,100.0,1.0,0.18,0.036479940850857706,0.2,1.0,-160.0,0,1,0,calibrating,0,0,0,0,0,0.0
4.212506494999616,423,249.23,90.1,5.2,-37.2,-0.81,-1.74,0.75,-0.01,0.93,-0.06,-72.3,13.1,-284.0,-2.55,0.01,0.0,0.0,0.9319871243745806,2.0606309713289277,0.0,0.0,2.0,0.45,0.6,1.2,100.0,1.0,0.18,0.05592690734896444,0.2,1.0,-160.0,0,1,0,calibrating,0,0,0,0,0,0.0
4.223683645999699,424,249.24,90.0,5.3,-37.0,-0.63,-1.93,0.86,0.0,0.92,-0.06,-72.3,-7.8,-183.0,-2.55,0.32,-0.17,0.0,0.9219544457292888,2.204858272089161,0.0,0.0,2.0,0.45,0.6,1.2,100.0,1.0,0.18,0.06464039427437118,0.2,1.0,-160.0,0,1,0,calibrating,0,0,0,0,0,0.0
4.232406996999998,425,249.25,90.0,5.4,-36.8,-0.41,-2.17,0.98,0.0,0.92,-0.07,-72.5,-16.7,-117.0,-2.54,0.54,-0.17,0.0,0.9226592003551474,2.416071191004106,0.0,0.0,2.0,0.45,0.6,1.2,100.0,1.0,0.18,0.06265692685554236,0.2,1.0,-160.0,0,1,0,calibrating,0,0,0,0,0,0.0
4.243928150999636,426,249.26,90.0,5.5,-36.5,-0.23,-2.42,1.08,0.01,0.91,-0.08,-72.7,-22.4,-72.0,-2.54,0.66,0.16,0.0,0.9135644476444998,2.660018796926067,0.0,0.0,2.0,0.45,0.6,1.2,100.0,1.0,0.18,0.07031664597486609,0.2,1.0,-160.0,0,1,0,calibrating,0,0,0,0,0,0.0
4.252361148999626,427,249.27,90.0,5.6,-36.3,-0.1,-2.65,1.19,0.01,0.92,-0.09,-73.0,-28.9,-78.0,-2.53,0.89,0.0,0.0,0.9244457799135654,2.9066475534539786,0.0,0.0,2.0,0.45,0.6,1.2,100.0,1.0,0.18,0.05824660743168453,0.2,1.0,-160.0,0,1,0,calibrating,0,0,0,0,0,0.0
4.263773423999737,428,249.28,90.0,5.7,-36.0,0.11,-2.9,1.26,0.01,0.91,-0.07,-73.3,-35.4,-62.0,-2.52,1.02,0.0,0.0,0.9127431182978045,3.163810993090453,0.0,0.0,2.0,0.45,0.6,1.2,100.0,1.0,0.18,0.0685502836664964,0.2,1.0,-160.0,0,1,0,calibrating,0,0,0,0,0,0.0
4.272484977998829,429,249.29,90.1,5.8,-35.7,0.58,-3.22,1.25,0.04,0.91,-0.07,-73.7,-39.1,-31.0,-2.51,1.06,-0.15,0.0,0.9135644476444998,3.502470556621426,0.0,0.0,2.0,0.45,0.6,1.2,100.0,1.0,0.18,0.06637437523340506,0.2,1.0,-160.0,0,1,0,calibrating,0,0,0,0,0,0.0
4.283630373998676,430,249.3,90.3,5.9,-35.3,1.22,-3.43,1.12,0.08,0.93,-0.09,-74.1,-43.3,-51.0,-2.5,1.25,0.07,0.0,0.9377632963600143,3.808897478273733,0.0,0.0,2.0,0.45,0.6,1.2,100.0,1.0,0.18,0.04133201598753278,0.2,1.0,-160.0,0,1,0,calibrating,0,0,0,0,0,0.0
4.292263002000254,431,249.31,90.5,6.0,-35.0,1.56,-3.43,0.91,0.07,0.95,-0.13,-74.6,-52.4,-88.0,-2.48,1.57,-0.04,0.0,0.9614052215377239,3.8764158703627247,0.0,0.0,2.0,0.45,0.6,1.2,100.0,1.0,0.18,0.017336288993626714,0.2,1.0,-160.0,0,1,0,calibrating,0,0,0,0,0,0.0
4.303773560999616,432,249.32,90.7,6.1,-34.7,1.42,-3.33,0.76,0.04,0.96,-0.14,-75.2,-68.2,-152.0,-2.46,2.09,0.08,0.0,0.9709788875150684,3.6990404161079398,0.0,0.0,2.0,0.45,0.6,1.2,100.0,1.0,0.18,0.007607370555956505,0.2,1.0,-160.0,0,1,0,calibrating,0,0,0,0,0,0.0
4.312586312998974,433,249.33,90.8,6.2,-34.3,1.32,-3.34,0.72,0.03,0.94,-0.14,-76.0,-89.0,-191.0,-2.44,2.68,0.0,0.0,0.9508417323613851,3.6628404278646918,0.0,0.0,2.0,0.45,0.6,1.2,100.0,1.0,0.18,0.027189635195447037,0.2,1.0,-160.0,0,1,0,calibrating,0,0,0,0,0,0.0
4.323805300999084,434,249.34,91.0,6.2,-34.0,1.69,-3.52,0.68,0.05,0.92,-0.12,-77.1,-111.7,-215.0,-2.41,3.31,-0.08,0.0,0.9291393867445292,3.963445470799365,0.0,0.0,2.0,0.45,0.6,1.2,100.0,1.0,0.18,0.04791414119605675,0.2,1.0,-160.0,0,1,0,calibrating,0,0,0,0,0,0.0
4.3324143049994746,435,249.35,91.3,6.3,-33.6,2.1,-3.62,0.5,0.08,0.92,-0.12,-78.3,-132.0,-202.0,-2.37,3.82,0.08,0.0,0.9312357381458253,4.214783505709398,0.0,0.0,2.0,0.45,0.6,1.2,100.0,1.0,0.18,0.04490143399886559,0.2,1.0,-160.0,0,1,0,calibrating,0,0,0,0,0,0.0
4.343846300998848,436,249.36,91.6,6.3,-33.2,2.34,-3.63,0.21,0.12,0.95,-0.1,-79.8,-150.7,-193.0,-2.33,4.33,0.23,0.0,0.9627564593395361,4.323956521520539,0.0,0.0,2.0,0.45,0.6,1.2,100.0,1.0,0.18,0.013113098549051627,0.2,1.0,-160.0,0,1,0,calibrating,0,0,0,0,0,0.0
4.352501065999604,437,249.37,91.9,6.3,-32.9,2.5,-3.43,-0.12,0.16,0.99,-0.1,-81.4,-168.0,-167.0,-2.28,4.74,0.01,0.0,1.0078194282707593,4.246092321181912,0.0,0.0,2.0,0.45,0.6,1.2,100.0,1.0,0.18,0.03131087297452817,0.2,1.0,-160.0,0,1,0,calibrating,0,0,0,0,0,0.0
4.363609657999405,438,249.38,92.2,6.3,-32.5,2.64,-3.12,-0.44,0.2,1.0,-0.09,-83.2,-180.3,-117.0,-2.23,4.98,0.01,0.0,1.0237675517420934,4.110669045301507,0.0,0.0,2.0,0.45,0.6,1.2,100.0,1.0,0.18,0.046313816516944994,0.2,1.0,-160.0,0,1,0,calibrating,0,0,0,0,0,0.0
4.372491496998919,439,249.39,92.6,6.2,-32.3,2.93,-2.73,-0.75,0.23,1.01,-0.09,-85.0,-183.3,-39.0,-2.18,4.95,-0.03,0.0,1.039759587597056,4.074346573378362,0.0,0.0,2.0,0.45,0.6,1.2,100.0,1.0,0.18,0.0610597353244694,0.2,1.0,-160.0,0,1,0,calibrating,0,0,0,0,0,0.0
4.383628663999843,440,249.4,92.9,6.1,-32.0,3.38,-2.32,-1.14,0.24,1.02,-0.08,-86.8,-178.1,41.0,-2.13,4.71,-0.11,0.0,1.050904372433572,4.255161571550486,0.0,0.0,2.0,0.45,0.6,1.2,100.0,1.0,0.18,0.07076042975776575,0.2,1.0,-160.0,0,1,0,calibrating,0,0,0,0,0,0.0
4.392303999999058,441,249.41,93.3,6.0,-31.8,3.8,-1.88,-1.59,0.24,1.07,-0.08,-88.5,-166.3,98.0,-2.09,4.34,0.04,0.0,1.099499886311954,4.527968639467371,0.0,0.0,2.0,0.45,0.6,1.2,100.0,1.0,0.18,0.11696882476342485,0.2,1.0,-160.0,0,1,0,calibrating,0,0,0,0,0,0.0
4.403645644999415,442,249.42,93.7,5.9,-31.7,3.79,-1.34,-1.99,0.22,1.15,-0.09,-90.1,-152.8,125.0,-2.05,3.97,0.0,0.0,1.174308307047174,4.485510004447655,0.0,0.0,2.0,0.45,0.6,1.2,100.0,1.0,0.18,0.187941700588672,0.2,1.0,-160.0,0,1,0,calibrating,0,0,0,0,0,0.0
4.412410772998555,443,249.43,94.1,5.7,-31.6,3.34,-0.78,-2.24,0.18,1.22,-0.08,-91.5,-139.7,126.0,-2.01,3.63,0.01,0.0,1.2357993364620325,4.09653512129458,0.0,0.0,2.0,0.45,0.6,1.2,100.0,1.0,0.18,0.24444407540345992,0.2,1.0,-160.0,0,1,0,calibrating,0,0,0,0,0,0.0
4.423745854999652,444,249.44,94.4,5.5,-31.5,2.64,-0.39,-2.27,0.09,1.24,-0.07,-92.9,-128.5,110.0,-1.98,3.37,-0.24,0.0,1.2452309022827854,3.5035125231687125,0.0,0.0,2.0,0.45,0.6,1.2,100.0,1.0,0.18,0.2487981283997286,0.2,1.0,-160.0,0,1,0,calibrating,0,0,0,0,0,0.0
4.432433992998995,445,249.45,94.6,5.2,-31.5,1.95,-0.27,-2.08,-0.01,1.22,-0.04,-94.1,-120.1,88.0,-1.94,3.16,0.05,0.0,1.2206965224821442,2.8638784890424387,0.0,0.0,2.0,0.45,0.6,1.2,100.0,1.0,0.18,0.21977847362710556,0.2,1.0,-160.0,0,1,0,calibrating,0,0,0,0,0,0.0
4.443811770999673,446,249.46,94.8,5.0,-31.5,1.53,-0.41,-1.72,-0.1,1.18,0.0,-95.2,-114.1,62.0,-1.91,3.05,-0.03,0.0,1.184229707446997,2.3382472067769053,0.0,0.0,2.0,0.45,0.6,1.2,100.0,1.0,0.18,0.1796454254201192,0.2,1.0,-160.0,0,1,0,calibrating,0,0,0,0,0,0.0
4.4525267139997595,447,249.47,94.9,4.9,-31.4,1.31,-0.76,-1.31,-0.18,1.14,0.03,-96.3,-109.0,56.0,-1.88,2.89,-0.04,0.0,1.1545128842936314,2.0024485012104556,0.0,0.0,2.0,0.45,0.6,1.2,100.0,1.0,0.18,0.14693003022141848,0.2,1.0,-160.0,0,1,0,calibrating,0,0,0,0,0,0.0
4.463701733999187,448,249.48,95.0,4.8,-31.4,1.25,-1.33,-0.95,-0.24,1.11,0.05,-97.4,-104.3,52.0,-1.86,2.76,-0.06,0.0,1.1367497525840946,2.057644284126875,0.0,0.0,2.0,0.45,0.6,1.2,100.0,1.0,0.18,0.1265835605416441,0.2,1.0,-160.0,0,1,0,calibrating,0,0,0,0,0,0.0
4.472429486999317,449,249.49,95.2,4.7,-31.2,1.24,-1.92,-0.68,-0.26,1.09,0.06,-98.4,-98.5,58.0,-1.83,2.6,0.1,0.0,1.122185367931698,2.3846173697262207,0.0,0.0,2.0,0.45,0.6,1.2,100.0,1.0,0.18,0.10977879237146237,0.2,1.0,-160.0,0,1,0,calibrating,0,0,0,0,0,0.0
4.483871050999369,450,249.5,95.3,4.6,-31.0,1.2,-2.49,-0.45,-0.24,1.09,0.08,-99.4,-92.3,58.0,-1.8,2.44,-0.04,0.0,1.1189727431890377,2.8004642472275916,0.0,0.0,2.0,0.45,0.6,1.2,100.0,1.0,0.18,0.10443484427622618,0.2,1.0,-160.0,0,1,0,calibrating,0,0,0,0,0,0.0
4.492333567999594,451,249.51,95.4,4.5,-30.7,1.02,-2.98,-0.19,-0.2,1.09,0.07,-100.2,-85.9,61.0,-1.78,2.26,-0.06,0.0,1.110405331399305,3.1554555930958683,0.0,0.0,2.0,0.45,0.6,1.2,100.0,1.0,0.18,0.09395008383676351,0.2,1.0,-160.0,0,1,0,calibrating,0,0,0,0,0,0.0
4.5037276009989,452,249.52,95.6,4.5,-30.4,0.8,-3.35,0.05,-0.14,1.08,0.07,-101.0,-78.9,69.0,-1.76,2.05,-0.29,0.0,1.091283647820309,3.4445609299299673,0.0,0.0,2.0,0.45,0.6,1.2,100.0,1.0,0.18,0.0733318322526122,0.2,1.0,-160.0,0,1,0,calibrating,0,0,0,0,0,0.0
4.5125063819996285,453,249.53,95.7,4.5,-30.0,0.61,-3.63,0.3,-0.08,1.06,0.09,-101.8,-72.9,59.0,-1.74,1.9,-0.05,0.0,1.0668176976409793,3.6931016774521654,0.0,0.0,2.0,0.45,0.6,1.2,100.0,1.0,0.18,0.04788856443181699,0.2,1.0,-160.0,0,1,0,calibrating,0,0,0,0,0,0.0
4.523645539999052,454,249.54,95.7,4.5,-29.7,0.43,-3.84,0.52,-0.02,1.04,0.1,-102.5,-66.3,67.0,-1.72,1.72,0.17,0.0,1.0449880382090506,3.8988331587796883,0.0,0.0,2.0,0.45,0.6,1.2,100.0,1.0,0.18,0.025537726899890423,0.2,1.0,-160.0,0,1,0,calibrating,0,0,0,0,0,0.0
4.532418492999568,455,249.55,95.8,4.5,-29.3,0.23,-4.01,0.7,0.04,1.02,0.1,-103.1,-59.5,60.0,-1.71,1.55,-0.03,0.0,1.0256705123966467,4.077131344462672,0.0,0.0,2.0,0.45,0.6,1.2,100.0,1.0,0.18,0.00609579706573693,0.2,1.0,-160.0,0,1,0,calibrating,0,0,0,0,0,0.0
4.543810499999381,456,249.56,95.9,4.5,-28.8,0.07,-4.14,0.81,0.09,0.98,0.11,-103.6,-52.7,74.0,-1.69,1.32,0.0,0.0,0.9902524930541705,4.219075728166063,0.0,0.0,2.0,0.45,0.6,1.2,100.0,1.0,0.18,0.028735777831204512,0.2,1.0,-160.0,0,1,0,calibrating,0,0,0,0,0,0.0
4.552467710998826,457,249.57,95.9,4.6,-28.4,0.03,-4.13,0.83,0.13,0.93,0.12,-104.1,-44.5,71.0,-1.68,1.13,0.09,0.0,0.9466784036831093,4.212683230436393,0.0,0.0,2.0,0.45,0.6,1.2,100.0,1.0,0.18,0.07086366985822035,0.2,1.0,-160.0,0,1,0,calibrating,0,0,0,0,0,0.0
4.563690662000226,458,249.58,95.9,4.6,-28.0,0.05,-4.13,0.77,0.15,0.89,0.13,-104.5,-37.1,75.0,-1.67,0.92,-0.08,0.0,0.9118662182579197,4.201464030549351,0.0,0.0,2.0,0.45,0.6,1.2,100.0,1.0,0.18,0.10356233817774185,0.2,1.0,-160.0,0,1,0,calibrating,0,0,0,0,0,0.0
4.572307180998905,459,249.59,96.0,4.6,-27.6,0.14,-4.02,0.64,0.18,0.86,0.11,-104.8,-28.6,81.0,-1.66,0.68,-0.16,0.0,0.8854942122905152,4.0730332677256635,0.0,0.0,2.0,0.45,0.6,1.2,100.0,1.0,0.18,0.1273356572622435,0.2,1.0,-160.0,0,1,0,calibrating,0,0,0,0,0,0.0
4.583738268998786,460,249.6,96.0,4.7,-27.2,0.13,-3.81,0.48,0.2,0.84,0.1,-105.0,-19.4,90.0,-1.66,0.41,0.16,0.0,0.8692525524840292,3.842317009305713,0.0,0.0,2.0,0.45,0.6,1.2,100.0,1.0,0.18,0.1407057707273548,0.2,1.0,-160.0,0,1,0,calibrating,0,0,0,0,0,0.0
