host_time_s,seq,device_time_s,roll,pitch,yaw,gyro_x,gyro_y,gyro_z,accel_x,accel_y,accel_z,belt_length,belt_velocity,belt_acceleration,motor_pos,motor_vel,motor_iq_meas,motor_iq_set,acc_mag,gyro_mag,acc_residual,threshold,heel_strike,hs_count,torque_cmd_nm
2.0762247190014023,1,85.68,97.2,2.4,-17.9,-0.61,0.29,0.33,0.0,0.96,-0.2,-10.4,-0.6,-6.0,-4.23,0.03,-0.06,0.0,0.980612053770501,0.7517313349861106,0.0,0.35,0,0,0.0
2.084365342001547,2,85.69,97.2,2.4,-17.9,-0.61,0.19,0.41,0.0,0.96,-0.19,-10.4,-2.3,-17.0,-4.23,0.09,0.07,0.0,0.9786214794290998,0.7591442550661897,0.0019507628545730737,0.35,0,0,0.0
2.0920912550009234,3,85.7,97.2,2.5,-17.9,-0.6,0.04,0.5,-0.01,0.97,-0.19,-10.5,-4.4,-10.0,-4.23,0.11,0.08,0.0,0.9884836872705588,0.782048591840686,0.007753216087148185,0.35,0,0,0.0
2.0999473860010767,4,85.71,97.1,2.5,-17.9,-0.64,-0.12,0.61,-0.02,0.98,-0.18,-10.5,-3.3,8.0,-4.23,0.06,0.17,0.0,0.9965942002640793,0.8922443611477744,0.01554645449905534,0.35,0,0,0.0
2.112015983000674,5,85.72,97.1,2.5,-17.9,-0.75,-0.32,0.72,-0.04,0.99,-0.17,-10.5,-2.2,4.0,-4.23,0.06,0.18,0.0,1.0052860289489753,1.0877959367454908,0.023753517520272327,0.35,0,0,0.0
2.120148413001516,6,85.73,97.0,2.6,-17.8,-0.85,-0.52,0.8,-0.05,0.99,-0.17,-10.6,-3.9,-14.0,-4.23,0.13,0.02,0.0,1.0057335631269346,1.2778497564267874,0.023717030664267003,0.35,0,0,0.0
2.1319325370004663,7,85.74,96.9,2.7,-17.7,-0.93,-0.76,0.86,-0.05,0.98,-0.17,-10.6,-7.9,-45.0,-4.23,0.32,0.13,0.0,0.9958915603618699,1.477193284577208,0.013597527341218218,0.35,0,0,0.0
2.1401880490011536,8,85.75,96.8,2.7,-17.6,-0.95,-0.94,0.89,-0.05,0.98,-0.18,-10.8,-15.4,-53.0,-4.22,0.46,0.0,0.0,0.9976472322419382,1.605677427131614,0.015046135236860825,0.35,0,0,0.0
2.1521143120007764,9,85.76,96.7,2.8,-17.5,-0.97,-1.08,0.95,-0.04,0.99,-0.18,-10.9,-19.4,-51.0,-4.22,0.59,0.07,0.0,1.0070253224224304,1.7348775172904858,0.023935740909005965,0.35,0,0,0.0
2.160091518000627,10,85.77,96.7,2.9,-17.4,-1.0,-1.2,1.03,-0.04,0.98,-0.2,-11.2,-26.3,-72.0,-4.21,0.82,-0.02,0.0,1.000999500499376,1.8710692130437077,0.017551720606232446,0.35,0,0,0.0
2.1720211840001866,11,85.78,96.6,3.0,-17.3,-1.01,-1.3,1.11,-0.03,0.98,-0.2,-11.5,-32.5,-55.0,-4.2,0.94,-0.02,0.0,1.000649788887201,1.9854974187845222,0.01685796881417645,0.35,0,0,0.0
2.180072454000765,12,85.79,96.5,3.1,-17.1,-1.01,-1.41,1.2,-0.02,0.96,-0.2,-11.9,-35.4,-30.0,-4.19,0.97,-0.01,0.0,0.9808159868191383,2.1090756269038815,0.002916316588808532,0.35,0,0,0.0
2.1919965910001338,13,85.8,96.4,3.2,-16.9,-0.98,-1.48,1.28,-0.01,0.95,-0.21,-12.2,-39.5,-42.0,-4.18,1.12,-0.21,0.0,0.9729850975220535,2.188424090527245,0.010532261768175455,0.35,0,0,0.0
2.2002079190006043,14,85.81,96.3,3.3,-16.8,-0.87,-1.54,1.32,0.0,0.93,-0.22,-12.7,-44.2,-45.0,-4.17,1.24,-0.12,0.0,0.9556673061269806,2.207011554115655,0.02729305209998345,0.35,0,0,0.0
2.2120190960013133,15,85.82,96.2,3.4,-16.6,-0.74,-1.61,1.37,0.0,0.94,-0.23,-13.1,-46.0,-16.0,-4.15,1.24,0.1,0.0,0.9677293009927931,2.239776774591611,0.014926436089487516,0.35,0,0,0.0
2.220258529001512,16,85.83,96.2,3.5,-16.4,-0.58,-1.62,1.38,0.0,0.93,-0.24,-13.6,-45.7,0.0,-4.14,1.22,0.1,0.0,0.9604686356149273,2.2057198371506748,0.021743359438006205,0.35,0,0,0.0
2.2319373700011056,17,85.84,96.1,3.7,-16.3,-0.43,-1.62,1.38,0.01,0.93,-0.25,-14.0,-44.2,17.0,-4.13,1.15,0.03,0.0,0.9630680142129112,2.171105709080053,0.018761101223221943,0.35,0,0,0.0
2.2403062420016795,18,85.85,96.1,3.8,-16.1,-0.37,-1.61,1.41,0.0,0.93,-0.26,-14.5,-41.6,26.0,-4.12,1.07,-0.13,0.0,0.9656603957913984,2.1718885790942406,0.015845345251840115,0.35,0,0,0.0
2.251884137000161,19,85.86,96.1,3.9,-15.9,-0.29,-1.63,1.42,0.0,0.92,-0.25,-14.8,-36.9,40.0,-4.11,0.94,0.0,0.0,0.9533624704172071,2.181146487515224,0.027580405213510795,0.35,0,0,0.0
2.259984013000576,20,85.87,96.1,4.0,-15.7,-0.18,-1.66,1.43,-0.02,0.92,-0.25,-15.2,-33.3,26.0,-4.1,0.9,0.02,0.0,0.9535722311393091,2.1983857714241144,0.02682323160158062,0.35,0,0,0.0
2.2718735330017807,21,85.88,96.1,4.2,-15.5,-0.11,-1.74,1.41,-0.04,0.91,-0.24,-15.5,-31.0,29.0,-4.09,0.81,0.06,0.0,0.9419660291114538,2.2422756298011177,0.037660844956847295,0.35,0,0,0.0
2.280177780001395,22,85.89,96.1,4.3,-15.3,0.0,-1.85,1.37,-0.07,0.9,-0.25,-15.8,-31.9,-8.0,-4.08,0.9,-0.04,0.0,0.9366963221877195,2.302042571283164,0.042071940842969946,0.35,0,0,0.0
2.2918013490016165,23,85.9,96.1,4.4,-15.1,0.1,-2.02,1.36,-0.1,0.91,-0.25,-16.2,-35.9,-44.0,-4.07,1.08,-0.08,0.0,0.9489994731294639,2.4372115213907883,0.029173414103201067,0.35,0,0,0.0
2.300248075000127,24,85.91,96.1,4.5,-14.9,0.23,-2.2,1.35,-0.12,0.91,-0.21,-16.6,-44.2,-80.0,-4.06,1.34,0.09,0.0,0.9415943925066674,2.591408883213917,0.035846924831477556,0.35,0,0,0.0
2.311766428001647,25,85.92,96.2,4.6,-14.7,0.79,-2.57,1.12,-0.1,0.94,-0.16,-17.1,-56.5,-121.0,-4.04,1.74,-0.24,0.0,0.9587491851365507,2.912627679604793,0.01831828955756243,0.35,0,0,0.0
2.320137741000508,26,85.93,96.3,4.7,-14.4,1.33,-2.78,0.72,-0.04,1.0,-0.18,-17.8,-77.0,-200.0,-4.02,2.42,0.03,0.0,1.0168579055108928,3.164759074558441,0.03899462220044414,0.35,0,0,0.0
2.33170031300142,27,85.94,96.5,4.7,-14.1,1.51,-2.68,0.17,0.01,1.05,-0.21,-18.8,-105.5,-270.0,-3.99,3.25,0.15,0.0,1.0708407911543154,3.0808115813856585,0.09111795768698938,0.35,0,0,0.0
2.3402191040004254,28,85.95,96.7,4.6,-13.8,1.25,-2.47,-0.27,0.08,1.1,-0.22,-20.0,-133.9,-260.0,-3.96,3.93,0.09,0.0,1.124633273560764,2.781420500391841,0.14201223129156926,0.35,0,0,0.0
2.351707924000948,29,85.96,96.9,4.6,-13.6,0.65,-2.47,-0.18,0.15,1.09,-0.16,-21.5,-155.0,-213.0,-3.91,4.42,0.15,0.0,1.1118453129819814,2.560429651445242,0.12663978529853093,0.35,0,0,0.0
2.360048688000461,30,85.97,96.9,4.6,-13.3,0.29,-2.72,0.14,0.21,1.02,-0.1,-23.2,-167.6,-129.0,-3.87,4.61,-0.07,0.0,1.0461835403025608,2.738996166481436,0.059758452366728054,0.35,0,0,0.0
2.3718692250004096,31,85.98,97.0,4.6,-13.1,0.55,-2.67,0.16,0.26,0.96,-0.12,-24.9,-169.0,-26.0,-3.82,4.53,-0.07,0.0,1.0017983829094554,2.730750812505601,0.015065829074150217,0.35,0,0,0.0
2.3800786990013876,32,85.99,97.1,4.5,-12.8,1.36,-2.04,-0.28,0.3,0.99,-0.16,-26.5,-161.1,62.0,-3.78,4.21,-0.07,0.0,1.0467568963231149,2.467711490429949,0.05882385563805348,0.35,0,0,0.0
2.3917389580001327,33,86.0,97.3,4.5,-12.7,2.3,-1.28,-0.96,0.3,1.08,-0.14,-27.6,-150.1,164.0,-3.74,3.71,-0.03,0.0,1.1296016997154352,2.80178514522438,0.13883528584976634,0.35,0,0,0.0
2.400216834001185,34,86.01,97.6,4.3,-12.6,2.8,-0.8,-1.54,0.29,1.17,-0.16,-29.3,-125.0,198.0,-3.71,3.15,-0.02,0.0,1.2159769734661918,3.29417668014331,0.22070634840851244,0.35,0,0,0.0
2.41187586200067,35,86.02,97.8,4.2,-12.6,2.09,-0.54,-1.52,0.21,1.23,-0.19,-30.4,-103.8,208.0,-3.68,2.57,-0.27,0.0,1.2621806526801145,2.6400946952713644,0.2615718270699865,0.35,0,0,0.0
2.4199713680009154,36,86.03,98.0,4.1,-12.5,1.25,-0.57,-1.09,0.08,1.17,-0.15,-31.3,-83.3,198.0,-3.66,2.04,0.15,0.0,1.182285921425101,1.7537103523672317,0.17804355389867355,0.35,0,0,0.0
2.432297164001284,37,86.04,98.1,4.0,-12.5,0.78,-1.01,-0.48,-0.06,1.13,-0.06,-32.0,-67.9,148.0,-3.64,1.73,-0.14,0.0,1.133181362359971,1.3634148304899723,0.12636021493687277,0.35,0,0,0.0
2.440119234001031,38,86.05,98.2,3.9,-12.3,0.8,-1.77,0.11,-0.2,1.07,-0.02,-32.7,-58.8,96.0,-3.62,1.54,-0.1,0.0,1.0887148386974432,1.945507645834372,0.08025581744885812,0.35,0,0,0.0
2.451984828001514,39,86.06,98.3,3.9,-12.1,1.56,-2.67,0.44,-0.28,1.04,0.03,-33.2,-56.4,33.0,-3.61,1.55,-0.03,0.0,1.0774506949276148,3.1234756282065015,0.06761184020544908,0.35,0,0,0.0
2.4600506990009308,40,86.07,98.5,3.9,-11.8,2.23,-3.69,0.6,-0.28,1.12,0.05,-33.8,-60.8,-28.0,-3.59,1.73,0.07,0.0,1.155551816233266,4.3530449113235665,0.14279870228087832,0.35,0,0,0.0
2.47206184100105,41,86.08,98.8,3.9,-11.3,1.97,-4.46,0.87,-0.2,1.19,0.02,-34.5,-70.2,-80.0,-3.57,2.04,0.11,0.0,1.2068554180182478,4.952716426366444,0.1902202579845429,0.35,0,0,0.0
2.480062934000671,42,86.09,99.0,4.0,-10.8,1.2,-4.98,1.04,-0.09,1.19,0.0,-35.3,-81.1,-93.0,-3.55,2.31,0.17,0.0,1.1933985084622822,5.227045054330411,0.1732280814600058,0.35,0,0,0.0
2.4916937830003008,43,86.1,99.1,4.0,-10.3,0.33,-5.34,1.12,0.04,1.14,0.0,-36.1,-91.1,-102.0,-3.52,2.6,0.16,0.0,1.1407015385279358,5.466159529322209,0.11812048929514618,0.35,0,0,0.0
2.5002201330007665,44,86.11,99.1,4.0,-9.8,-0.27,-5.44,1.07,0.17,1.06,-0.02,-37.1,-102.8,-121.0,-3.49,2.97,0.13,0.0,1.0737318100903968,5.550801743892499,0.05012774564045497,0.35,0,0,0.0
2.511659847001283,45,86.12,99.1,4.0,-9.2,-0.79,-5.36,0.99,0.24,1.0,-0.01,-38.2,-115.5,-119.0,-3.46,3.28,-0.02,0.0,1.0284454287904634,5.507612913050445,0.00474453705371114,0.35,0,0,0.0
2.5198906600016926,46,86.13,99.0,4.0,-8.7,-1.23,-5.21,0.91,0.26,0.93,0.01,-39.5,-128.1,-124.0,-3.43,3.63,-0.06,0.0,0.9657121724406295,5.430018416175031,0.05682894491020041,0.35,0,0,0.0
2.5317895370008046,47,86.14,98.9,4.1,-8.1,-1.46,-5.1,0.86,0.24,0.87,0.04,-40.9,-139.6,-110.0,-3.39,3.91,-0.06,0.0,0.9033825324855468,5.374123184297137,0.11677541316797735,0.35,0,0,0.0
2.540252552000311,48,86.15,98.8,4.1,-7.6,-1.26,-5.13,0.71,0.22,0.8,0.03,-42.3,-148.9,-91.0,-3.35,4.13,-0.02,0.0,0.8302409288875128,5.329971857336584,0.18611867643069124,0.35,0,0,0.0
2.5517779650017474,49,86.16,98.7,4.0,-7.1,-0.99,-4.96,0.62,0.2,0.81,0.01,-43.8,-154.7,-71.0,-3.31,4.29,0.02,0.0,0.8343860018001261,5.095694260844149,0.17833413144771626,0.35,0,0,0.0
2.5602505930000916,50,86.17,98.7,4.0,-6.6,-0.8,-4.64,0.56,0.17,0.82,0.0,-45.4,-161.4,-66.0,-3.26,4.45,0.13,0.0,0.8374365647617734,4.741645284075982,0.1717778971163475,0.35,0,0,0.0
2.5717957510005363,51,86.18,98.7,4.0,-6.2,-0.57,-4.39,0.5,0.15,0.85,-0.01,-47.1,-164.2,-33.0,-3.22,4.49,-0.01,0.0,0.8631917515824626,4.454997194162977,0.14310225608974514,0.35,0,0,0.0
2.5801680810000107,52,86.19,98.6,4.0,-5.7,-0.44,-4.23,0.4,0.14,0.88,-0.02,-48.7,-166.7,-24.0,-3.17,4.55,0.02,0.0,0.8912911982062877,4.27159220900123,0.11270275327660162,0.35,0,0,0.0
2.591895800000202,53,86.2,98.6,4.0,-5.3,-0.34,-4.08,0.31,0.15,0.93,-0.04,-50.4,-166.7,0.0,-3.13,4.5,0.0,0.0,0.9428679653058535,4.105861663524479,0.05990346645349509,0.35,0,0,0.0
2.6001180870007374,54,86.21,98.6,3.9,-4.9,-0.34,-3.84,0.26,0.17,0.95,-0.09,-52.1,-164.4,18.0,-3.08,4.42,0.28,0.0,0.9692780818733084,3.863780532069595,0.03282348288831938,0.35,0,0,0.0
2.6117855320007948,55,86.22,98.6,3.9,-4.6,0.01,-3.42,0.24,0.2,0.98,-0.11,-53.7,-159.9,40.0,-3.04,4.28,-0.08,0.0,1.0062305898749053,3.4284252945047524,0.004046444611012001,0.35,0,0,0.0
2.6201935910012253,56,86.23,98.7,3.9,-4.2,0.26,-2.99,0.39,0.21,1.01,-0.11,-55.2,-153.8,51.0,-3.0,4.12,0.0,0.0,1.0374487939170782,3.0265161489739323,0.03455935568012114,0.35,0,0,0.0
2.632253429001139,57,86.24,98.7,3.9,-4.0,0.58,-2.69,0.57,0.19,1.02,-0.11,-56.7,-148.5,53.0,-2.96,3.96,-0.05,0.0,1.0433599570617995,2.810231307205868,0.03966110844834558,0.35,0,0,0.0
2.640069373001097,58,86.25,98.8,3.9,-3.7,0.87,-2.55,0.72,0.19,1.03,-0.11,-58.2,-144.2,38.0,-2.92,3.9,0.09,0.0,1.053138167573467,2.7888707392061036,0.04845053258081289,0.35,0,0,0.0
2.6516070370016678,59,86.26,98.9,4.0,-3.4,0.85,-2.41,0.88,0.18,1.02,-0.13,-59.6,-140.6,40.0,-2.88,3.76,0.16,0.0,1.0438869670610893,2.702776350347916,0.03841534542706637,0.35,0,0,0.0
2.66032603000167,60,86.27,99.0,4.1,-3.2,0.85,-2.33,0.99,0.16,1.02,-0.12,-61.0,-136.3,45.0,-2.84,3.64,0.1,0.0,1.0394229168149027,2.670486847,0.033272269277262234,0.35,0,0,0.0
2.671794959000181,61,86.28,99.1,4.2,-2.9,0.68,-2.29,1.12,0.14,1.0,-0.13,-62.3,-130.7,48.0,-2.81,3.49,0.06,0.0,1.0180864403379508,2.638351758200563,0.011697076944304108,0.35,0,0,0.0
2.6802190150010574,62,86.29,99.2,4.3,-2.7,0.65,-2.23,1.16,0.13,0.97,-0.13,-63.6,-126.1,47.0,-2.77,3.37,-0.02,0.0,0.98726896031426,2.5963435828102566,0.018737995017798936,0.35,0,0,0.0
2.6917466950017115,63,86.3,99.2,4.4,-2.5,0.66,-2.19,1.14,0.13,0.96,-0.15,-64.8,-120.6,52.0,-2.74,3.21,-0.05,0.0,0.9803060746521975,2.555640819833648,0.025186863066264276,0.35,0,0,0.0
2.700312095001209,64,86.31,99.3,4.5,-2.2,0.58,-2.1,1.14,0.14,0.98,-0.16,-66.0,-115.3,49.0,-2.71,3.07,-0.11,0.0,1.0027960909377338,2.458861525177862,0.002642909845113506,0.35,0,0,0.0
2.711737625000751,65,86.32,99.4,4.7,-2.0,0.45,-1.98,1.12,0.15,0.97,-0.18,-67.1,-109.4,64.0,-2.68,2.87,-0.11,0.0,0.9978977903573091,2.3189006015782567,0.007390386217027367,0.35,0,0,0.0
2.7202014780013997,66,86.33,99.5,4.8,-1.8,0.27,-1.85,1.11,0.17,0.97,-0.18,-68.1,-102.7,62.0,-2.65,2.72,0.18,0.0,1.0010993956645864,2.1742814905158903,0.004105005291554997,0.35,0,0,0.0
2.7319289240003855,67,86.34,99.5,4.9,-1.6,0.1,-1.68,1.13,0.17,0.96,-0.2,-69.1,-95.5,75.0,-2.63,2.48,0.04,0.0,0.995238664843765,2.0271408436514715,0.009766421390128954,0.35,0,0,0.0
2.744000735001464,68,86.35,99.6,5.1,-1.4,0.06,-1.53,1.11,0.17,0.94,-0.19,-70.0,-86.5,85.0,-2.6,2.24,0.05,0.0,0.9739609848448756,1.8911901014969383,0.03042321936123793,0.35,0,0,0.0
2.752238833001684,69,86.36,99.6,5.2,-1.3,0.11,-1.43,1.09,0.17,0.93,-0.19,-70.8,-78.0,84.0,-2.58,2.02,0.14,0.0,0.9643132271207319,1.8014161096204286,0.039269557543674005,0.35,0,0,0.0
2.760206738001216,70,86.37,99.6,5.3,-1.1,0.04,-1.36,1.09,0.16,0.93,-0.19,-71.5,-69.8,81.0,-2.56,1.8,-0.03,0.0,0.9626006440887104,1.7433588270921168,0.04016249776418157,0.35,0,0,0.0
2.7716721780016087,71,86.38,99.7,5.4,-1.0,-0.09,-1.26,1.04,0.16,0.91,-0.21,-72.2,-60.7,91.0,-2.55,1.53,0.12,0.0,0.9475230867899737,1.6362457028209425,0.05413525396165986,0.35,0,0,0.0
2.780174049001289,72,86.39,99.7,5.6,-0.8,-0.26,-1.19,0.97,0.15,0.9,-0.21,-72.7,-52.9,74.0,-2.53,1.36,0.02,0.0,0.9362691920596341,1.5571127126833175,0.06408136571815948,0.35,0,0,0.0
2.7916380840015336,73,86.4,99.7,5.7,-0.7,-0.38,-1.16,0.88,0.15,0.89,-0.2,-73.2,-45.6,79.0,-2.52,1.14,0.0,0.0,0.9244457799135654,1.5047923444781344,0.07438668230694367,0.35,0,0,0.0
2.800155718001406,74,86.41,99.7,5.8,-0.5,-0.55,-1.21,0.78,0.15,0.87,-0.2,-73.6,-38.0,79.0,-2.51,0.92,0.04,0.0,0.9052071586106686,1.541103500742244,0.09175279753764365,0.35,0,0,0.0
2.8117792290013313,75,86.42,99.7,5.8,-0.4,-0.72,-1.21,0.65,0.17,0.87,-0.21,-73.9,-31.0,63.0,-2.5,0.78,-0.08,0.0,0.9109884741312593,1.5508062419270823,0.08425205237671185,0.35,0,0,0.0
2.8201338640010363,76,86.43,99.6,5.9,-0.3,-0.8,-1.16,0.43,0.18,0.87,-0.22,-74.2,-25.3,54.0,-2.5,0.64,-0.05,0.0,0.9152595260361949,1.4732616875490925,0.07838138046234078,0.35,0,0,0.0
2.8317871970011765,77,86.44,99.5,5.9,-0.2,-0.85,-1.1,0.17,0.2,0.89,-0.22,-74.4,-19.7,61.0,-2.49,0.45,-0.09,0.0,0.9383496150156402,1.4004999107461593,0.05418546565323756,0.35,0,0,0.0
2.8400503560005745,78,86.45,99.5,5.9,-0.1,-0.9,-1.0,-0.09,0.21,0.9,-0.23,-74.6,-10.4,85.0,-2.49,0.17,-0.08,0.0,0.9523654760647301,1.3483693855913519,0.039366212512064735,0.35,0,0,0.0
2.8518147450013203,79,86.46,99.4,5.8,0.0,-0.99,-0.81,-0.33,0.21,0.91,-0.24,-74.6,-4.0,55.0,-2.49,0.07,0.04,0.0,0.9642613753542139,1.3210223313782399,0.02692090695812932,0.35,0,0,0.0
2.8603158180012542,80,86.47,99.3,5.8,0.0,-1.08,-0.61,-0.51,0.21,0.91,-0.25,-74.6,-2.0,26.0,-2.49,0.04,-0.02,0.0,0.966798841538404,1.341118935814419,0.023895771958460377,0.35,0,0,0.0
2.871794757000316,81,86.48,99.2,5.7,0.0,-0.98,-0.38,-0.65,0.2,0.91,-0.26,-74.7,-1.5,9.0,-2.49,0.03,0.01,0.0,0.9673158739522474,1.235839795442759,0.022911164753724678,0.35,0,0,0.0
2.8803012920016045,82,86.49,99.1,5.6,0.0,-0.78,-0.19,-0.73,0.19,0.92,-0.26,-74.7,-1.8,-2.0,-2.49,0.06,0.11,0.0,0.9747307320486002,1.085080642164443,0.015186380524224496,0.35,0,0,0.0
2.891797566000605,83,86.5,99.0,5.6,0.0,-0.6,-0.02,-0.76,0.18,0.94,-0.25,-74.7,-2.9,-7.0,-2.49,0.09,0.06,0.0,0.9891915891272024,0.96850400102426,0.000711012976709835,0.35,0,0,0.0
2.900247492001654,84,86.51,99.0,5.5,0.0,-0.57,0.1,-0.77,0.16,0.95,-0.25,-74.7,-4.0,-8.0,-2.48,0.12,0.03,0.0,0.9952889027814988,0.9632237538599222,0.0052785746640349185,0.35,0,0,0.0
2.911672483000075,85,86.52,98.9,5.4,0.0,-0.66,0.26,-0.8,0.15,0.96,-0.26,-74.8,-5.9,-22.0,-2.48,0.2,-0.02,0.0,1.005832988124768,1.0692053123698928,0.015506206807158085,0.35,0,0,0.0
2.919995664000453,86,86.53,98.8,5.3,0.0,-0.82,0.39,-0.85,0.15,0.95,-0.25,-74.9,-10.9,-42.0,-2.48,0.35,0.0,0.0,0.9937303457175894,1.243784547258889,0.0033354931119798925,0.35,0,0,0.0
2.9319683500016254,87,86.54,98.7,5.3,0.0,-0.91,0.52,-0.92,0.14,0.94,-0.25,-75.0,-16.3,-57.0,-2.47,0.54,0.08,0.0,0.982700361249552,1.3945967159003352,0.00754060152893643,0.35,0,0,0.0
2.944217609001498,88,86.55,98.6,5.2,-0.1,-0.83,0.63,-0.98,0.14,0.93,-0.23,-75.2,-22.5,-51.0,-2.47,0.66,-0.07,0.0,0.9681941953967707,1.4304544732356916,0.021605832034083394,0.35,0,0,0.0
2.952155337001386,89,86.56,98.6,5.1,-0.2,-0.63,0.68,-1.0,0.15,0.93,-0.21,-75.5,-28.7,-71.0,-2.46,0.89,-0.06,0.0,0.9651424765287248,1.3635615130972274,0.024164399884086696,0.35,0,0,0.0
2.9602087420007592,90,86.57,98.6,5.1,-0.2,-0.41,0.68,-0.94,0.14,0.93,-0.19,-75.8,-35.4,-60.0,-2.45,1.02,0.17,0.0,0.9594790253048787,1.2304877081872863,0.029231294085774073,0.35,0,0,0.0
2.971557577000567,91,86.58,98.6,5.0,-0.3,-0.17,0.66,-0.88,0.13,0.92,-0.18,-76.2,-41.8,-65.0,-2.44,1.22,0.05,0.0,0.9464142856064675,1.113058848399311,0.04145011310850166,0.35,0,0,0.0
2.980210468000223,92,86.59,98.6,5.0,-0.4,0.02,0.62,-0.79,0.12,0.92,-0.18,-76.7,-49.3,-69.0,-2.43,1.41,0.07,0.0,0.9450925880568528,1.0044401425669924,0.041916374444954,0.35,0,0,0.0
2.9921391640000365,93,86.6,98.6,4.9,-0.5,0.16,0.55,-0.67,0.1,0.92,-0.18,-77.2,-55.5,-59.0,-2.41,1.57,-0.18,0.0,0.942761899951414,0.8814760348415606,0.04336212129938488,0.35,0,0,0.0
3.0002075620013784,94,86.61,98.7,4.9,-0.5,0.21,0.45,-0.56,0.1,0.92,-0.19,-77.8,-60.5,-55.0,-2.39,1.71,0.21,0.0,0.9447221813845592,0.7484650960465692,0.04057380306891489,0.35,0,0,0.0
3.011665626001559,95,86.62,98.7,4.8,-0.6,0.23,0.36,-0.49,0.1,0.93,-0.2,-78.5,-66.3,-61.0,-2.37,1.89,-0.12,0.0,0.9565040512198577,0.6500769185258003,0.028216094568944028,0.35,0,0,0.0
3.020180291001452,96,86.63,98.8,4.8,-0.6,0.14,0.3,-0.4,0.12,0.93,-0.22,-79.2,-71.4,-52.0,-2.36,2.0,0.25,0.0,0.9631718434422801,0.5192301994298868,0.021117336299591227,0.35,0,0,0.0
3.031680521000453,97,86.64,98.8,4.8,-0.6,0.07,0.34,-0.38,0.14,0.91,-0.25,-79.9,-75.8,-35.0,-2.33,2.07,0.07,0.0,0.954044024141444,0.5146843692983109,0.02964025248841884,0.35,0,0,0.0
3.0402867890006746,98,86.65,98.8,4.8,-0.7,0.07,0.47,-0.41,0.16,0.89,-0.29,-80.7,-76.7,-17.0,-2.31,2.09,0.09,0.0,0.9496315074806648,0.6276145313805281,0.03337171376621406,0.35,0,0,0.0
3.0517652130001807,99,86.66,98.8,4.7,-0.7,0.06,0.7,-0.48,0.19,0.87,-0.32,-81.5,-76.9,-7.0,-2.29,2.09,-0.03,0.0,0.946255779374689,0.8508818954473059,0.036012493034746074,0.35,0,0,0.0
3.060264192001341,100,86.67,98.8,4.7,-0.8,0.18,0.99,-0.64,0.22,0.84,-0.35,-82.2,-76.3,9.0,-2.27,2.03,0.06,0.0,0.9362157870918434,1.1925183436744276,0.04513143561123978,0.35,0,0,0.0
3.071790358000726,101,86.68,98.8,4.6,-1.0,0.51,1.43,-0.8,0.26,0.85,-0.38,-83.0,-73.3,22.0,-2.25,1.96,0.14,0.0,0.9666954018717581,1.7161002301730512,0.014358784414698622,0.35,0,0,0.0
3.080342401000962,102,86.69,98.9,4.6,-1.2,1.03,1.98,-0.89,0.27,0.9,-0.37,-83.7,-69.2,42.0,-2.23,1.8,-0.17,0.0,1.0098514742277698,2.4027900449269386,0.02822134218248684,0.35,0,0,0.0
3.0917815740012884,103,86.7,99.0,4.5,-1.4,1.43,2.48,-0.85,0.25,0.95,-0.32,-84.3,-64.7,35.0,-2.22,1.73,-0.05,0.0,1.0331505214633538,2.9862685746596873,0.050489981629709524,0.35,0,0,0.0
3.100174152001273,104,86.71,99.1,4.5,-1.7,1.75,2.83,-0.69,0.22,1.03,-0.3,-85.0,-62.8,29.0,-2.2,1.66,0.0,0.0,1.0951255635770722,3.3981612675092396,0.11021572326855933,0.35,0,0,0.0
3.1118049710003106,105,86.72,99.3,4.5,-2.0,1.75,3.0,-0.37,0.16,1.06,-0.26,-85.6,-59.4,27.0,-2.18,1.59,0.08,0.0,1.1030865786510142,3.4927639485084017,0.11581320357565128,0.35,0,0,0.0
3.120107546001236,106,86.73,99.5,4.5,-2.3,1.6,2.94,-0.15,0.11,1.01,-0.25,-86.2,-58.7,8.0,-2.17,1.59,0.0,0.0,1.046279121458514,3.350537270349339,0.057825631455488136,0.35,0,0,0.0
3.1317376650004007,107,86.74,99.7,4.6,-2.6,1.58,2.88,-0.2,0.09,0.94,-0.27,-86.8,-57.7,16.0,-2.15,1.54,0.01,0.0,0.9821405194777374,3.291018079561399,0.00618671111478275,0.35,0,0,0.0
3.140287498001271,108,86.75,99.9,4.6,-2.8,1.69,2.94,-0.36,0.1,0.95,-0.24,-87.3,-56.5,6.0,-2.14,1.54,-0.01,0.0,0.9849365461794988,3.410175948539899,0.0033228707247608957,0.35,0,0,0.0
3.1517612650004594,109,86.76,100.0,4.6,-3.1,1.77,3.0,-0.45,0.07,1.03,-0.19,-87.9,-54.9,14.0,-2.12,1.48,0.06,0.0,1.0497142468310126,3.5121788109377348,0.06022573332821779,0.35,0,0,0.0
3.1602706190005847,110,86.77,100.2,4.6,-3.4,1.79,2.92,-0.29,0.05,1.19,-0.12,-88.4,-52.1,28.0,-2.11,1.36,0.01,0.0,1.1970797801316335,3.437237262686415,0.203439441296262,0.35,0,0,0.0
3.171786377000899,111,86.78,100.3,4.7,-3.7,1.83,2.59,0.33,0.04,1.39,-0.04,-88.9,-50.1,22.0,-2.09,1.33,-0.06,0.0,1.391150602918318,3.1884008530923458,0.3895600588012875,0.35,0,1,0.0
3.1802574210014427,112,86.79,100.5,4.8,-3.9,1.87,2.15,1.28,-0.01,1.54,-0.01,-89.4,-47.3,28.0,-2.08,1.24,0.25,0.0,1.540064933695979,3.123747749098829,0.5277049017873696,0.35,0,1,0.0
3.191853523001555,113,86.8,100.6,5.0,-4.1,1.37,1.64,2.07,-0.14,1.5,-0.02,-89.8,-42.3,55.0,-2.07,1.05,-0.05,0.0,1.5066519173319364,2.975130249249602,0.4844060477148604,0.35,0,1,0.0
3.2001975140010472,114,86.81,100.7,5.2,-4.2,0.18,1.2,2.16,-0.2,1.32,-0.04,-90.2,-32.6,100.0,-2.06,0.7,-0.02,0.0,1.3356646285651201,2.4774987386475096,0.3071503837690832,0.35,0,1,0.0
3.211878780000916,115,86.82,100.6,5.5,-4.2,-0.9,0.61,1.85,-0.05,1.12,-0.1,-90.4,-15.9,151.0,-2.06,0.2,0.02,0.0,1.1255665240224588,2.1458331715210295,0.09511123364189356,0.35,0,1,0.0
3.2202473750003264,116,86.83,100.5,5.6,-4.3,-1.15,0.8,1.31,0.1,0.98,-0.14,-90.4,2.2,148.0,-2.06,-0.17,0.01,0.0,0.9949874371066199,1.9179676743887004,0.034758496208466605,0.35,0,1,0.0
3.2320439380000607,117,86.84,100.4,5.8,-4.4,-0.75,1.2,0.7,0.26,0.87,-0.16,-90.4,7.2,59.0,-2.06,-0.19,0.02,0.0,0.9220086767487603,1.5787653403846944,0.10558251143499953,0.35,0,1,0.0
3.240204983001604,118,86.85,100.4,5.8,-4.5,0.09,1.92,0.08,0.41,0.82,-0.18,-90.3,9.7,53.0,-2.06,-0.34,-0.1,0.0,0.934291175169711,1.9237723358027583,0.09143401275376772,0.35,0,1,0.0
3.251636289000089,119,86.86,100.4,5.8,-4.7,0.9,2.82,-0.54,0.49,0.83,-0.17,-90.2,15.5,52.0,-2.07,-0.48,0.01,0.0,0.9787236586493656,3.00898654034876,0.04606149868863085,0.35,0,1,0.0
3.260338257001422,120,86.87,100.5,5.8,-5.1,1.39,3.77,-0.96,0.51,0.86,-0.17,-90.0,21.7,62.0,-2.07,-0.68,0.14,0.0,1.0141991914806479,4.131174167231394,0.010374246540201693,0.35,0,1,0.0
3.271792164001454,121,86.88,100.6,5.8,-5.5,1.47,4.8,-1.16,0.44,0.9,-0.13,-89.7,32.5,110.0,-2.08,-1.06,-0.24,0.0,1.010198000393982,5.152329570204142,0.01408792887433008,0.35,0,1,0.0
3.2803469210011826,122,86.89,100.7,5.8,-6.1,1.24,5.44,-1.07,0.33,0.95,-0.08,-89.2,46.5,135.0,-2.1,-1.46,-0.11,0.0,1.0088607436113273,5.681205857914322,0.0151166819438453,0.35,0,1,0.0
3.291727425001227,123,86.9,100.7,5.8,-6.7,1.08,5.91,-0.83,0.21,0.97,-0.05,-88.7,64.4,170.0,-2.12,-1.98,-0.08,0.0,0.9937303457175894,6.064931986428207,0.029642138240831395,0.35,0,1,0.0
3.3001998270010517,124,86.91,100.7,5.8,-7.3,0.96,6.3,-0.52,0.1,0.99,-0.03,-87.9,85.6,206.0,-2.14,-2.61,-0.04,0.0,0.9954898291795853,6.393903346157181,0.02732500168325891,0.35,0,1,0.0
3.3116578820008726,125,86.92,100.8,5.9,-7.9,0.68,6.6,-0.23,0.0,0.99,-0.02,-86.9,109.4,223.0,-2.17,-3.24,0.02,0.0,0.9902019995940222,6.638923105444135,0.031960574643445594,0.35,0,1,0.0
3.320030136001151,126,86.93,100.7,6.0,-8.6,0.2,6.75,-0.02,-0.06,0.98,0.0,-85.6,132.1,227.0,-2.21,-3.87,-0.02,0.0,0.9818350166906862,6.752991929507987,0.03952100639584599,0.35,0,1,0.0
3.3319939370012435,127,86.94,100.7,6.2,-9.3,-0.27,6.7,0.05,-0.1,0.96,0.02,-84.1,155.7,232.0,-2.25,-4.51,-0.08,0.0,0.9654014708917735,6.705624504846659,0.05483546115086346,0.35,0,1,0.0
3.3402915190017666,128,86.95,100.5,6.3,-9.9,-0.62,6.44,0.07,-0.11,0.96,0.05,-82.4,178.9,233.0,-2.3,-5.16,-0.05,0.0,0.9675742865537508,6.470154557659345,0.05160939257910846,0.35,0,1,0.0
3.3517276310012676,129,86.96,100.4,6.4,-10.5,-0.81,6.04,0.07,-0.1,0.96,0.07,-80.4,201.9,232.0,-2.36,-5.78,0.03,0.0,0.9677293009927931,6.094472905838535,0.05042529057726475,0.35,0,1,0.0
3.3603115460009576,130,86.97,100.3,6.5,-11.1,-0.73,5.59,0.07,-0.08,0.95,0.06,-78.3,225.3,228.0,-2.42,-6.39,-0.11,0.0,0.95524865872714,5.6378985446707,0.06164781418605947,0.35,0,1,0.0
3.371780616000251,131,86.98,100.1,6.6,-11.6,-0.52,5.17,0.07,-0.05,0.96,0.04,-75.9,247.5,226.0,-2.49,-7.0,-0.05,0.0,0.9621330469326994,5.196556552179529,0.053668157460890153,0.35,0,1,0.0
3.380290999000863,132,86.99,100.0,6.7,-12.1,-0.25,4.8,0.03,-0.03,0.96,0.02,-73.2,272.5,249.0,-2.56,-7.72,-0.2,0.0,0.9606768447297978,4.806599629675848,0.05402187247051593,0.35,0,1,0.0
3.3917826560009416,133,87.0,100.0,6.8,-12.6,0.06,4.36,-0.09,0.0,0.97,0.01,-71.0,292.0,317.0,-2.64,-8.39,-0.11,0.0,0.970051545022222,4.361341536729267,0.04375422873452983,0.35,0,1,0.0
3.4003392410013475,134,87.01,99.9,6.8,-13.0,0.41,3.97,-0.3,0.04,0.98,-0.02,-67.2,318.9,241.0,-2.73,-8.91,-0.21,0.0,0.9810198774744576,4.002374295340205,0.03213017835664833,0.35,0,1,0.0
3.411685380000563,135,87.02,100.0,6.9,-13.4,0.71,3.71,-0.58,0.06,1.03,-0.06,-63.8,340.7,249.0,-2.82,-9.61,0.58,0.0,1.0334892355511014,3.82159652501412,0.019932396125595497,0.35,0,1,0.0
3.420150462001402,136,87.03,100.0,6.8,-13.7,0.73,3.53,-0.8,0.07,1.06,-0.09,-60.2,367.7,243.0,-2.92,-10.25,-0.01,0.0,1.0661144403862093,3.69239759505934,0.05150644894148937,0.35,0,1,0.0
3.4319581230010954,137,87.04,99.9,6.8,-14.1,0.39,3.44,-0.92,0.08,1.05,-0.1,-56.4,386.6,212.0,-3.03,-10.79,-0.16,0.0,1.0577806956075537,3.5821920663191693,0.0423092500795772,0.35,0,1,0.0
3.440210658000069,138,87.05,99.9,6.7,-14.5,0.16,3.4,-1.01,0.07,1.02,-0.12,-52.4,414.4,270.0,-3.14,-11.61,0.02,0.0,1.029417310909429,3.550450675618519,0.013666948073823404,0.35,0,1,0.0
3.4517322620013147,139,87.06,99.8,6.7,-14.8,0.16,3.42,-1.04,0.06,1.0,-0.13,-48.5,435.0,207.0,-3.26,-12.04,-0.29,0.0,1.010198000393982,3.5782118439242803,0.0054413151927910075,0.35,0,1,0.0
3.46020697700078,140,87.07,99.8,6.6,-15.2,0.31,3.42,-1.07,0.03,0.98,-0.13,-43.6,452.5,188.0,-3.39,-12.56,-0.11,0.0,0.9890399385262457,3.5968597414967403,0.026067389519316753,0.35,0,1,0.0
3.471682351000709,141,87.08,99.8,6.5,-15.5,0.48,3.34,-1.1,0.01,0.98,-0.13,-38.9,472.0,200.0,-3.52,-13.11,-0.05,0.0,0.9886354231970448,3.549084388965695,0.025942466751547433,0.35,0,1,0.0
3.480290455001523,142,87.09,99.8,6.4,-15.9,0.45,3.23,-1.14,0.0,0.99,-0.13,-34.0,496.5,227.0,-3.65,-13.76,-0.26,0.0,0.9984988733093293,3.45470693402494,0.015757436306477746,0.35,0,1,0.0
3.491952892001791,143,87.1,99.8,6.3,-16.2,0.26,3.1,-1.19,0.0,0.98,-0.13,-29.0,511.1,162.0,-3.79,-14.09,-0.01,0.0,0.9885848471426213,3.3307206427438496,0.02515803322372201,0.35,0,1,0.0
3.5003149650001433,144,87.11,99.7,6.2,-16.5,0.07,2.91,-1.26,0.0,0.96,-0.14,-23.7,531.7,190.0,-3.94,-14.64,-0.29,0.0,0.9701546268507922,3.171844889019638,0.04271648844524012,0.35,0,1,0.0
3.5121531820004748,145,87.12,99.7,6.1,-16.8,-0.09,2.78,-1.3,0.0,0.98,-0.14,-18.3,546.2,195.0,-4.09,-15.21,-0.07,0.0,0.9899494936611665,3.070260575260673,0.02246318920216861,0.35,0,1,0.0
3.520245989000614,146,87.13,99.6,5.9,-17.1,-0.36,2.62,-1.28,0.0,0.96,-0.13,-12.7,572.3,187.0,-4.24,-15.67,0.02,0.0,0.9687620966986683,2.9380946206683,0.04277757444137342,0.35,0,1,0.0
3.532200481000473,147,87.14,99.5,5.8,-17.4,-0.49,2.4,-1.28,0.0,0.95,-0.13,-6.9,580.3,116.0,-4.4,-15.89,0.07,0.0,0.9588534820294495,2.7637836384203447,0.051632465328380284,0.35,0,1,0.0
3.544040592001693,148,87.15,99.4,5.7,-17.7,-0.64,2.18,-1.24,0.0,0.94,-0.14,-1.1,580.7,15.0,-4.56,-15.69,0.08,0.0,0.9503683496413377,2.5883585532147593,0.05891524576216234,0.35,0,1,0.0
3.5522886450016813,149,87.16,99.3,5.5,-17.9,-0.74,2.03,-1.16,-0.04,0.95,-0.14,4.3,491.8,-1503.0,-4.68,-8.73,2.73,0.0,0.9610931276416453,2.45236620430147,0.04722665840661755,0.35,0,1,0.0
3.560321124001348,150,87.17,99.2,5.4,-18.1,-0.92,1.65,-1.04,0.0,0.93,-0.13,5.9,-13.2,-3809.0,-4.66,5.05,0.34,0.0,0.9390420650854786,2.1565017968923654,0.0678921665435287,0.35,0,1,0.0
3.571659698000076,151,87.18,99.2,5.3,-18.3,-0.14,1.35,-1.36,0.03,0.87,-0.16,4.1,-190.7,-1424.0,-4.61,4.73,0.02,0.0,0.8850988645343525,1.921379712602379,0.11939865975276165,0.35,0,1,0.0
3.5801850610005204,152,87.19,99.1,5.1,-18.4,-1.05,1.14,-1.19,0.0,1.04,-0.21,2.4,-147.0,-184.0,-4.57,3.4,-0.13,0.0,1.0609901036296239,1.9540214942523022,0.055362727755659424,0.35,0,1,0.0
3.5916815900000074,153,87.2,98.9,5.1,-18.5,-1.86,1.32,-0.78,0.0,0.93,-0.23,1.3,-97.8,260.0,-4.55,2.05,-0.21,0.0,0.9580187889597992,2.41047713119208,0.04665641517588204,0.35,0,1,0.0
3.600181165000322,154,87.21,98.7,5.0,-18.7,-1.63,1.19,-0.75,-0.02,0.88,-0.16,0.7,-48.2,411.0,-4.53,0.71,-0.23,0.0,0.8946507698538017,2.15302113319865,0.10782394559624209,0.35,0,1,0.0
3.6117941810007324,155,87.22,98.6,4.9,-18.8,-1.19,0.72,-0.79,0.0,0.89,-0.22,0.5,-0.7,430.0,-4.54,-0.46,-0.41,0.0,0.9167878707749137,1.599562440169186,0.08397310778162748,0.35,0,1,0.0
3.620241257000089,156,87.23,98.5,4.9,-18.9,-1.01,0.75,-0.74,0.0,0.96,-0.25,0.8,33.7,350.0,-4.55,-1.28,-0.11,0.0,0.9920181449953422,1.4595204691952763,0.008567976889974904,0.35,0,1,0.0
3.6318820170017716,157,87.24,98.4,4.8,-18.9,-1.46,0.79,-0.5,0.0,1.0,-0.25,1.3,62.6,309.0,-4.56,-2.05,-0.08,0.0,1.0307764064044151,1.7336954749897688,0.029586478828716123,0.35,0,1,0.0
3.6400467670009675,158,87.25,98.2,4.8,-19.0,-1.89,0.74,-0.26,0.0,1.0,-0.23,2.1,92.0,296.0,-4.59,-2.84,-0.03,0.0,1.0261091559868276,2.04628932460686,0.024420843842906104,0.35,0,1,0.0
3.651893222000581,159,87.26,98.0,4.8,-19.1,-2.14,0.49,-0.01,-0.01,0.98,-0.21,3.2,117.5,252.0,-4.62,-3.44,0.06,0.0,1.002297361066066,2.1954042907856404,0.0005968679437016178,0.35,0,1,0.0
3.660216340000261,160,87.27,97.7,4.8,-19.1,-2.28,0.23,0.17,-0.03,0.95,-0.22,4.3,82.9,-556.0,-4.64,-0.48,0.61,0.0,0.975602378020882,2.2978685776170926,0.02557615279945269,0.35,0,1,0.0
3.6717133480015036,161,87.28,97.5,4.8,-19.1,-2.21,0.0,0.32,-0.06,0.92,-0.21,4.2,-35.8,-672.0,-4.63,1.32,-0.1,0.0,0.9455686120002081,2.233047245357787,0.05449772044372392,0.35,0,1,0.0
3.6841735590005555,162,87.29,97.3,4.9,-19.1,-2.04,-0.23,0.48,-0.1,0.9,-0.19,3.8,-30.7,-32.0,-4.62,0.37,0.0,0.0,0.9252567211320327,2.108293148497144,0.07331341908566136,0.35,0,1,0.0
3.692113810000592,163,87.3,97.1,4.9,-19.1,-2.32,-0.62,0.86,-0.13,0.92,-0.17,3.8,1.0,130.0,-4.62,-0.18,0.05,0.0,0.9445633912025175,2.5507645912549437,0.052926614034872976,0.35,0,1,0.0
3.700188219001575,164,87.31,96.9,5.0,-19.0,-2.17,-1.08,1.16,-0.15,0.86,-0.14,3.8,0.8,-21.0,-4.62,0.14,-0.01,0.0,0.8841379982785492,2.687173235948885,0.11108496681966451,0.35,0,1,0.0
3.711839173000044,165,87.32,96.7,5.1,-18.8,-1.58,-1.82,1.32,-0.14,0.84,-0.12,3.7,-11.1,-88.0,-4.62,0.47,0.01,0.0,0.8599999999999999,2.747944686488431,0.13251850579624957,0.35,0,1,0.0
3.720187701001123,166,87.33,96.6,5.3,-18.6,-1.12,-2.45,1.35,-0.09,0.86,-0.16,3.5,-25.8,-134.0,-4.61,0.91,0.06,0.0,0.879374777896205,3.0132042745223897,0.11088085334204356,0.35,0,1,0.0
3.731826364000881,167,87.34,96.5,5.4,-18.3,-0.68,-2.65,1.28,-0.02,0.87,-0.2,3.1,-46.0,-200.0,-4.6,1.56,0.0,0.0,0.8929165694509202,3.020480094289648,0.09539228055158178,0.35,0,1,0.0
3.7402225420009927,168,87.35,96.5,5.4,-18.0,-0.51,-2.58,1.12,0.04,0.89,-0.23,2.5,-72.8,-259.0,-4.58,2.36,0.18,0.0,0.9201086892318755,2.858478616327224,0.06683615755521399,0.35,0,1,0.0
3.7517148860006273,169,87.36,96.5,5.5,-17.8,-0.52,-2.35,0.9,0.1,0.9,-0.27,1.5,-109.2,-359.0,-4.55,3.5,0.35,0.0,0.9449338601193208,2.569610865481387,0.04117076693441335,0.35,0,1,0.0
3.7602005310000095,170,87.37,96.4,5.6,-17.5,-0.66,-1.95,0.73,0.18,0.9,-0.29,0.1,-157.3,-459.0,-4.5,4.91,0.0,0.0,0.9625487000666512,2.1842618890600094,0.023084808447341287,0.35,0,1,0.0
3.7716229370016663,171,87.38,96.4,5.6,-17.3,-0.56,-1.5,0.56,0.23,0.86,-0.32,-1.7,-199.1,-384.0,-4.45,5.79,0.09,0.0,0.9459915433025815,1.6962311163281967,0.0388491259071827,0.35,0,1,0.0
3.7803316230001656,172,87.39,96.4,5.7,-17.2,-0.27,-0.95,0.48,0.24,0.84,-0.36,-3.9,-229.4,-306.0,-4.38,6.49,0.03,0.0,0.9448809448814173,1.0980892495603443,0.03916052984177998,0.35,0,1,0.0
3.791774504001296,173,87.4,96.4,5.7,-17.1,0.21,-0.46,0.5,0.21,0.81,-0.37,-6.3,-242.3,-139.0,-4.32,6.6,-0.1,0.0,0.9149316914393119,0.711125867902441,0.06772758761820774,0.35,0,1,0.0
3.8004106810003577,174,87.41,96.4,5.8,-17.1,0.86,0.01,0.58,0.12,0.83,-0.37,-8.7,-241.1,-18.0,-4.25,6.46,-0.13,0.0,0.916624241442479,1.0373523991392701,0.06471433686273975,0.35,0,1,0.0
3.8120722620005836,175,87.42,96.5,5.8,-17.1,1.16,0.1,0.74,0.04,0.86,-0.3,-11.1,-234.1,40.0,-4.19,6.27,-0.25,0.0,0.9117017056033184,1.3795651488784428,0.06824413524786233,0.35,0,1,0.0
3.8203050770007394,176,87.43,96.7,5.9,-17.1,1.8,-0.07,0.64,-0.01,0.9,-0.25,-13.4,-227.0,58.0,-4.13,6.08,0.05,0.0,0.9341306118525396,1.9116746585127922,0.04489892441866827,0.35,0,1,0.0
3.8320760330007033,177,87.44,96.9,5.9,-17.1,2.52,-0.32,0.26,-0.03,0.97,-0.22,-15.6,-221.9,48.0,-4.07,5.98,-0.01,0.0,0.9950879358127099,2.553507391804457,0.01573723155067197,0.35,0,1,0.0
3.840386217001651,178,87.45,97.2,5.9,-17.1,2.63,-0.42,-0.39,-0.02,1.03,-0.25,-17.8,-217.6,42.0,-4.01,5.87,0.17,0.0,1.0600943354249186,2.6917280694750723,0.07912875853962298,0.35,0,1,0.0
3.8521242620008707,179,87.46,97.4,5.8,-17.0,2.25,-0.71,-1.02,-0.05,1.05,-0.24,-20.0,-214.8,29.0,-3.95,5.82,0.01,0.0,1.0782393055347221,2.5704085278414404,0.09532825407643797,0.35,0,1,0.0
3.8601640400011092,180,87.47,97.6,5.7,-16.9,1.62,-0.97,-1.46,-0.07,1.06,-0.23,-22.1,-212.8,28.0,-3.89,5.73,-0.13,0.0,1.086922260329597,2.3868179654091763,0.1019309846938865,0.35,0,1,0.0
3.8723302020007395,181,87.48,97.8,5.5,-16.8,1.23,-1.37,-1.59,-0.08,1.02,-0.15,-24.0,-208.5,52.0,-3.83,5.54,0.07,0.0,1.0340696301506973,2.432673426500154,0.04809678742468715,0.35,0,1,0.0
3.8801285330009705,182,87.49,97.9,5.3,-16.7,1.41,-1.99,-1.65,-0.05,1.0,-0.1,-26.2,-196.0,112.0,-3.78,5.14,0.08,0.0,1.0062305898749053,2.9446052366998194,0.019852592205917285,0.35,0,1,0.0
3.8918501760017534,183,87.5,98.1,5.1,-16.5,2.07,-2.32,-1.75,0.0,1.05,-0.08,-28.0,-177.9,175.0,-3.73,4.56,-0.17,0.0,1.0530432089900206,3.567884527279435,0.0653319070946119,0.35,0,1,0.0
3.9002421340010187,184,87.51,98.3,4.9,-16.3,2.56,-2.4,-2.07,0.04,1.15,-0.05,-29.6,-154.3,226.0,-3.69,3.86,0.0,0.0,1.1517812292271479,4.074125673073918,0.1607885287851044,0.35,0,1,0.0
3.9117716800010385,185,87.52,98.6,4.6,-16.1,2.91,-2.23,-2.61,0.12,1.27,-0.07,-31.0,-125.1,276.0,-3.66,3.03,0.01,0.0,1.2775758294520134,4.500344431263012,0.28085146642977055,0.35,0,1,0.0
3.9201940300008573,186,87.53,98.9,4.3,-15.9,3.15,-2.08,-3.12,0.23,1.45,-0.09,-32.0,-94.2,302.0,-3.64,2.16,-0.17,0.0,1.4708840878872815,4.897274752349515,0.4646765303677378,0.35,0,2,0.0
3.9319283200002246,187,87.54,99.2,4.0,-15.8,2.16,-2.01,-3.15,0.31,1.57,-0.09,-32.7,-61.7,316.0,-3.62,1.28,-0.04,0.0,1.6028412273210344,4.316039851530567,0.5847009964054608,0.35,0,2,0.0
3.9402585420011746,188,87.55,99.3,3.7,-15.6,0.23,-1.89,-2.36,0.21,1.5,-0.09,-33.1,-29.9,314.0,-3.61,0.43,-0.07,0.0,1.5173002339682151,3.0322598833213488,0.4891768029915886,0.35,0,2,0.0
3.951386223001464,189,87.56,99.3,3.4,-15.5,-0.68,-2.1,-1.46,0.0,1.33,0.04,-33.2,-2.8,256.0,-3.61,-0.14,-0.1,0.0,1.3306013678032953,2.6465071320516027,0.29642837809013534,0.35,0,2,0.0
3.9597030880013335,190,87.57,99.2,3.3,-15.2,-0.4,-2.98,-0.63,-0.22,1.2,0.15,-33.2,5.2,82.0,-3.61,-0.08,0.04,0.0,1.229186723000212,3.0720188801503157,0.19111345862131102,0.35,0,2,0.0
3.9720593970014306,191,87.58,99.2,3.2,-14.9,0.31,-4.19,-0.05,-0.31,1.13,0.16,-33.2,-1.4,-19.0,-3.61,0.12,0.0,0.0,1.1826242006656214,4.201749635568498,0.14165991756098584,0.35,0,2,0.0
3.9803212210008496,192,87.59,99.3,3.1,-14.4,0.43,-5.16,0.19,-0.35,1.13,0.17,-33.3,-7.9,-47.0,-3.61,0.29,0.14,0.0,1.195115057222525,5.181370475077033,0.1510677586355318,0.35,0,2,0.0
3.991899526999987,193,87.6,99.3,3.1,-13.8,-0.21,-6.04,0.31,-0.3,1.12,0.15,-33.4,-14.9,-71.0,-3.61,0.53,0.08,0.0,1.169144986731757,6.0515948311168355,0.12259573438186844,0.35,0,2,0.0
4.000240996001594,194,87.61,99.3,3.0,-13.2,-1.07,-6.67,0.21,-0.16,1.08,0.1,-33.6,-29.6,-142.0,-3.6,1.03,0.07,0.0,1.0963576058932598,6.758542742337286,0.04881218647250396,0.35,0,2,0.0
4.011761617000957,195,87.62,99.2,2.9,-12.5,-1.74,-6.81,0.0,0.01,1.04,0.04,-34.1,-49.5,-192.0,-3.58,1.64,-0.06,0.0,1.0408169867945085,7.028776564950688,0.006593863973722414,0.35,0,2,0.0
4.020025038000313,196,87.63,99.0,2.8,-11.9,-2.05,-6.69,-0.12,0.16,0.99,-0.02,-34.7,-75.0,-246.0,-3.56,2.39,0.06,0.0,1.0030453628824572,6.998071162827655,0.04347817812805821,0.35,0,2,0.0
4.032052346001365,197,87.64,98.8,2.7,-11.2,-2.23,-6.1,-0.12,0.25,0.94,-0.08,-35.7,-101.7,-254.0,-3.53,3.08,0.17,0.0,0.9759610647971567,6.4959448889287845,0.06915122668909157,0.35,0,2,0.0
4.0442983620014274,198,87.65,98.7,2.6,-10.7,-2.11,-5.48,-0.04,0.27,0.91,-0.03,-36.9,-127.8,-256.0,-3.5,3.79,0.1,0.0,0.9496841580230767,5.872316408369018,0.09351957079390816,0.35,0,2,0.0
4.052253828000175,199,87.66,98.5,2.5,-10.1,-1.86,-5.27,0.13,0.25,0.87,-0.02,-38.3,-152.2,-240.0,-3.46,4.41,0.08,0.0,0.9054280755532159,5.5901162778604165,0.1350201401984935,0.35,0,2,0.0
4.060182902001543,200,87.67,98.3,2.4,-9.6,-1.58,-5.03,0.27,0.23,0.86,-0.09,-40.0,-174.4,-226.0,-3.41,5.01,-0.11,0.0,0.8947625383307014,5.279223427740107,0.14277196387258795,0.35,0,2,0.0
4.072047821000524,201,87.68,98.2,2.4,-9.1,-1.28,-4.59,0.45,0.22,0.86,-0.12,-41.9,-194.4,-201.0,-3.35,5.5,0.15,0.0,0.8957678270623476,4.786334714580668,0.13893134163812293,0.35,0,2,0.0
4.080221882000842,202,87.69,98.1,2.4,-8.7,-0.89,-4.19,0.66,0.2,0.88,-0.1,-43.7,-210.4,-176.0,-3.3,5.95,0.16,0.0,0.9079647570252933,4.334028149424045,0.12419972344167363,0.35,0,2,0.0
4.09174829100084,203,87.7,98.1,2.4,-8.3,-0.41,-3.95,0.82,0.17,0.89,-0.09,-46.2,-225.9,-139.0,-3.23,6.27,-0.06,0.0,0.9105492847726586,4.054996917384772,0.11918289178042207,0.35,0,2,0.0
4.100189480001063,204,87.71,98.1,2.5,-7.9,-0.1,-3.69,0.86,0.14,0.91,-0.12,-48.5,-235.7,-110.0,-3.17,6.52,0.03,0.0,0.9284934033152847,3.790211075916485,0.09921399777303996,0.35,0,2,0.0
4.111830585001371,205,87.72,98.1,2.6,-7.5,-0.11,-3.37,0.87,0.11,0.94,-0.12,-50.9,-243.5,-73.0,-3.1,6.66,-0.06,0.0,0.9539916142189091,3.482226299366542,0.07224147113202739,0.35,0,2,0.0
4.120164421001391,206,87.73,98.1,2.6,-7.2,-0.17,-3.16,0.89,0.08,0.95,-0.1,-53.4,-245.3,-23.0,-3.04,6.64,-0.01,0.0,0.9585927185202274,3.287339349686917,0.06628755949409482,0.35,0,2,0.0
4.1321104540002125,207,87.74,98.0,2.7,-6.9,-0.1,-3.09,0.94,0.08,0.96,-0.1,-55.8,-242.3,13.0,-2.97,6.55,0.13,0.0,0.96850400102426,3.231361941968123,0.05524875145026087,0.35,0,2,0.0
4.144296351001685,208,87.75,98.0,2.8,-6.6,-0.03,-3.12,1.03,0.09,0.96,-0.11,-58.2,-241.5,-5.0,-2.9,6.59,0.15,0.0,0.9704638066409277,3.2857571425776433,0.052223166916921304,0.35,0,2,0.0
4.1523073480002495,209,87.76,98.0,2.9,-6.2,0.07,-3.18,1.08,0.11,0.95,-0.13,-60.6,-242.5,5.0,-2.84,6.54,-0.04,0.0,0.9651424765287248,3.359121909070881,0.056393607088541686,0.35,0,2,0.0
4.160201955000957,210,87.77,98.1,3.0,-5.9,0.15,-3.16,1.07,0.13,0.95,-0.16,-63.0,-237.8,40.0,-2.77,6.4,0.01,0.0,0.972111104761179,3.3396107557618153,0.04843647927896577,0.35,0,2,0.0
4.171781611001279,211,87.78,98.1,3.1,-5.6,0.13,-3.1,1.04,0.14,0.96,-0.17,-65.4,-230.3,60.0,-2.71,6.19,0.05,0.0,0.9849365461794988,3.2723844517415737,0.03489881710343301,0.35,0,2,0.0
4.1802402480007,212,87.79,98.2,3.2,-5.3,0.16,-2.99,1.05,0.14,0.97,-0.19,-67.6,-224.2,57.0,-2.65,6.03,0.27,0.0,0.9982985525382675,3.173042703778189,0.02110607452977109,0.35,0,2,0.0
4.191989726001339,213,87.8,98.2,3.3,-5.0,0.01,-2.92,1.12,0.13,0.97,-0.2,-69.8,-219.2,58.0,-2.59,5.87,-0.15,0.0,0.9988993943335835,3.127443045044945,0.020095128079765878,0.35,0,2,0.0
4.200240500000291,214,87.81,98.3,3.4,-4.6,-0.21,-2.85,1.23,0.12,0.98,-0.2,-72.0,-211.2,82.0,-2.53,5.6,0.08,0.0,1.0073728207570423,3.111189483139849,0.011389267623181043,0.35,0,2,0.0
4.2117825640016235,215,87.82,98.3,3.5,-4.3,-0.45,-2.74,1.27,0.12,0.96,-0.21,-74.0,-200.3,101.0,-2.48,5.31,0.04,0.0,0.99,3.0533588062984016,0.028186846612618943,0.35,0,2,0.0
4.220133109000017,216,87.83,98.3,3.7,-4.1,-0.68,-2.67,1.29,0.12,0.95,-0.21,-75.9,-188.5,114.0,-2.43,4.98,-0.06,0.0,0.9803060746521975,3.042268890154189,0.03712315652121301,0.35,0,2,0.0
4.232137704000706,217,87.84,98.3,3.8,-3.8,-0.87,-2.56,1.33,0.13,0.94,-0.22,-77.7,-175.8,124.0,-2.38,4.62,-0.03,0.0,0.9741149829460586,3.0132042745223897,0.042447963262804866,0.35,0,2,0.0
4.240211917000124,218,87.85,98.2,3.9,-3.5,-0.86,-2.42,1.32,0.14,0.92,-0.22,-79.4,-162.8,129.0,-2.34,4.25,0.04,0.0,0.9562426470305536,2.8876287850068265,0.059113893194743694,0.35,0,2,0.0
4.251713112000289,219,87.86,98.1,4.0,-3.3,-0.84,-2.29,1.31,0.15,0.92,-0.22,-80.9,-149.2,136.0,-2.3,3.88,0.21,0.0,0.9577577981932593,2.7687181149405586,0.056446767191397185,0.35,0,2,0.0
4.26022703900162,220,87.87,98.1,4.0,-3.0,-0.9,-2.15,1.23,0.16,0.91,-0.24,-82.3,-135.4,140.0,-2.26,3.49,-0.33,0.0,0.9546203433826455,2.6354126811564065,0.058392537561970936,0.35,0,2,0.0
4.27165767400038,221,87.88,98.0,4.1,-2.8,-0.96,-1.98,1.16,0.17,0.91,-0.24,-83.6,-119.7,155.0,-2.23,3.05,0.02,0.0,0.9563472172804185,2.4874886934416405,0.055532350390913865,0.35,0,2,0.0
4.28035015200112,222,87.89,97.9,4.2,-2.6,-1.19,-1.78,1.08,0.18,0.9,-0.26,-84.7,-104.7,145.0,-2.2,2.66,0.01,0.0,0.9539392014169457,2.398103417286252,0.056781558929299036,0.35,0,2,0.0
4.292260639000233,223,87.9,97.8,4.3,-2.4,-1.5,-1.53,0.99,0.18,0.88,-0.28,-85.6,-89.4,154.0,-2.18,2.23,-0.01,0.0,0.940850678907126,2.360296591532513,0.06847267981033633,0.35,0,2,0.0
4.3002421490000415,224,87.91,97.6,4.4,-2.3,-1.73,-1.26,0.82,0.19,0.84,-0.29,-86.4,-74.1,150.0,-2.16,1.83,-0.13,0.0,0.9087353850269064,2.2919205919926635,0.09857621421674478,0.35,0,2,0.0
4.311650804000237,225,87.92,97.4,4.4,-2.1,-2.01,-0.99,0.65,0.2,0.8,-0.29,-87.0,-59.6,142.0,-2.14,1.45,-0.29,0.0,0.874128137060008,2.33295949386182,0.1305197929399704,0.35,0,2,0.0
4.320161677000215,226,87.93,97.2,4.5,-2.1,-2.24,-0.69,0.45,0.21,0.77,-0.31,-87.5,-46.9,129.0,-2.13,1.12,0.01,0.0,0.8562125904236634,2.3866713221556086,0.14546663278478877,0.35,0,2,0.0
4.332123181000497,227,87.94,97.0,4.5,-2.0,-2.2,-0.32,0.23,0.23,0.77,-0.32,-87.9,-36.2,110.0,-2.12,0.86,-0.02,0.0,0.8649855490122363,2.235016778460511,0.13395980071229152,0.35,0,2,0.0
4.340091284000664,228,87.95,96.8,4.5,-2.0,-1.98,0.03,0.08,0.23,0.77,-0.3,-88.2,-26.4,99.0,-2.12,0.61,-0.02,0.0,0.8577878525602936,1.981842576997477,0.13833434722094962,0.35,0,2,0.0
4.351945892000003,229,87.96,96.6,4.5,-2.0,-1.61,0.28,-0.07,0.21,0.77,-0.29,-88.4,-19.0,73.0,-2.11,0.44,0.04,0.0,0.8491760712596652,1.6356650023767092,0.14400720595114636,0.35,0,2,0.0
4.360253601000295,230,87.97,96.5,4.5,-2.1,-1.1,0.57,-0.26,0.2,0.8,-0.29,-88.6,-15.6,23.0,-2.11,0.47,-0.05,0.0,0.874128137060008,1.2658988901172163,0.11667403734778747,0.35,0,2,0.0
4.3716009270010545,231,87.98,96.4,4.5,-2.1,-0.7,0.82,-0.42,0.18,0.78,-0.26,-88.8,-20.1,-25.0,-2.1,0.61,0.0,0.0,0.8416650165000326,1.1570652531296581,0.14615441474960766,0.35,0,2,0.0
4.380293986001561,232,87.99,96.3,4.4,-2.2,-0.25,0.98,-0.63,0.18,0.76,-0.25,-89.0,-23.0,-26.0,-2.09,0.68,-0.02,0.0,0.8200609733428362,1.1915536076903968,0.16440328874866794,0.35,0,2,0.0
4.392307416001131,233,88.0,96.3,4.4,-2.3,0.22,1.07,-0.75,0.19,0.76,-0.23,-89.2,-28.2,-81.0,-2.09,0.92,-0.03,0.0,0.8164557550780079,1.3250660360902773,0.16464833687322633,0.35,0,2,0.0
4.400163389000227,234,88.01,96.4,4.3,-2.5,0.82,1.1,-0.71,0.2,0.79,-0.21,-89.7,-40.5,-100.0,-2.07,1.23,0.01,0.0,0.84154619599877,1.54483008774428,0.136766738033415,0.35,0,2,0.0
4.411818207001488,235,88.02,96.5,4.3,-2.6,1.48,1.1,-0.61,0.19,0.81,-0.2,-90.1,-50.7,-97.0,-2.06,1.48,0.05,0.0,0.8556868586112564,1.9422924599555034,0.12017355391251006,0.35,0,2,0.0
4.420174567001595,236,88.03,96.7,4.2,-2.7,2.07,1.02,-0.46,0.17,0.87,-0.15,-90.7,-59.7,-95.0,-2.04,1.75,-0.18,0.0,0.8990550594930212,2.3530618351416095,0.0752692459701303,0.35,0,2,0.0
4.432102320000922,237,88.04,96.9,4.2,-2.8,2.31,0.73,-0.24,0.13,0.92,-0.11,-91.4,-71.1,-108.0,-2.02,2.06,0.16,0.0,0.9356281312572854,2.4344609259546557,0.03792225072174882,0.35,0,2,0.0
4.440143889001774,238,88.05,97.1,4.2,-2.8,2.3,0.3,-0.05,0.09,0.97,-0.1,-92.2,-81.0,-102.0,-2.0,2.32,0.04,0.0,0.9792854537876073,2.320021551624036,0.005620370372401706,0.35,0,2,0.0
4.4517986940009,239,88.06,97.3,4.3,-2.8,2.1,-0.06,0.19,0.05,1.04,-0.16,-93.0,-89.8,-82.0,-1.98,2.51,0.06,0.0,1.0534229919647664,2.1094312029549576,0.07816275037856957,0.35,0,2,0.0
4.4602908880006,240,88.07,97.5,4.3,-2.8,1.68,-0.21,0.33,0.01,1.02,-0.25,-94.0,-96.0,-66.0,-1.95,2.67,-0.03,0.0,1.0502380682492898,1.724934781375806,0.0734782701298311,0.35,0,2,0.0
4.471889711001495,241,88.08,97.7,4.3,-2.8,1.48,-0.14,0.22,0.01,1.01,-0.31,-95.0,-99.8,-43.0,-1.92,2.75,0.1,0.0,1.0565509926170151,1.502797391533536,0.07819537060760529,0.35,0,2,0.0
4.480266537000716,242,88.09,97.8,4.3,-2.8,1.24,0.17,0.16,0.06,1.08,-0.31,-96.0,-101.9,-15.0,-1.89,2.76,0.05,0.0,1.1252110913068714,1.2617844506887854,0.14391835991151225,0.35,0,2,0.0
4.492052372001126,243,88.1,98.0,4.3,-2.8,1.15,0.51,0.37,0.1,1.15,-0.24,-97.0,-100.8,-2.0,-1.87,2.73,-0.01,0.0,1.1790250209389113,1.3112970677920393,0.19377764375268114,0.35,0,2,0.0
4.4999906240009295,244,88.11,98.1,4.4,-2.9,1.63,0.54,0.73,0.11,1.16,-0.21,-98.0,-101.0,5.0,-1.84,2.7,-0.23,0.0,1.1839763511151733,1.8658510122729521,0.19475439445036435,0.35,0,2,0.0
4.5119504050016985,245,88.12,98.4,4.5,-2.9,2.35,0.48,0.98,0.11,1.14,-0.25,-99.0,-98.6,19.0,-1.81,2.64,-0.07,0.0,1.1722627691776277,2.591003666535422,0.1793799962625624,0.35,0,2,0.0
4.520272222000131,246,88.13,98.7,4.7,-2.9,3.15,0.58,0.93,0.17,1.21,-0.26,-100.0,-94.5,40.0,-1.79,2.51,0.06,0.0,1.2492397688194208,3.335236123575061,0.25122985598626835,0.35,0,2,0.0
4.531873941001322,247,88.14,99.0,4.8,-3.0,3.78,0.94,1.24,0.22,1.46,-0.17,-100.9,-88.0,69.0,-1.76,2.26,-0.03,0.0,1.4862368586466963,4.087737760669096,0.47846240689727293,0.35,0,3,0.0
4.540327866001462,248,88.15,99.4,5.0,-3.1,3.61,1.04,2.0,0.16,1.63,-0.07,-101.7,-75.2,113.0,-1.74,1.88,-0.05,0.0,1.63932913107771,4.2560192668736825,0.618923585741721,0.35,0,3,0.0
4.551931404001152,249,88.16,99.6,5.3,-3.1,2.55,0.93,2.63,0.1,1.62,-0.1,-102.3,-58.4,163.0,-1.73,1.34,-0.04,0.0,1.6261611236282831,3.779457633047366,0.5936404667264481,0.35,0,3,0.0
4.560293674001514,250,88.17,99.7,5.5,-3.2,1.05,0.89,2.57,0.09,1.48,-0.1,-102.7,-36.8,212.0,-1.72,0.67,0.03,0.0,1.4861022845013057,2.915390196869023,0.4445099950474811,0.35,0,3,0.0
4.571858418001284,251,88.18,99.7,5.8,-3.2,-0.37,0.77,2.01,0.16,1.27,-0.07,-102.9,-8.9,266.0,-1.72,-0.12,-0.13,0.0,1.2819516371532897,2.1840100732368426,0.2355521607454758,0.35,0,3,0.0
4.579791401001785,252,88.19,99.6,5.9,-3.3,-0.93,0.92,1.23,0.22,1.1,-0.08,-102.8,14.3,211.0,-1.72,-0.58,-0.3,0.0,1.124633273560764,1.7956057473732923,0.07666912120989111,0.35,0,3,0.0
4.592289517000609,253,88.2,99.5,6.0,-3.4,-0.63,1.48,0.47,0.27,1.0,-0.1,-102.6,29.6,174.0,-1.73,-1.0,-0.06,0.0,1.0406248123122954,1.675768480429203,0.0071925532378058765,0.35,0,3,0.0
4.6000249440003245,254,88.21,99.5,6.1,-3.6,0.13,2.22,-0.17,0.3,0.96,-0.09,-102.2,46.0,177.0,-1.75,-1.48,-0.01,0.0,1.00980196078241,2.2302914607736812,0.03725509667233751,0.35,0,3,0.0
4.611965065001641,255,88.22,99.5,6.1,-3.9,0.71,2.93,-0.52,0.31,0.98,-0.07,-101.6,67.0,204.0,-1.76,-2.09,0.14,0.0,1.0302426898551622,3.0593136485166084,0.016478080247593674,0.35,0,3,0.0
4.620284036000157,256,88.23,99.5,6.1,-4.2,0.81,3.61,-0.72,0.28,0.92,-0.06,-100.7,91.5,236.0,-1.79,-2.79,-0.05,0.0,0.9635351576356724,3.7691643636222607,0.08152190021774175,0.35,0,3,0.0
4.631992685001023,257,88.24,99.6,6.1,-4.6,0.58,4.07,-0.72,0.23,0.91,-0.02,-99.7,116.6,244.0,-1.82,-3.47,-0.14,0.0,0.938829057922687,4.173691411688219,0.10410343993211257,0.35,0,3,0.0
4.639946468001654,258,88.25,99.5,6.1,-5.0,0.28,4.3,-0.51,0.19,0.9,0.04,-98.3,140.9,246.0,-1.86,-4.14,-0.13,0.0,0.9207062506576135,4.3391819505524305,0.11978172225324235,0.35,0,3,0.0
4.651917414001218,259,88.26,99.5,6.1,-5.5,0.23,4.42,-0.35,0.15,0.83,0.04,-96.9,162.8,241.0,-1.91,-4.77,-0.02,0.0,0.844393273303382,4.439797292670016,0.19217280561532435,0.35,0,3,0.0
4.660163766000551,260,88.27,99.5,6.1,-5.9,0.35,4.62,-0.25,0.11,0.82,0.01,-95.1,185.7,227.0,-1.96,-5.36,-0.04,0.0,0.8274055837375041,4.63997844822581,0.2049772852775782,0.35,0,3,0.0
4.671894811001039,261,88.28,99.5,6.2,-6.4,0.43,4.85,-0.18,0.07,0.83,0.01,-93.1,206.9,220.0,-2.02,-5.97,-0.06,0.0,0.8330066026148892,4.872350562100391,0.19538874107218906,0.35,0,3,0.0
4.680308276001597,262,88.29,99.5,6.3,-6.9,0.41,4.8,-0.14,0.04,0.88,0.05,-90.9,231.8,252.0,-2.08,-6.72,-0.15,0.0,0.8823264701911645,4.819512423471902,0.1431474960259954,0.35,0,3,0.0
4.691794999000194,263,88.3,99.5,6.3,-7.3,0.22,4.5,-0.14,0.02,0.9,0.05,-88.4,259.1,254.0,-2.15,-7.39,-0.15,0.0,0.90160967164289,4.5075492232475955,0.12138700868278451,0.35,0,3,0.0
4.7000355680011126,264,88.31,99.4,6.4,-7.8,0.07,4.09,-0.23,0.0,0.93,0.02,-85.6,281.2,221.0,-2.23,-7.92,0.22,0.0,0.9302150289046076,4.097059921455872,0.09092601839264547,0.35,0,3,0.0
4.711904625000898,265,88.32,99.4,6.4,-8.2,-0.02,3.79,-0.46,-0.01,0.94,-0.01,-82.7,300.4,208.0,-2.32,-8.49,0.0,0.0,0.9401063769595438,3.8178658960209697,0.07941397693095509,0.35,0,3,0.0
4.720215093000661,266,88.33,99.3,6.4,-8.5,0.05,3.56,-0.75,-0.02,0.94,-0.02,-79.5,322.8,225.0,-2.4,-9.12,-0.17,0.0,0.9404254356406997,3.638488697247801,0.07751301988480319,0.35,0,3,0.0
4.731885192000846,267,88.34,99.3,6.4,-8.9,0.22,3.36,-0.99,-0.03,0.95,-0.02,-76.1,344.6,216.0,-2.5,-9.7,-0.06,0.0,0.9506839643120104,3.509715088151743,0.06590940138922252,0.35,0,3,0.0
4.740263505000257,268,88.35,99.3,6.3,-9.2,0.14,3.11,-1.04,-0.03,0.93,-0.02,-72.5,369.1,252.0,-2.6,-10.45,-0.03,0.0,0.9306986622962343,3.2822705555758196,0.08417680933689864,0.35,0,3,0.0
4.751721686001474,269,88.36,99.3,6.3,-9.5,0.12,2.88,-1.02,-0.01,0.9,-0.04,-68.6,394.8,232.0,-2.71,-11.02,-0.12,0.0,0.9009439494219382,3.0576461534978177,0.1116528917669708,0.35,0,3,0.0
4.760063225001431,270,88.37,99.3,6.2,-9.8,0.26,2.75,-0.92,0.01,0.89,-0.05,-64.6,415.6,233.0,-2.83,-11.71,-0.09,0.0,0.8914594774862176,2.9114429412234752,0.11871461642863756,0.35,0,3,0.0
4.7719654550001,271,88.38,99.3,6.2,-10.1,0.61,2.69,-0.85,0.03,0.9,-0.07,-60.2,442.4,239.0,-2.95,-12.31,0.0,0.0,0.903216474606171,2.8862952031973443,0.10481846692251051,0.35,0,3,0.0
4.780295130000013,272,88.39,99.3,6.1,-10.4,0.74,2.67,-0.77,0.04,0.93,-0.09,-55.7,461.0,221.0,-3.07,-12.97,-0.04,0.0,0.9352005132590552,2.8756564467961048,0.07137773970423378,0.35,0,3,0.0
4.791757676000998,273,88.4,99.3,6.1,-10.7,0.62,2.67,-0.74,0.04,0.94,-0.1,-50.8,491.9,268.0,-3.21,-13.69,0.02,0.0,0.9461500938011896,2.8391724146307142,0.0592195959788574,0.35,0,3,0.0
4.800227356001415,274,88.41,99.3,6.0,-11.0,0.46,2.6,-0.74,0.04,0.95,-0.11,-45.8,509.6,188.0,-3.35,-14.12,-0.09,0.0,0.957183368012629,2.7421159712893255,0.04722259533206963,0.35,0,3,0.0
4.811980782000319,275,88.42,99.3,5.9,-11.2,0.34,2.5,-0.79,0.03,0.94,-0.13,-40.6,527.5,184.0,-3.49,-14.61,0.06,0.0,0.9494208761134337,2.6438040774611116,0.05388538548663968,0.35,0,3,0.0
4.819999834000555,276,88.43,99.3,5.8,-11.5,0.43,2.42,-0.85,0.02,0.94,-0.14,-35.1,550.6,241.0,-3.65,-15.33,-0.08,0.0,0.9505787710652915,2.600730666562764,0.05167294072408635,0.35,0,3,0.0
4.832126874000096,277,88.44,99.3,5.7,-11.7,0.43,2.28,-0.87,0.01,0.95,-0.13,-29.5,567.6,154.0,-3.8,-15.64,-0.04,0.0,0.9589056262218926,2.4779426950597543,0.04247916385613559,0.35,0,3,0.0
4.840237642001739,278,88.45,99.3,5.6,-12.0,0.45,2.1,-0.89,0.0,0.94,-0.15,-23.7,586.4,182.0,-3.96,-16.12,0.08,0.0,0.951892851112981,2.324779559442142,0.04850210018574608,0.35,0,3,0.0
4.851787364001211,279,88.46,99.4,5.5,-12.2,0.6,2.01,-0.94,0.0,0.95,-0.17,-17.7,599.9,199.0,-4.13,-16.79,0.0,0.0,0.965090669315583,2.298630026776819,0.03459819634348127,0.35,0,3,0.0
4.860103853001419,280,88.47,99.4,5.4,-12.4,0.62,1.89,-0.95,0.0,0.96,-0.18,-11.6,623.0,146.0,-4.3,-16.95,-0.16,0.0,0.9767292357659824,2.204313952230943,0.02250043729522022,0.35,0,3,0.0
4.872070505000011,281,88.48,99.5,5.3,-12.6,0.48,1.78,-0.91,0.0,0.96,-0.19,-5.3,621.7,12.0,-4.46,-16.69,0.03,0.0,0.9786214794290998,2.0559426062028097,0.020196029759460665,0.35,0,3,0.0
4.880278176000502,282,88.49,99.5,5.2,-12.8,0.31,1.73,-0.83,-0.01,0.97,-0.21,0.7,608.2,-143.0,-4.63,-15.8,0.58,0.0,0.9925220400575495,1.9436820727680748,0.006169559748390729,0.35,0,3,0.0
4.891743406000387,283,88.5,99.5,5.2,-13.0,0.1,1.64,-0.68,-0.01,0.97,-0.21,5.7,396.7,-2942.0,-4.7,-1.22,2.45,0.0,0.9925220400575495,1.7782013384316184,0.0060461685534228815,0.35,0,3,0.0
4.9002445620008075,284,88.51,99.5,5.1,-13.1,0.32,1.43,-0.68,0.03,0.93,-0.22,5.8,-127.9,-3298.0,-4.65,5.56,-0.06,0.0,0.9561380653441218,1.6154565918030728,0.04158154040151352,0.35,0,3,0.0
4.91168390600069,285,88.52,99.6,5.1,-13.3,1.13,1.44,-0.87,0.05,0.91,-0.21,3.9,-185.9,-971.0,-4.6,4.35,-0.14,0.0,0.9352539762011173,2.0266721491153916,0.061216316953627725,0.35,0,3,0.0
4.920183309001004,286,88.53,99.7,5.0,-13.4,-0.88,1.43,-0.33,0.02,1.06,-0.31,2.4,-137.7,-19.0,-4.57,3.01,-0.31,0.0,1.104581368664165,1.711198410471445,0.1059488539992316,0.35,0,3,0.0
4.932106946000204,287,88.54,99.5,5.0,-13.6,-1.22,2.01,0.03,0.0,0.9,-0.26,1.3,-87.8,323.0,-4.55,1.63,-0.2,0.0,0.9368030742904295,2.3514676268237245,0.06059285156701377,0.35,0,3,0.0
4.94031423800152,288,88.55,99.4,5.1,-13.8,-0.79,1.7,0.02,-0.03,0.86,-0.21,0.8,-37.6,442.0,-4.54,0.24,-0.1,0.0,0.8857764955111419,1.8746999759961591,0.10938704173937541,0.35,0,3,0.0
4.951870075999977,289,88.56,99.3,5.1,-13.9,-0.28,1.37,0.0,-0.04,0.87,-0.24,0.8,10.6,426.0,-4.54,-0.78,-0.07,0.0,0.9033825324855468,1.3983204210766573,0.08994538466967117,0.35,0,3,0.0
4.9603272340009426,290,88.57,99.3,5.1,-14.1,-0.39,1.29,0.15,-0.05,0.92,-0.22,1.1,40.4,317.0,-4.56,-1.47,0.0,0.0,0.9472592042308167,1.3559867255987428,0.04514733866591325,0.35,0,3,0.0
4.972034511001766,291,88.58,99.2,5.1,-14.2,-0.78,1.12,0.28,-0.06,0.91,-0.22,1.7,67.1,287.0,-4.58,-2.22,0.0,0.0,0.9381364506296512,1.3932695360195027,0.053184690421737124,0.35,0,3,0.0
4.980231574001664,292,88.59,99.1,5.2,-14.3,-1.04,0.85,0.44,-0.08,0.92,-0.2,2.5,88.6,135.0,-4.6,-2.03,0.33,0.0,0.9448809448814174,1.4134001556530267,0.045511392246571525,0.35,0,3,0.0
4.991786786000375,293,88.6,99.0,5.3,-14.3,-1.11,0.43,0.55,-0.06,0.9,-0.21,3.1,26.2,-595.0,-4.6,0.75,0.18,0.0,0.926120942425988,1.3112970677920393,0.06298596680796087,0.35,0,3,0.0
5.000213608000195,294,88.61,98.9,5.3,-14.4,-0.92,0.34,0.65,-0.12,0.91,-0.22,2.8,-35.4,-372.0,-4.59,1.13,0.09,0.0,0.9438749917229505,1.176647780773839,0.04432727916077839,0.35,0,3,0.0
5.011663683000734,295,88.62,98.8,5.4,-14.4,-1.4,-0.01,0.89,-0.13,0.96,-0.2,2.4,-49.0,-239.0,-4.58,1.64,0.01,0.0,0.9891915891272024,1.6589755875238188,0.0009695318786040463,0.35,0,3,0.0
5.020242470000085,296,88.63,98.7,5.5,-14.3,-1.62,-0.2,1.14,-0.12,0.95,-0.21,1.7,-76.2,-309.0,-4.55,2.65,0.05,0.0,0.9803060746521975,1.9909796583591708,0.007757662944472776,0.35,0,3,0.0
5.032146238001587,297,88.64,98.5,5.6,-14.3,-1.51,-0.43,1.26,-0.1,0.93,-0.2,0.7,-119.4,-426.0,-4.52,4.05,0.11,0.0,0.9565040512198577,2.0131070513015445,0.03092849264927633,0.35,0,3,0.0
5.040236794000521,298,88.65,98.4,5.7,-14.2,-1.4,-0.66,1.3,-0.06,0.94,-0.22,-0.8,-172.5,-480.0,-4.47,5.39,0.3,0.0,0.9672641831474997,2.0212867188996224,0.019764993507201623,0.35,0,3,0.0
5.051648697000928,299,88.66,98.2,5.9,-14.1,-1.36,-0.68,1.25,0.0,0.94,-0.24,-2.9,-221.9,-506.0,-4.4,6.81,0.16,0.0,0.9701546268507922,1.9683749642789101,0.016537058807830962,0.35,0,3,0.0
5.060282948001259,300,88.67,98.1,6.0,-14.0,-1.39,-0.57,1.2,0.1,0.93,-0.25,-5.4,-265.0,-390.0,-4.33,7.59,0.16,0.0,0.9681941953967707,1.9227584351654785,0.018127540456615465,0.35,0,3,0.0
5.071787944001699,301,88.68,98.0,6.1,-14.0,-1.11,-0.23,1.14,0.15,0.91,-0.29,-8.2,-288.2,-266.0,-4.25,8.09,-0.01,0.0,0.966798841538404,1.607669120186116,0.019132436428682453,0.35,0,3,0.0
5.08019685400177,302,88.69,97.9,6.2,-14.0,-0.86,0.01,1.11,0.15,0.86,-0.31,-11.2,-301.8,-156.0,-4.17,8.31,0.14,0.0,0.9263908462414769,1.4042079618062275,0.05834962309109737,0.35,0,3,0.0
5.091756490000989,303,88.7,97.8,6.3,-14.0,-0.16,0.29,1.01,0.14,0.82,-0.35,-14.3,-306.8,-64.0,-4.08,8.31,-0.06,0.0,0.9024965373894793,1.0629205050237764,0.08059905330423311,0.35,0,3,0.0
5.100169780000215,304,88.71,97.9,6.4,-14.0,0.69,0.49,0.9,0.11,0.84,-0.38,-17.3,-300.1,56.0,-4.0,7.91,0.0,0.0,0.9284934033152846,1.235394673778384,0.053510143630859264,0.35,0,3,0.0
5.111849304001225,305,88.72,98.0,6.5,-14.0,1.25,0.67,0.69,0.07,0.83,-0.41,-20.2,-283.6,127.0,-3.93,7.46,0.0,0.0,0.9283856957105704,1.5771810295587503,0.052545494210862076,0.35,0,3,0.0
5.120303168001556,306,88.73,98.1,6.6,-14.1,1.65,0.8,0.46,0.03,0.88,-0.4,-22.9,-267.8,152.0,-3.86,6.99,-0.04,0.0,0.9671090941563936,1.8905290264896752,0.01354565384973816,0.35,0,3,0.0
5.132007119000264,307,88.74,98.3,6.6,-14.2,1.68,0.71,0.25,0.0,0.97,-0.36,-25.5,-247.9,197.0,-3.79,6.4,0.01,0.0,1.0346496991735898,1.840923681199196,0.052915052144108965,0.35,0,3,0.0
5.140206415000648,308,88.75,98.4,6.6,-14.2,1.72,0.55,-0.11,-0.01,1.01,-0.38,-27.8,-225.1,216.0,-3.73,5.77,-0.13,0.0,1.079166344916297,1.8091434437324199,0.09548306392907968,0.35,0,3,0.0
5.151770952001243,309,88.76,98.6,6.6,-14.3,1.54,0.5,-0.66,-0.02,1.04,-0.36,-29.9,-203.5,208.0,-3.68,5.25,-0.08,0.0,1.100727032465361,1.7484850585578362,0.1147028764485809,0.35,0,3,0.0
5.160229266000897,310,88.77,98.7,6.5,-14.4,1.33,0.33,-1.31,-0.04,1.07,-0.3,-31.8,-187.6,159.0,-3.63,4.9,-0.17,0.0,1.1119802156513399,1.8957584234284706,0.12343693844186854,0.35,0,3,0.0
5.17161309200128,311,88.78,98.9,6.3,-14.4,1.17,-0.03,-1.9,-0.03,1.09,-0.27,-33.6,-174.1,146.0,-3.58,4.53,1.09,0.0,1.1233432244866215,2.231546548920725,0.1321039483316072,0.35,0,3,0.0
5.18026377500064,312,88.79,99.0,6.1,-14.4,0.95,-0.14,-2.33,-0.01,1.1,-0.26,-35.2,-160.7,146.0,-3.54,4.12,-0.09,0.0,1.1303539268742335,2.5201190448072093,0.13633235770483487,0.35,0,3,0.0
5.191680786001598,313,88.8,99.0,5.9,-14.4,0.94,-0.35,-2.77,0.01,1.1,-0.23,-36.7,-144.9,155.0,-3.5,3.69,-0.04,0.0,1.123832727766904,2.9460142565846485,0.1272149354255553,0.35,0,3,0.0
5.200260812000124,314,88.81,99.2,5.5,-14.4,0.91,-0.5,-3.18,0.09,1.16,-0.19,-38.0,-125.7,197.0,-3.47,3.05,0.0,0.0,1.1788977903109328,3.3452204710601663,0.17863439801019232,0.35,0,3,0.0
5.21175538100033,315,88.82,99.2,5.2,-14.4,0.74,-0.44,-3.72,0.18,1.2,-0.16,-39.1,-101.0,238.0,-3.44,2.33,0.06,0.0,1.2239281024635393,3.8183242397680166,0.21919141595954295,0.35,0,3,0.0
5.220229293001466,316,88.83,99.3,4.8,-14.5,0.99,-0.06,-4.58,0.3,1.3,-0.16,-40.0,-73.6,262.0,-3.42,1.57,-0.09,0.0,1.343726162579266,4.686160475271841,0.33220968655376426,0.35,0,3,0.0
5.232072597000297,317,88.84,99.4,4.3,-14.6,1.3,0.48,-5.31,0.43,1.43,-0.19,-40.5,-44.4,296.0,-3.41,0.72,-0.27,0.0,1.5052906696050432,5.487850216614881,0.48389870970795057,0.35,0,4,0.0
5.240092539001125,318,88.85,99.5,3.8,-14.8,0.45,1.34,-4.96,0.38,1.51,-0.2,-40.7,-12.2,313.0,-3.41,-0.12,-0.11,0.0,1.5698726062964472,5.15748969945651,0.5375110334713675,0.35,0,4,0.0
5.251935123000294,319,88.86,99.5,3.4,-15.0,-0.6,1.8,-3.85,0.12,1.35,-0.08,-40.7,9.5,180.0,-3.41,-0.27,-0.11,0.0,1.3576818478568535,4.292143986401202,0.31881386953113844,0.35,0,4,0.0
5.260250386001644,320,88.87,99.4,3.1,-15.2,-0.82,1.47,-2.22,-0.15,1.26,0.06,-40.6,7.0,10.0,-3.41,-0.02,0.07,0.0,1.2703149215844078,2.785982770944573,0.22681800439351885,0.35,0,4,0.0
5.27187069500178,321,88.88,99.3,3.0,-15.3,-0.07,0.26,-0.68,-0.38,1.1,0.16,-40.6,-2.6,-40.0,-3.41,0.12,-0.02,0.0,1.174734012447073,0.731368580129062,0.12861235335106036,0.35,0,4,0.0
5.2802256570012105,322,88.89,99.4,3.0,-15.3,1.47,-1.45,0.2,-0.49,1.03,0.2,-40.6,-5.7,-35.0,-3.41,0.22,0.04,0.0,1.158015543937127,2.0744637861384807,0.1096560071442918,0.35,0,4,0.0
5.291698681001435,323,88.9,99.6,3.0,-15.0,2.09,-3.11,0.64,-0.48,1.12,0.24,-40.7,-10.7,-44.0,-3.41,0.36,-0.04,0.0,1.2419339757008019,3.8012892549765267,0.18970295012980753,0.35,0,4,0.0
5.300006182000288,324,88.91,99.7,3.0,-14.6,0.5,-4.64,0.9,-0.3,1.21,0.23,-40.9,-16.5,-68.0,-3.4,0.61,0.16,0.0,1.267675037223657,4.7528517755133075,0.21113513141960927,0.35,0,4,0.0
5.311916454000311,325,88.92,99.7,3.0,-14.1,-1.46,-5.59,0.92,-0.08,1.19,0.15,-41.1,-27.7,-103.0,-3.39,0.93,0.1,0.0,1.2020815280171306,5.850307684216276,0.14263078976882126,0.35,0,4,0.0
5.320257988001686,326,88.93,99.5,3.0,-13.5,-2.86,-5.93,0.68,0.11,1.07,0.11,-41.5,-40.9,-126.0,-3.38,1.32,0.08,0.0,1.081249277456406,6.6186781157569525,0.02136256842393469,0.35,0,4,0.0
5.331836171000759,327,88.94,99.2,2.9,-12.9,-3.17,-5.91,0.25,0.24,0.99,0.07,-42.0,-57.0,-148.0,-3.37,1.77,0.08,0.0,1.021077861869505,6.71114744287443,0.03803267021970691,0.35,0,4,0.0
5.340122204001091,328,88.95,98.9,2.8,-12.3,-3.15,-5.75,-0.15,0.3,0.94,0.05,-42.7,-73.6,-164.0,-3.34,2.24,0.04,0.0,0.9879777325425912,6.558010369006746,0.06971014355568828,0.35,0,4,0.0
5.352133964001041,329,88.96,98.6,2.7,-11.8,-3.39,-5.37,-0.35,0.29,0.89,0.0,-43.5,-89.5,-158.0,-3.32,2.66,0.17,0.0,0.9360555539069249,6.360149369315158,0.11919967574752754,0.35,0,4,0.0
5.360087086000931,330,88.97,98.3,2.6,-11.3,-4.12,-4.91,-0.29,0.21,0.85,-0.03,-44.5,-104.8,-154.0,-3.29,3.08,0.17,0.0,0.8760707733967615,6.416120323061281,0.17560076713253714,0.35,0,4,0.0
5.371914552000817,331,88.98,97.9,2.5,-10.8,-3.96,-4.55,-0.12,0.15,0.79,-0.01,-45.7,-119.8,-143.0,-3.26,3.43,0.06,0.0,0.8041765975207187,6.033116939029112,0.2425450441484085,0.35,0,4,0.0
5.380268676000924,332,88.99,97.6,2.5,-10.4,-2.8,-4.36,0.05,0.13,0.78,-0.01,-47.0,-132.1,-128.0,-3.22,3.76,0.01,0.0,0.7908223567907018,5.181901195507302,0.2507812991808569,0.35,0,4,0.0
5.39166133100116,333,89.0,97.4,2.4,-9.9,-1.64,-4.09,0.35,0.13,0.84,-0.04,-48.0,-139.9,-142.0,-3.18,4.0,-0.08,0.0,0.8509406559801923,4.42042984335234,0.1868497399915391,0.35,0,4,0.0
5.400221059000614,334,89.01,97.3,2.4,-9.6,-0.95,-3.65,0.56,0.13,0.89,-0.08,-50.0,-152.9,-117.0,-3.14,4.27,0.04,0.0,0.9029950165975447,3.812951612596205,0.132099471786703,0.35,0,4,0.0
5.411817152000367,335,89.02,97.2,2.5,-9.2,-0.71,-3.27,0.69,0.14,0.95,-0.1,-51.6,-160.3,-78.0,-3.09,4.41,0.15,0.0,0.9654532614269838,3.416591869099966,0.06824840241811858,0.35,0,4,0.0
5.4202901020016725,336,89.03,97.1,2.6,-8.9,-0.81,-2.94,0.83,0.14,1.04,-0.09,-53.2,-165.7,-63.0,-3.05,4.57,-0.05,0.0,1.0532331175955303,3.1604746478970527,0.01914082467541922,0.35,0,4,0.0
5.432217875000788,337,89.04,97.0,2.7,-8.6,-1.02,-2.67,0.91,0.14,1.04,-0.1,-54.9,-169.9,-44.0,-3.0,4.66,-0.05,0.0,1.0541347162483552,2.999566635365849,0.019641574861679167,0.35,0,4,0.0
5.440214567001021,338,89.05,96.9,2.8,-8.3,-1.51,-2.54,1.03,0.14,1.04,-0.11,-56.6,-173.4,-38.0,-2.96,4.76,0.08,0.0,1.0551303237041385,3.129313023652316,0.020224438671113232,0.35,0,4,0.0
5.451732454001103,339,89.06,96.7,2.9,-8.1,-1.8,-2.35,1.03,0.13,0.98,-0.12,-58.4,-177.6,-44.0,-2.91,4.88,-0.28,0.0,0.9958413528268446,3.134230368048909,0.03828324156205709,0.35,0,4,0.0
5.460243214000002,340,89.07,96.6,3.0,-7.8,-1.74,-2.15,1.02,0.14,0.95,-0.14,-60.2,-180.9,-29.0,-2.86,4.94,0.23,0.0,0.9704122835166504,2.947965400068325,0.06243806465480617,0.35,0,4,0.0
5.471805725001104,341,89.08,96.5,3.2,-7.6,-1.68,-1.95,1.08,0.13,0.92,-0.14,-62.0,-181.5,-4.0,-2.81,4.91,0.1,0.0,0.9396275858019495,2.7912900243435828,0.09135830712211701,0.35,0,4,0.0
5.480264954001541,342,89.09,96.3,3.3,-7.4,-1.34,-1.82,1.16,0.12,0.91,-0.14,-63.8,-179.1,19.0,-2.76,4.81,-0.03,0.0,0.9284934033152847,2.5403936702802583,0.10044263981660606,0.35,0,4,0.0
5.491643450000993,343,89.1,96.3,3.5,-7.2,-0.94,-1.75,1.25,0.12,0.92,-0.15,-65.6,-174.7,38.0,-2.71,4.68,0.0,0.0,0.9398404119849284,2.347040689890143,0.08731371852402314,0.35,0,4,0.0
5.50021489700157,344,89.11,96.2,3.6,-7.0,-0.87,-1.66,1.4,0.12,0.93,-0.16,-67.3,-171.7,27.0,-2.67,4.64,0.13,0.0,0.951262319236918,2.339337513057917,0.07437397504659293,0.35,0,4,0.0
5.511962750000748,345,89.12,96.2,3.8,-6.9,-1.04,-1.55,1.58,0.12,0.92,-0.18,-69.0,-169.2,33.0,-2.62,4.53,-0.01,0.0,0.9450925880568528,2.445506082593131,0.07893283210212498,0.35,0,4,0.0
5.520047988000442,346,89.13,96.1,3.9,-6.7,-1.22,-1.43,1.72,0.13,0.92,-0.19,-70.7,-164.6,43.0,-2.58,4.4,-0.13,0.0,0.9483670175622938,2.5478814729103862,0.07414523454475042,0.35,0,4,0.0
5.532086837001771,347,89.14,96.0,4.1,-6.5,-1.29,-1.31,1.8,0.14,0.91,-0.2,-72.3,-157.5,66.0,-2.53,4.19,-0.01,0.0,0.9421783270697751,2.572974931863892,0.07872724653652374,0.35,0,4,0.0
5.540148410000256,348,89.15,95.8,4.3,-6.4,-1.37,-1.22,1.84,0.15,0.9,-0.21,-73.8,-150.7,64.0,-2.49,4.02,-0.01,0.0,0.9362691920596341,2.598249410660955,0.08294365391573144,0.35,0,4,0.0
5.551871194000341,349,89.16,95.7,4.4,-6.3,-1.54,-1.11,1.82,0.15,0.88,-0.24,-75.3,-143.9,72.0,-2.45,3.81,-0.03,0.0,0.9243916918709297,2.6298479043473217,0.092924731022347,0.35,0,4,0.0
5.560146041001644,350,89.17,95.5,4.6,-6.1,-1.83,-1.02,1.7,0.16,0.86,-0.27,-76.6,-136.2,62.0,-2.42,3.66,-0.05,0.0,0.9154780172128656,2.698017790897606,0.09980163756680294,0.35,0,4,0.0
5.572052289000567,351,89.18,95.3,4.7,-6.0,-2.18,-0.87,1.49,0.2,0.83,-0.31,-78.0,-129.7,74.0,-2.38,3.42,-0.03,0.0,0.9082951062292475,2.7801798502974586,0.10484485757941253,0.35,0,4,0.0
5.580169826000201,352,89.19,95.1,4.9,-5.9,-2.64,-0.65,1.25,0.23,0.8,-0.31,-79.2,-122.5,63.0,-2.35,3.27,-0.01,0.0,0.8882567196480982,2.992423766781704,0.1223855792773505,0.35,0,4,0.0
5.591902627000309,353,89.2,94.8,5.0,-5.9,-3.12,-0.41,0.91,0.26,0.75,-0.3,-80.4,-115.3,76.0,-2.32,3.03,-0.03,0.0,0.8485870609430713,3.275759453928204,0.15881413322272986,0.35,0,4,0.0
5.60030565100169,354,89.21,94.5,5.0,-5.9,-3.14,0.01,0.51,0.27,0.7,-0.3,-81.5,-106.9,80.0,-2.29,2.81,-0.12,0.0,0.8080222769206304,3.1811633092313887,0.19539133890026728,0.35,0,4,0.0
5.612026862001585,355,89.22,94.2,5.1,-5.9,-2.65,0.58,0.07,0.27,0.62,-0.33,-82.5,-98.7,82.0,-2.26,2.57,0.17,0.0,0.7524626236564844,2.713632252166826,0.24593197232112507,0.35,0,4,0.0
5.620111072001237,356,89.23,94.0,5.1,-6.0,-1.74,1.31,-0.43,0.25,0.58,-0.33,-83.4,-90.8,78.0,-2.24,2.37,0.01,0.0,0.7126008700527947,2.2200450445880597,0.28007785140631847,0.35,0,4,0.0
5.631872619000205,357,89.24,93.9,5.0,-6.2,-0.66,1.98,-0.85,0.23,0.57,-0.32,-84.3,-83.9,59.0,-2.22,2.24,0.07,0.0,0.6929646455628166,2.253552750658391,0.2937197943783707,0.35,0,4,0.0
5.64007783100169,358,89.25,93.8,4.9,-6.4,0.58,2.4,-1.07,0.19,0.6,-0.27,-85.1,-80.9,40.0,-2.19,2.15,-0.12,0.0,0.6848357467305572,2.690966369169262,0.29581171934641737,0.35,0,4,0.0
5.651935322001009,359,89.26,93.9,4.8,-6.6,1.85,2.44,-1.13,0.14,0.65,-0.24,-85.9,-79.2,20.0,-2.17,2.15,-0.05,0.0,0.7068946173228369,3.2638933806115666,0.268277791779055,0.35,0,4,0.0
5.660254565000287,360,89.27,94.2,4.7,-6.9,2.64,2.41,-1.12,0.1,0.7,-0.24,-86.7,-78.9,3.0,-2.15,2.15,0.05,0.0,0.7467261881037788,3.7459444736941845,0.2238772965781508,0.35,0,4,0.0
5.672025114999997,361,89.28,94.4,4.6,-7.1,2.88,2.32,-1.13,0.1,0.78,-0.19,-87.5,-80.4,-9.0,-2.13,2.21,-0.08,0.0,0.8090117428072352,3.86700142229092,0.1583599070372005,0.35,0,4,0.0
5.680229114001122,362,89.29,94.7,4.6,-7.4,3.04,1.96,-0.98,0.13,0.92,-0.1,-88.3,-81.9,-11.0,-2.11,2.23,0.18,0.0,0.9345052166788584,3.747479152710526,0.03220910450226566,0.35,0,4,0.0
5.692017085000771,363,89.3,95.0,4.5,-7.5,3.1,1.36,-0.58,0.11,1.05,-0.04,-89.1,-82.2,-1.0,-2.08,2.23,0.0,0.0,1.0565036677645754,3.434530535604539,0.08799355965178224,0.35,0,4,0.0
5.700271521000104,364,89.31,95.3,4.5,-7.6,2.89,0.56,-0.25,0.04,1.08,-0.08,-89.9,-80.6,14.0,-2.06,2.15,-0.05,0.0,1.0836973747315253,2.954352720986443,0.11288352128635748,0.35,0,4,0.0
5.7117431340011535,365,89.32,95.5,4.4,-7.7,2.42,0.12,-0.25,-0.02,1.11,-0.22,-90.7,-75.3,54.0,-2.04,1.93,-0.09,0.0,1.1317685275708986,2.4358366119261774,0.15773558064321624,0.35,0,4,0.0
5.720215648001613,366,89.33,95.7,4.4,-7.7,1.68,0.35,-0.49,-0.09,1.14,-0.29,-91.4,-64.0,105.0,-2.03,1.56,0.01,0.0,1.1797457353175724,1.7846568297574745,0.20159853262209226,0.35,0,4,0.0
5.732166192001387,367,89.34,95.9,4.3,-7.8,1.12,0.76,-0.72,-0.1,1.3,-0.18,-91.9,-48.7,143.0,-2.01,1.1,-0.05,0.0,1.3162066707018318,1.5331014317389442,0.33129827864622463,0.35,0,4,0.0
5.740219916000569,368,89.35,96.0,4.3,-7.8,0.96,0.92,-0.3,-0.1,1.52,-0.07,-92.3,-30.9,162.0,-2.0,0.64,-0.14,0.0,1.524893438899912,1.363084736911099,0.5291853459074187,0.35,0,5,0.0
5.751853208001194,369,89.36,96.1,4.3,-7.9,1.02,0.82,0.7,-0.21,1.58,0.0,-92.5,-12.4,196.0,-2.0,0.04,-0.3,0.0,1.5938946012832844,1.4841832770921521,0.5862227781249754,0.35,0,5,0.0
5.760278087000188,370,89.37,96.2,4.4,-8.0,0.82,0.27,1.11,-0.22,1.47,0.0,-92.5,7.0,158.0,-2.0,-0.3,-0.06,0.0,1.486371420607918,1.4062005546862795,0.46912560550061677,0.35,0,5,0.0
5.771776083000077,371,89.38,96.3,4.6,-8.0,1.24,0.03,1.34,-0.02,1.69,0.05,-92.3,11.7,63.0,-2.01,-0.32,0.18,0.0,1.6908577704821892,1.8259518065929343,0.6601397162673903,0.35,0,5,0.0
5.78027341500092,372,89.39,96.4,4.7,-8.0,1.67,0.05,2.26,0.04,1.75,0.13,-92.2,14.0,50.0,-2.01,-0.45,0.31,0.0,1.7552777557982098,2.8105159668644473,0.7100685075517426,0.35,0,5,0.0
5.791804471000432,373,89.4,96.5,5.0,-7.9,0.93,-0.36,2.71,0.09,1.55,0.11,-92.0,23.6,108.0,-2.02,-0.85,-0.12,0.0,1.5565024895579194,2.887663415289254,0.5010673764852231,0.35,0,5,0.0
5.800237432000358,374,89.41,96.6,5.3,-7.8,-0.46,-0.26,2.43,0.29,1.34,0.0,-91.7,39.7,146.0,-2.03,-1.3,-0.14,0.0,1.3710215169719258,2.486785073141626,0.309274675821245,0.35,0,5,0.0
5.811773363000611,375,89.42,96.4,5.5,-7.8,-1.86,0.36,1.78,0.39,1.03,-0.06,-91.1,59.0,190.0,-2.05,-1.88,-0.03,0.0,1.1029959202100432,2.599538420566236,0.040424097478175325,0.35,0,5,0.0
5.82036448800136,376,89.43,96.2,5.6,-7.9,-1.72,1.13,0.89,0.48,0.85,-0.09,-90.4,83.7,236.0,-2.07,-2.6,0.05,0.0,0.9803060746521975,2.2421864329265753,0.08062043311807698,0.35,0,5,0.0
5.8321941000012885,377,89.44,96.1,5.7,-8.1,-0.85,2.2,0.42,0.49,0.86,-0.07,-89.4,109.3,244.0,-2.1,-3.28,-0.13,0.0,0.9922701245124737,2.395600133578223,0.06728325559264481,0.35,0,5,0.0
5.840260279001086,378,89.45,96.0,5.7,-8.3,-0.03,2.99,0.5,0.45,0.87,0.0,-88.1,134.1,247.0,-2.14,-3.95,-0.03,0.0,0.9794896630388705,3.031666208539456,0.07846244272492298,0.35,0,5,0.0
5.851891220001562,379,89.46,96.0,5.8,-8.6,0.76,3.57,0.5,0.36,0.87,-0.01,-86.6,159.1,245.0,-2.18,-4.62,1.49,0.0,0.9415943925066674,3.684087403957729,0.11403055899198344,0.35,0,5,0.0
5.8601923680016625,380,89.47,96.1,5.9,-9.0,1.0,3.98,0.55,0.26,0.96,-0.01,-84.8,182.6,235.0,-2.23,-5.23,-0.07,0.0,0.9946356116689167,4.140398531542586,0.05976955303313958,0.35,0,5,0.0
5.872006929001145,381,89.48,96.1,6.0,-9.4,0.73,4.09,0.57,0.16,1.02,0.03,-82.8,205.6,232.0,-2.29,-5.88,0.1,0.0,1.0329085148259742,4.193554578159201,0.02106671687856032,0.35,0,5,0.0
5.880083518000902,382,89.49,96.2,6.1,-9.8,0.47,3.87,0.48,0.08,1.06,0.03,-80.6,228.1,227.0,-2.35,-6.48,0.05,0.0,1.063437821407533,3.927874743420416,0.009273337908938473,0.35,0,5,0.0
5.8918526800007385,383,89.5,96.2,6.2,-10.2,0.34,3.6,0.25,0.01,1.07,0.0,-78.2,251.0,225.0,-2.42,-7.09,-0.02,0.0,1.0700467279516348,3.6246517074058304,0.015564599563979487,0.35,0,5,0.0
5.900289323000834,384,89.51,96.2,6.2,-10.5,0.29,3.47,-0.2,-0.02,1.02,-0.01,-75.5,273.5,229.0,-2.5,-7.72,-0.04,0.0,1.0202450685987166,3.4878360053190574,0.03355231859315988,0.35,0,5,0.0
5.911649358000432,385,89.52,96.1,6.2,-10.9,0.08,3.28,-0.66,-0.01,0.99,0.02,-72.6,299.0,256.0,-2.58,-8.46,-0.19,0.0,0.9902524930541705,3.3466998670331938,0.06227399625495189,0.35,0,5,0.0
5.920058613000947,386,89.53,96.1,6.2,-11.2,-0.31,3.15,-0.86,0.01,0.92,0.02,-69.4,324.5,237.0,-2.67,-9.07,0.0,0.0,0.9202716990106781,3.2799695120534276,0.1296096944924754,0.35,0,5,0.0
5.932371692000743,387,89.54,96.0,6.1,-11.5,-0.52,2.98,-0.92,0.03,0.86,0.02,-66.1,344.7,219.0,-2.76,-9.65,-0.11,0.0,0.8607554821202128,3.161834910301295,0.18534339315528192,0.35,0,5,0.0
5.940014179001082,388,89.55,95.9,6.1,-11.8,-0.39,2.86,-0.86,0.05,0.81,0.01,-62.4,370.3,260.0,-2.87,-10.42,0.02,0.0,0.8116033513977133,3.011859890499556,0.22980561340022565,0.35,0,5,0.0
5.952321769000264,389,89.56,95.9,6.0,-12.1,0.07,2.85,-0.75,0.04,0.79,0.0,-58.5,395.9,225.0,-2.97,-10.97,-0.2,0.0,0.791012010022604,2.9478636332096504,0.2453890156798283,0.35,0,5,0.0
5.96015888400143,390,89.57,95.9,6.0,-12.4,0.56,2.86,-0.65,0.03,0.79,0.0,-54.4,417.5,260.0,-3.09,-11.76,0.04,0.0,0.7905694150420949,2.9859169445917275,0.2409149784471306,0.35,0,5,0.0
5.971711452000818,391,89.58,95.9,6.0,-12.7,0.68,2.76,-0.52,0.03,0.81,0.0,-50.1,447.2,249.0,-3.21,-12.39,0.0,0.0,0.8105553651663778,2.8897058673851217,0.21651044775639072,0.35,0,5,0.0
5.979519091000839,392,89.59,96.0,5.9,-13.0,0.45,2.53,-0.42,0.03,0.81,0.0,-45.5,464.5,199.0,-3.34,-12.85,0.05,0.0,0.8105553651663778,2.60380490820645,0.2121802388012629,0.35,0,5,0.0
5.99195114000031,393,89.6,96.0,5.9,-13.2,0.27,2.31,-0.44,0.01,0.79,-0.02,-40.7,484.7,199.0,-3.47,-13.41,-0.14,0.0,0.7903163923391695,2.366981199756348,0.2277708273959017,0.35,0,5,0.0
6.000258828000369,394,89.61,96.0,5.9,-13.4,0.5,2.1,-0.55,0.0,0.8,-0.03,-35.7,508.2,249.0,-3.61,-14.17,-0.18,0.0,0.8005623023850175,2.2276669409945464,0.21317441900305267,0.35,0,5,0.0
6.011748990000342,395,89.62,96.0,5.8,-13.7,0.79,1.91,-0.58,-0.02,0.84,-0.03,-30.4,529.4,177.0,-3.75,-14.53,0.06,0.0,0.8407734534343957,2.146765008099396,0.16950400259460097,0.35,0,5,0.0
6.020115836001423,396,89.63,96.1,5.8,-13.8,0.84,1.71,-0.6,-0.04,0.86,-0.05,-25.0,550.0,239.0,-3.91,-15.3,-0.47,0.0,0.8623804264940154,1.9974233402060766,0.14493908894428165,0.35,0,5,0.0
6.031835903000683,397,89.64,96.2,5.8,-14.0,0.84,1.54,-0.58,-0.04,0.88,-0.05,-19.4,569.1,190.0,-4.06,-15.73,-0.02,0.0,0.8823264701911645,1.8475930287809597,0.12249318434218981,0.35,0,5,0.0
6.044300328001555,398,89.65,96.2,5.7,-14.2,0.77,1.27,-0.57,-0.04,0.88,-0.06,-13.5,597.5,245.0,-4.22,-16.48,-0.06,0.0,0.8829496021857647,1.59081739995513,0.11943265130063774,0.35,0,5,0.0
6.052320855000289,399,89.66,96.3,5.7,-14.3,0.79,1.08,-0.58,-0.03,0.87,-0.08,-7.4,613.4,182.0,-4.39,-16.89,-0.05,0.0,0.8741853350405736,1.4583895227270387,0.12563298007691226,0.35,0,5,0.0
6.0602865560013015,400,89.67,96.4,5.6,-14.4,1.02,0.98,-0.64,-0.01,0.86,-0.12,-1.2,628.2,173.0,-4.56,-17.31,0.21,0.0,0.8683893136145792,1.552546295606028,0.12880042147284854,0.35,0,5,0.0
6.071727930000634,401,89.68,96.5,5.6,-14.5,1.16,1.01,-0.64,0.0,0.87,-0.15,4.8,562.1,-1395.0,-4.71,-10.47,2.8,0.0,0.8828363381737296,1.6659231674960284,0.11206632897542412,0.35,0,5,0.0
6.080312809001043,402,89.69,96.6,5.5,-14.6,1.54,0.93,-0.63,0.03,0.88,-0.17,6.9,20.4,-4129.0,-4.69,4.83,0.29,0.0,0.8967719888578144,1.9061479480879757,0.09616806472551254,0.35,0,5,0.0
6.091876512000454,403,89.7,96.8,5.4,-14.7,2.71,0.91,-0.98,0.03,0.85,-0.17,5.1,-194.9,-1649.0,-4.64,4.9,-0.17,0.0,0.8673522929006414,3.022019192526745,0.12307600546903186,0.35,0,5,0.0
6.100008502000492,404,89.71,97.0,5.3,-14.8,1.03,0.91,-0.64,0.01,1.14,-0.22,3.5,-153.1,-256.0,-4.6,3.55,-0.22,0.0,1.161077086157504,1.5161134522191932,0.16723581203207405,0.35,0,5,0.0
6.11186057300074,405,89.72,97.0,5.3,-14.9,-0.45,1.29,0.18,0.0,0.99,-0.22,2.3,-102.3,243.0,-4.57,2.15,-0.12,0.0,1.0141498903022177,1.3780420893427021,0.019902443853252016,0.35,0,5,0.0
6.12026283600062,406,89.73,97.0,5.4,-15.0,0.29,1.04,0.26,-0.01,0.9,-0.15,1.6,-52.1,412.0,-4.56,0.8,-0.12,0.0,0.9124691775616314,1.1105404089901458,0.08014270350958763,0.35,0,5,0.0
6.131937995000044,407,89.74,97.0,5.4,-15.1,0.9,0.62,0.26,0.0,0.93,-0.21,1.4,-3.4,444.0,-4.56,-0.42,-0.17,0.0,0.9534149149242422,1.1233877335986895,0.038413026824037244,0.35,0,5,0.0
6.140109843001483,408,89.75,97.1,5.5,-15.2,0.71,0.66,0.39,0.0,0.99,-0.21,1.7,32.5,357.0,-4.57,-1.25,0.0,0.0,1.01202766760598,1.044892338951722,0.019795731340546574,0.35,0,5,0.0
6.1519272860005,409,89.76,97.2,5.5,-15.2,0.09,0.56,0.51,0.0,0.97,-0.19,2.2,59.8,288.0,-4.59,-1.92,-0.05,0.0,0.9884331034521254,0.7627581530209953,0.0037228561570419316,0.35,0,5,0.0
6.160235751000073,410,89.77,97.1,5.6,-15.3,-0.22,0.46,0.54,-0.01,0.93,-0.2,2.9,84.4,260.0,-4.61,-2.59,-0.25,0.0,0.9513148795220224,0.7426977851050858,0.04002425848540203,0.35,0,5,0.0
6.1719410600017,411,89.78,97.1,5.6,-15.3,-0.27,0.22,0.56,-0.04,0.91,-0.19,4.0,108.9,252.0,-4.64,-3.26,0.14,0.0,0.9304837451562494,0.659469483751902,0.05963828499415158,0.35,0,5,0.0
6.18023831300161,412,89.79,97.1,5.7,-15.3,-0.32,0.0,0.69,-0.1,0.9,-0.21,5.0,94.1,-371.0,-4.66,-1.12,0.98,0.0,0.9295697929687691,0.7605918747922568,0.05934119243799929,0.35,0,5,0.0
6.192290288001459,413,89.8,97.0,5.8,-15.3,-0.41,-0.2,0.89,-0.17,0.9,-0.2,5.1,-24.6,-727.0,-4.65,1.29,-0.2,0.0,0.9374966666607408,1.0000999950004998,0.05038603237110695,0.35,0,5,0.0
6.2001290320004045,414,89.81,97.0,5.9,-15.2,-0.28,-0.56,1.11,-0.22,0.88,-0.18,4.7,-42.6,-206.0,-4.64,0.99,-0.05,0.0,0.9247702417357513,1.2744018204632321,0.06185020815017461,0.35,0,5,0.0
6.211969173000398,415,89.82,97.0,6.0,-15.1,-0.6,-1.12,1.55,-0.23,0.92,-0.17,4.3,-33.2,-39.0,-4.63,0.89,0.06,0.0,0.963431367560762,2.0042205467462906,0.02272530067866063,0.35,0,5,0.0
6.220252607001385,416,89.83,96.9,6.1,-14.9,-0.42,-1.99,1.92,-0.22,0.86,-0.18,4.0,-39.4,-100.0,-4.62,1.28,0.04,0.0,0.9057593499379402,2.796944761699809,0.07878937193545277,0.35,0,5,0.0
6.231887034000465,417,89.84,97.0,6.3,-14.7,0.22,-2.65,1.92,-0.15,0.86,-0.22,3.4,-62.1,-222.0,-4.6,2.09,0.09,0.0,0.9002777349240622,3.2798323127867377,0.08258556721034416,0.35,0,5,0.0
6.240107461000662,418,89.85,97.0,6.5,-14.4,0.6,-2.84,1.74,-0.04,0.9,-0.28,2.6,-100.0,-370.0,-4.58,3.34,0.09,0.0,0.9433981132056605,3.3842576734049077,0.03867588515017095,0.35,0,5,0.0
6.252009245001318,419,89.86,97.1,6.6,-14.1,0.7,-2.59,1.41,0.06,0.96,-0.3,1.2,-164.2,-621.0,-4.53,5.46,0.26,0.0,1.0075713374247999,3.0308744612735117,0.02498739228758906,0.35,0,5,0.0
6.260272177001752,420,89.87,97.2,6.7,-13.8,0.13,-2.16,1.05,0.21,1.02,-0.32,-0.9,-243.2,-696.0,-4.46,7.46,0.04,0.0,1.0894494022211403,2.405202694161139,0.10472814794225083,0.35,0,5,0.0
6.271833978000359,421,89.88,97.2,6.7,-13.6,-0.8,-1.6,0.84,0.31,1.03,-0.35,-3.9,-309.8,-640.0,-4.36,9.11,0.0,0.0,1.131149857445953,1.9762590923257002,0.14350003110372234,0.35,0,5,0.0
6.280337499001689,422,89.89,97.1,6.8,-13.5,-1.5,-0.95,0.77,0.38,0.95,-0.37,-7.5,-348.5,-390.0,-4.27,9.72,0.01,0.0,1.0880257349897566,1.935303593754737,0.09836839047457535,0.35,0,5,0.0
6.292022139001347,423,89.9,97.0,6.9,-13.4,-1.19,0.0,0.71,0.32,0.88,-0.41,-11.1,-362.4,-190.0,-4.17,9.92,0.0,0.0,1.0222035022440492,1.385712812959453,0.031895234574290554,0.35,0,5,0.0
6.300145603001511,424,89.91,96.9,6.9,-13.5,-0.26,0.65,0.68,0.23,0.82,-0.37,-14.7,-364.0,-44.0,-4.08,9.81,0.25,0.0,0.9285472524325296,0.9759610647971568,0.060525794932484556,0.35,0,5,0.0
6.312217310000051,425,89.92,96.9,7.0,-13.5,1.52,1.12,0.47,0.19,0.8,-0.39,-18.2,-348.6,124.0,-3.98,9.17,-0.11,0.0,0.9100549433962766,1.9456875391490793,0.07743774188936281,0.35,0,5,0.0
6.320211890000792,426,89.93,97.2,7.1,-13.7,2.88,1.57,0.19,0.13,0.89,-0.41,-21.5,-327.5,167.0,-3.9,8.7,-0.16,0.0,0.9884836872705589,3.285635402779803,0.0009711819452211667,0.35,0,5,0.0
6.331963970000288,427,89.94,97.5,7.1,-13.9,3.46,1.81,-0.19,0.07,0.97,-0.37,-24.7,-307.9,206.0,-3.81,8.05,-0.22,0.0,1.0405287117614774,3.9094500892069206,0.05195588230741688,0.35,0,5,0.0
6.340225904001272,428,89.95,97.8,7.1,-14.0,3.62,1.76,-0.79,0.03,1.04,-0.3,-27.6,-283.3,231.0,-3.74,7.4,-0.02,0.0,1.0828203913853858,4.101962944737555,0.09236261069269869,0.35,0,5,0.0
6.351903421000316,429,89.96,98.1,7.0,-14.2,3.56,1.45,-1.69,0.02,1.12,-0.28,-30.3,-257.2,249.0,-3.66,6.67,-0.03,0.0,1.1546428019088848,4.199071325900525,0.1609013207918738,0.35,0,5,0.0
6.360106582000299,430,89.97,98.5,6.8,-14.4,3.07,1.27,-2.7,0.04,1.22,-0.28,-32.7,-232.4,247.0,-3.6,6.04,-0.04,0.0,1.2523577763562614,4.281097990002098,0.25344396933446545,0.35,0,5,0.0
6.371952370000145,431,89.98,98.7,6.4,-14.6,1.99,1.0,-3.64,0.07,1.29,-0.21,-34.8,-202.9,302.0,-3.55,5.05,-0.18,0.0,1.3088544609695916,4.26728250763879,0.3037418408688397,0.35,0,5,0.0
6.380258467001113,432,89.99,98.8,6.0,-14.7,0.99,0.64,-4.19,0.1,1.33,-0.16,-36.6,-168.5,322.0,-3.51,4.22,-0.4,0.0,1.3433167906342867,4.352677336996162,0.3314400871228642,0.35,0,5,0.0
6.391785121000794,433,90.0,98.9,5.6,-14.8,0.77,0.46,-4.57,0.13,1.4,-0.17,-37.5,-146.6,447.0,-3.47,3.24,-0.08,0.0,1.4162626874983326,4.657187992769886,0.39629826430717197,0.35,0,6,0.0
6.400268657000197,434,90.01,98.9,5.1,-14.9,0.88,0.68,-4.67,0.14,1.5,-0.13,-39.1,-98.5,418.0,-3.44,2.2,-0.05,0.0,1.5121177202850313,4.800593713281723,0.48231023115199334,0.35,0,6,0.0
6.411997308001446,435,90.02,98.9,4.7,-15.1,0.42,0.71,-4.21,0.07,1.6,-0.01,-39.8,-62.1,378.0,-3.43,1.25,-0.18,0.0,1.601561737804697,4.290058274662478,0.5603191636982257,0.35,0,6,0.0
6.420182254001702,436,90.03,98.9,4.4,-15.2,-0.42,0.34,-3.1,-0.06,1.57,0.08,-40.2,-29.0,328.0,-3.42,0.44,-0.19,0.0,1.5731814898478815,3.146744349323599,0.521300137426582,0.35,0,6,0.0
6.431970248000653,437,90.04,98.8,4.1,-15.2,-0.96,-0.35,-1.62,-0.19,1.45,0.14,-40.3,-1.5,273.0,-3.42,-0.19,-0.09,0.0,1.4690813456034353,1.9153328692423155,0.408855993318493,0.35,0,6,0.0
6.440121100000397,438,90.05,98.8,4.0,-15.2,-0.57,-1.24,-0.34,-0.32,1.25,0.2,-40.2,6.9,83.0,-3.42,-0.1,0.02,0.0,1.3057181931795236,1.4064494303031303,0.24058298407668977,0.35,0,6,0.0
6.4520167150003545,439,90.06,98.8,4.0,-15.0,0.24,-2.44,0.32,-0.35,1.09,0.17,-40.2,-1.3,-23.0,-3.42,0.11,-0.01,0.0,1.1573677030226825,2.4725695136840944,0.09038784404145161,0.35,0,6,0.0
6.460149291000562,440,90.07,98.8,4.0,-14.7,0.48,-3.52,0.56,-0.28,1.02,0.2,-40.3,-6.7,-30.0,-3.42,0.2,0.14,0.0,1.0764757312638311,3.5964426868782433,0.009305954836948072,0.35,0,6,0.0
6.472051576000013,441,90.08,98.9,4.0,-14.3,-0.02,-4.57,0.67,-0.11,1.06,0.2,-40.3,-7.3,-5.0,-3.42,0.18,0.13,0.0,1.0842970072816767,4.618895971982916,0.016784686237697688,0.35,0,6,0.0
6.480207798000265,442,90.09,98.8,4.0,-13.8,-1.48,-5.23,0.69,0.0,1.04,0.16,-40.4,-7.5,-19.0,-3.42,0.26,0.0,0.0,1.0522357150372725,5.478996258440044,0.014971073886572261,0.35,0,6,0.0
6.491952067000966,443,90.1,98.7,4.0,-13.2,-2.56,-5.47,0.41,0.07,0.97,0.12,-40.5,-16.8,-91.0,-3.41,0.63,0.07,0.0,0.9798979538707079,6.053313142403918,0.08556265835207422,0.35,0,6,0.0
6.500273547000688,444,90.11,98.4,3.9,-12.7,-2.93,-5.48,-0.12,0.16,0.9,0.07,-40.8,-31.5,-131.0,-3.4,1.06,-0.06,0.0,0.9167878707749137,6.215279559279695,0.14569928661891107,0.35,0,6,0.0
6.511967478001679,445,90.12,98.1,3.8,-12.1,-3.44,-5.18,-0.54,0.19,0.86,0.01,-41.2,-49.4,-178.0,-3.39,1.62,0.07,0.0,0.8807950953541919,6.241602358369203,0.17805822079884037,0.35,0,6,0.0
6.52018727200084,446,90.13,97.8,3.7,-11.7,-4.02,-4.57,-0.71,0.18,0.83,-0.05,-41.9,-72.7,-223.0,-3.37,2.28,-0.16,0.0,0.850764362206128,6.127756522578227,0.20392717486796608,0.35,0,6,0.0
6.532126662001247,447,90.14,97.4,3.5,-11.3,-3.72,-3.91,-0.66,0.16,0.81,-0.03,-42.8,-100.9,-272.0,-3.34,3.11,0.1,0.0,0.826196102629394,5.437104008569269,0.22392552575580615,0.35,0,6,0.0
6.540319775000171,448,90.15,97.1,3.4,-10.9,-2.64,-3.54,-0.5,0.16,0.78,-0.02,-44.0,-129.1,-276.0,-3.3,3.85,0.25,0.0,0.7964923100695951,4.444232217155175,0.24855673194929295,0.35,0,6,0.0
6.551828646001013,449,90.16,96.9,3.3,-10.6,-1.62,-3.3,-0.13,0.17,0.82,-0.05,-45.5,-156.5,-270.0,-3.26,4.57,-0.06,0.0,0.8389278872465737,3.6784915386609223,0.2019987316768681,0.35,0,6,0.0
6.560217130001547,450,90.17,96.8,3.3,-10.3,-0.93,-2.84,0.23,0.17,0.85,-0.09,-47.2,-182.0,-254.0,-3.21,5.24,0.09,0.0,0.8714929718592113,2.997232056414718,0.16604497412294594,0.35,0,6,0.0
6.571788821000155,451,90.18,96.8,3.3,-10.0,-0.55,-2.47,0.47,0.17,0.87,-0.1,-49.2,-206.4,-245.0,-3.15,5.89,0.29,0.0,0.8920762299265685,2.5737715516339055,0.142552481734477,0.35,0,6,0.0
6.5801627570017445,452,90.19,96.8,3.4,-9.8,-0.28,-2.16,0.63,0.17,0.91,-0.09,-51.4,-228.3,-216.0,-3.09,6.43,0.17,0.0,0.9301075206662938,2.2673552875542025,0.10243076717485666,0.35,0,6,0.0
6.592056307001258,453,90.2,96.7,3.4,-9.6,-0.19,-1.98,0.84,0.17,0.97,-0.09,-53.8,-243.8,-157.0,-3.02,6.76,0.07,0.0,0.9888882646689665,2.1591896628133433,0.04277702270874029,0.35,0,6,0.0
6.600245701001768,454,90.21,96.7,3.5,-9.4,-0.44,-1.81,1.02,0.15,0.97,-0.1,-56.3,-252.5,-109.0,-2.95,6.98,0.07,0.0,0.986610358753647,2.1236996021094883,0.04415383005157869,0.35,0,6,0.0
6.611998610000228,455,90.22,96.7,3.7,-9.2,-0.79,-1.62,1.09,0.13,0.95,-0.11,-58.9,-262.5,-99.0,-2.88,7.23,0.02,0.0,0.9651424765287248,2.1063238117630445,0.06430927803097097,0.35,0,6,0.0
6.6203822460011,456,90.23,96.6,3.8,-9.0,-0.8,-1.49,1.01,0.12,0.92,-0.09,-61.6,-268.2,-46.0,-2.81,7.27,0.1,0.0,0.932148056909416,1.9698223270132766,0.09535762369727419,0.35,0,6,0.0
6.631981297001403,457,90.24,96.5,3.9,-8.8,-0.68,-1.43,0.98,0.11,0.89,-0.11,-64.3,-265.1,13.0,-2.74,7.14,-0.02,0.0,0.9034932207825358,1.8621761463406195,0.12153221062767139,0.35,0,6,0.0
6.640136360001634,458,90.25,96.5,4.0,-8.7,-0.4,-1.46,0.96,0.11,0.88,-0.11,-66.9,-260.8,26.0,-2.67,7.05,0.11,0.0,0.8936442245099556,1.7925400971805343,0.12875358276224658,0.35,0,6,0.0
6.651854243000344,459,90.26,96.5,4.1,-8.5,-0.1,-1.45,0.92,0.12,0.87,-0.15,-69.5,-257.4,37.0,-2.6,6.93,0.03,0.0,0.8909545442950498,1.7201453426963664,0.12881439771760939,0.35,0,6,0.0
6.660266921000584,460,90.27,96.5,4.2,-8.4,0.08,-1.35,0.94,0.11,0.9,-0.17,-72.0,-248.1,93.0,-2.53,6.57,-0.15,0.0,0.922496612459905,1.6469669092000605,0.09532688296169911,0.35,0,6,0.0
6.671729984000194,461,90.28,96.6,4.4,-8.2,0.12,-1.26,1.0,0.11,0.9,-0.19,-74.4,-233.9,129.0,-2.47,6.17,-0.27,0.0,0.926390846241477,1.613071604114337,0.0896039961965246,0.35,0,6,0.0
6.680077032000554,462,90.29,96.7,4.5,-8.1,0.18,-1.16,1.07,0.1,0.91,-0.2,-76.6,-218.8,138.0,-2.41,5.78,-0.28,0.0,0.9370699013414101,1.5883639381451595,0.0773464422746597,0.35,0,6,0.0
6.6919953520009585,463,90.3,96.8,4.6,-8.0,0.11,-1.08,1.12,0.1,0.91,-0.22,-78.7,-203.4,155.0,-2.35,5.33,-0.12,0.0,0.941541289588513,1.5597756248896826,0.07141755294700569,0.35,0,6,0.0
6.700381747001302,464,90.31,96.8,4.7,-7.9,0.0,-1.01,1.16,0.1,0.91,-0.24,-80.6,-186.0,170.0,-2.3,4.83,-0.13,0.0,0.9464142856064675,1.538083222715858,0.06521366579047028,0.35,0,6,0.0
6.71185644200159,465,90.32,96.8,4.8,-7.7,-0.08,-0.94,1.17,0.1,0.9,-0.26,-82.4,-169.0,165.0,-2.26,4.39,-0.18,0.0,0.9421252570651102,1.502963738750872,0.06811264044519105,0.35,0,6,0.0
6.720169371001248,466,90.33,96.8,4.9,-7.6,-0.04,-0.92,1.1,0.1,0.89,-0.27,-83.9,-152.8,164.0,-2.22,3.95,-0.23,0.0,0.9354143466934853,1.434573107234344,0.07332707980047959,0.35,0,6,0.0
6.7318974930003606,467,90.34,96.8,5.0,-7.5,-0.11,-0.96,0.97,0.11,0.88,-0.28,-85.4,-137.5,154.0,-2.18,3.55,-0.24,0.0,0.93,1.3691603266235843,0.07716659796408554,0.35,0,6,0.0
6.740150223000455,468,90.35,96.8,5.1,-7.4,-0.52,-0.98,0.75,0.13,0.85,-0.29,-86.6,-121.2,162.0,-2.15,3.09,0.0,0.0,0.9074690077352504,1.3391415160467544,0.09770363842425855,0.35,0,6,0.0
6.7519517930013535,469,90.36,96.7,5.1,-7.3,-1.21,-0.9,0.42,0.15,0.8,-0.32,-87.7,-107.4,141.0,-2.12,2.75,-0.08,0.0,0.8745856161634492,1.5654072952429985,0.12797528939613867,0.35,0,6,0.0
6.760312734000763,470,90.37,96.5,5.1,-7.2,-1.84,-0.64,0.0,0.18,0.73,-0.35,-88.7,-93.3,142.0,-2.09,2.36,-0.16,0.0,0.8293370846646132,1.9481273059017474,0.1697593444770752,0.35,0,6,0.0
6.771707936000894,471,90.38,96.4,5.1,-7.2,-2.08,-0.26,-0.45,0.21,0.71,-0.34,-89.6,-79.9,129.0,-2.07,2.02,-0.13,0.0,0.8147392220827472,2.1439449619801345,0.18067006291776233,0.35,0,6,0.0
6.780327269001646,472,90.39,96.2,5.0,-7.2,-1.84,0.24,-0.75,0.26,0.7,-0.35,-90.3,-69.0,113.0,-2.05,1.74,-0.08,0.0,0.8246817568007673,2.0014244927051332,0.16731297763574737,0.35,0,6,0.0
6.791905259000487,473,90.4,96.0,4.9,-7.3,-1.13,0.96,-0.89,0.28,0.71,-0.34,-90.9,-58.7,95.0,-2.04,1.51,0.0,0.0,0.8355237878121724,1.7293351323557848,0.15334152769185538,0.35,0,6,0.0
6.800128416000007,474,90.41,95.9,4.9,-7.4,-0.19,1.55,-0.88,0.23,0.7,-0.29,-91.4,-52.1,65.0,-2.02,1.36,0.0,0.0,0.7918333157931661,1.7924843095547587,0.19309135971664448,0.35,0,6,0.0
6.811803778000467,475,90.42,95.9,4.8,-7.6,0.98,1.84,-0.96,0.18,0.66,-0.27,-91.9,-49.2,33.0,-2.01,1.32,0.19,0.0,0.7354590403278758,2.295125268912353,0.2444763224782961,0.35,0,6,0.0
6.820156927000426,476,90.43,96.1,4.7,-7.8,2.03,2.04,-1.15,0.14,0.66,-0.28,-92.4,-51.4,-15.0,-2.0,1.45,-0.01,0.0,0.7304792947099871,3.099193443462347,0.24446694673426117,0.35,0,6,0.0
6.831930469001236,477,90.44,96.3,4.6,-8.0,2.6,2.2,-1.3,0.11,0.72,-0.28,-93.0,-55.5,-26.0,-1.98,1.54,0.05,0.0,0.7803204469959761,3.645545226711637,0.19073327855930666,0.35,0,6,0.0
6.840034866001588,478,90.45,96.6,4.5,-8.3,2.79,2.22,-1.21,0.1,0.83,-0.22,-93.6,-60.5,-55.0,-1.97,1.74,-0.11,0.0,0.8644651525654461,3.765182598493731,0.10445680153004,0.35,0,6,0.0
6.85193386300125,479,90.46,96.9,4.4,-8.5,2.91,1.92,-0.83,0.09,0.94,-0.11,-94.2,-69.7,-81.0,-1.95,2.01,0.01,0.0,0.9506839643120104,3.5837689657677436,0.01787322998780616,0.35,0,6,0.0
6.860148479001509,480,90.47,97.1,4.4,-8.7,3.08,1.15,-0.33,0.05,1.0,-0.03,-95.0,-80.1,-104.0,-1.92,2.34,0.11,0.0,1.0016985574512922,3.304209436461315,0.03247853588844618,0.35,0,6,0.0
6.871922135000204,481,90.48,97.4,4.4,-8.7,3.04,0.17,0.0,0.0,1.05,-0.08,-95.9,-89.9,-84.0,-1.9,2.51,0.23,0.0,1.0530432089900206,3.044749579193665,0.08214672367863107,0.35,0,6,0.0
6.880130593001013,482,90.49,97.7,4.3,-8.7,2.7,-0.33,0.26,-0.04,1.14,-0.24,-96.8,-94.9,-59.0,-1.87,2.63,0.01,0.0,1.1656757696718243,2.732489707208428,0.19088369867322608,0.35,0,6,0.0
6.892131970000264,483,90.5,97.9,4.4,-8.7,2.05,-0.34,0.38,-0.08,1.13,-0.34,-97.8,-97.9,-36.0,-1.85,2.69,-0.05,0.0,1.1827510304370905,2.1124630174277605,0.20379978024972245,0.35,0,6,0.0
6.899938077000115,484,90.51,98.1,4.4,-8.6,1.88,-0.28,0.29,-0.06,1.15,-0.36,-98.8,-96.3,18.0,-1.82,2.54,0.06,0.0,1.2065239326262864,1.922732430682959,0.22302122879013997,0.35,0,6,0.0
6.912338926000302,485,90.52,98.3,4.4,-8.6,1.83,-0.26,0.44,-0.01,1.29,-0.31,-99.7,-90.2,49.0,-1.8,2.36,-0.08,0.0,1.3267629780786017,1.9000263156072341,0.33639506875760605,0.35,0,6,0.0
6.92023729200082,486,90.53,98.5,4.5,-8.5,1.54,-0.47,1.04,0.0,1.37,-0.22,-100.5,-83.8,61.0,-1.77,2.18,-0.09,0.0,1.3875518008348373,1.9167941986556616,0.3892402136835649,0.35,0,7,0.0
6.931862686000386,487,90.54,98.6,4.6,-8.4,1.5,-0.94,1.68,0.02,1.39,-0.24,-101.3,-74.6,87.0,-1.75,1.89,-0.15,0.0,1.4107090415815728,2.440491753725056,0.40414950534169436,0.35,0,7,0.0
6.940245072000835,488,90.55,98.8,4.7,-8.3,1.52,-1.03,2.06,0.04,1.35,-0.28,-102.0,-65.0,94.0,-1.74,1.63,-0.02,0.0,1.3793114224133722,2.7595108262154,0.36529684845002386,0.35,0,7,0.0
6.9522064510001655,489,90.56,99.0,4.9,-8.2,2.14,-0.8,2.13,0.12,1.45,-0.25,-102.6,-53.1,115.0,-1.72,1.28,-0.17,0.0,1.476279106402309,3.123539658784565,0.4530192417901815,0.35,0,7,0.0
6.960091621000174,490,90.57,99.3,5.1,-8.1,2.82,-0.45,2.73,0.14,1.7,-0.08,-103.0,-37.1,152.0,-1.71,0.8,-0.05,0.0,1.7076299364909249,3.9506708291124433,0.6706826704412214,0.35,0,7,0.0
6.972167882000576,491,90.58,99.6,5.4,-8.0,2.59,-0.7,3.54,0.06,1.77,0.02,-103.2,-17.9,197.0,-1.71,0.19,-0.17,0.0,1.7711295830627414,4.4418126930342305,0.7194986706727771,0.35,0,7,0.0
6.979983698000069,492,90.59,99.8,5.8,-7.8,0.95,-1.26,3.74,0.07,1.59,-0.02,-103.3,5.6,200.0,-1.71,-0.35,0.08,0.0,1.5916657940660786,4.059273333984791,0.529234184042592,0.35,0,7,0.0
6.992099750001216,493,90.6,99.7,6.1,-7.6,-1.15,-0.99,2.93,0.22,1.27,-0.16,-103.1,18.5,132.0,-1.72,-0.6,0.08,0.0,1.2988071450373224,3.2996211903792836,0.23164802431355924,0.35,0,7,0.0
7.000116842000352,494,90.61,99.6,6.3,-7.6,-1.77,-0.18,1.69,0.33,1.03,-0.12,-102.8,30.2,143.0,-1.73,-1.02,-0.13,0.0,1.0882095386459356,2.453854111392933,0.02062940956372894,0.35,0,7,0.0
7.01238846400156,495,90.62,99.4,6.4,-7.6,-0.98,0.72,0.66,0.44,0.95,-0.14,-102.4,47.6,167.0,-1.74,-1.52,0.04,0.0,1.0562670116973265,1.383618444514238,0.011086855037182541,0.35,0,7,0.0
7.020249058001355,496,90.63,99.4,6.5,-7.7,-0.03,2.05,0.22,0.48,0.97,-0.15,-101.8,67.8,193.0,-1.76,-2.09,-0.06,0.0,1.0926115503691145,2.061989330719245,0.02475252996191335,0.35,0,7,0.0
7.032188506000239,497,90.64,99.4,6.5,-8.0,0.52,3.42,0.13,0.47,0.96,-0.1,-101.0,91.2,233.0,-1.78,-2.79,-0.09,0.0,1.0735455276791945,3.461748113309228,0.005572777126553463,0.35,0,7,0.0
7.044207512000867,498,90.65,99.4,6.6,-8.4,0.95,4.44,0.1,0.42,0.96,-0.02,-99.9,117.7,245.0,-1.82,-3.5,-0.21,0.0,1.0480458005259121,4.541596635545698,0.019528411026194403,0.35,0,7,0.0
7.052253947000281,499,90.66,99.4,6.7,-8.9,0.62,5.17,0.29,0.36,0.98,0.0,-98.5,142.6,259.0,-1.86,-4.25,-0.15,0.0,1.0440306508910548,5.215112654583791,0.023072689447830586,0.35,0,7,0.0
7.060260992000622,500,90.67,99.4,6.9,-9.4,-0.12,5.67,0.5,0.27,0.95,0.0,-96.9,168.3,239.0,-1.9,-4.83,-0.19,0.0,0.987623410010111,5.693267954347485,0.07789033172219895,0.35,0,7,0.0
7.071831611001471,501,90.68,99.3,7.0,-10.0,-0.74,5.87,0.69,0.19,0.92,0.05,-95.1,191.4,231.0,-1.96,-5.47,-0.11,0.0,0.9407443861113389,5.956559409592085,0.12227396850855166,0.35,0,7,0.0
7.080262222001693,502,90.69,99.1,7.2,-10.5,-0.99,5.73,0.8,0.12,0.88,0.1,-92.8,215.3,240.0,-2.02,-6.14,-0.06,0.0,0.8937561188601731,5.86966779298454,0.16587699104452314,0.35,0,7,0.0
7.09196492800038,503,90.7,98.9,7.3,-11.1,-1.02,5.31,0.7,0.05,0.83,0.12,-90.5,241.2,264.0,-2.09,-6.91,0.09,0.0,0.8401190391843288,5.452201390264302,0.21512378930596,0.35,0,7,0.0
7.100084902000162,504,90.71,98.8,7.5,-11.6,-0.93,4.76,0.38,0.0,0.78,0.11,-87.9,268.2,254.0,-2.16,-7.57,-0.31,0.0,0.7877182237323191,4.864863821321209,0.2621741126628102,0.35,0,7,0.0
7.12792650800111,506,90.73,98.6,7.6,-12.4,0.2,3.55,-0.58,-0.07,0.81,0.08,-82.0,310.2,219.0,-2.33,-8.71,0.0,0.0,0.8169455306200041,3.6026240436659496,0.22828786965962278,0.35,0,7,0.0
7.136286496001048,507,90.74,98.6,7.5,-12.7,0.54,2.99,-1.04,-0.09,0.82,0.05,-78.8,332.7,221.0,-2.42,-9.31,-0.09,0.0,0.8264381404557753,3.211432702081736,0.21441935462737438,0.35,0,7,0.0
7.1443157920002704,508,90.75,98.6,7.5,-13.0,0.76,2.53,-1.38,-0.07,0.85,0.01,-75.3,354.8,232.0,-2.51,-9.97,-0.16,0.0,0.852936105461599,2.9804194335697116,0.18416296182911973,0.35,0,7,0.0
7.152250778000962,509,90.76,98.7,7.3,-13.3,0.9,2.29,-1.51,-0.04,0.87,-0.01,-71.5,383.5,276.0,-2.62,-10.78,-0.1,0.0,0.870976463516667,2.886901453115433,0.16280015169857065,0.35,0,7,0.0
7.160047994000706,510,90.77,98.7,7.2,-13.5,0.76,2.17,-1.41,-0.02,0.87,-0.04,-67.5,407.3,224.0,-2.73,-11.29,0.15,0.0,0.8711486669908874,2.6971466404331816,0.15937538925986328,0.35,0,7,0.0
7.1719668340010685,511,90.78,98.8,7.1,-13.8,0.8,2.11,-1.25,-0.01,0.89,-0.05,-63.3,430.6,263.0,-2.85,-12.09,-0.08,0.0,0.8914594774862176,2.5796511392046795,0.13628328718924243,0.35,0,7,0.0
7.180113400001574,512,90.79,98.8,7.1,-14.0,0.62,2.06,-0.94,0.0,0.91,-0.05,-58.8,457.4,224.0,-2.98,-12.62,0.1,0.0,0.9113725912051558,2.3476797055816623,0.11404277000089813,0.35,0,7,0.0
7.1920215680002,513,90.8,98.8,7.0,-14.2,0.52,1.94,-0.62,0.01,0.91,-0.06,-54.1,479.1,278.0,-3.11,-13.49,-0.13,0.0,0.9120307012376283,2.101999048524999,0.11111696676905702,0.35,0,7,0.0
7.2002121940004145,514,90.81,98.9,7.0,-14.4,0.47,1.81,-0.39,0.0,0.91,-0.06,-49.1,510.1,246.0,-3.25,-14.06,0.08,0.0,0.9119758768739445,1.9102617621676878,0.10894835531008606,0.35,0,7,0.0
7.211950919001538,515,90.82,98.9,7.0,-14.6,0.35,1.58,-0.29,0.0,0.92,-0.07,-43.8,527.6,212.0,-3.39,-14.61,-0.14,0.0,0.9226592003551474,1.644080290010193,0.09629973119230562,0.35,0,7,0.0
7.220207910000681,516,90.83,98.9,7.0,-14.7,0.17,1.41,-0.23,0.0,0.93,-0.09,-38.4,548.5,222.0,-3.54,-15.24,-0.07,0.0,0.9343446901438462,1.4387147041717478,0.0829219565755347,0.35,0,7,0.0
7.231897754001693,517,90.84,98.9,7.0,-14.8,-0.04,1.22,-0.24,-0.01,0.91,-0.1,-32.8,574.7,218.0,-3.7,-15.81,-0.23,0.0,0.9155326318597279,1.244025723206719,0.09969933456245994,0.35,0,7,0.0
7.240153614000519,518,90.85,98.9,7.0,-15.0,-0.17,1.01,-0.29,-0.01,0.9,-0.11,-26.9,590.0,212.0,-3.86,-16.38,-0.12,0.0,0.9067524469225324,1.0644716999526103,0.1063099291096622,0.35,0,7,0.0
7.251967641001102,519,90.86,98.8,7.0,-15.1,-0.25,0.79,-0.34,-0.01,0.9,-0.11,-20.8,611.4,163.0,-4.03,-16.73,-0.2,0.0,0.9067524469225324,0.8956561840349232,0.10418373052746899,0.35,0,7,0.0
7.260114512000655,520,90.87,98.8,6.9,-15.1,-0.29,0.52,-0.35,0.0,0.88,-0.12,-14.6,637.0,270.0,-4.2,-17.68,0.0,0.0,0.8881441324469806,0.6906518659932803,0.12033620410296042,0.35,0,7,0.0
7.27204187100142,521,90.88,98.8,6.8,-15.2,0.01,0.37,-0.43,0.0,0.86,-0.15,-8.0,655.7,175.0,-4.38,-17.98,-0.08,0.0,0.8729833904490967,0.5673623181001713,0.13278700717882752,0.35,0,7,0.0
7.280067276000409,522,90.89,98.8,6.8,-15.2,0.45,0.24,-0.51,0.01,0.87,-0.18,-1.4,666.5,132.0,-4.56,-18.26,0.12,0.0,0.8884818512496471,0.7212489168102785,0.11494277545071152,0.35,0,7,0.0
7.2919149750014185,523,90.9,98.9,6.7,-15.2,0.84,0.19,-0.55,0.0,0.9,-0.21,4.9,603.7,-1238.0,-4.72,-12.21,2.13,0.0,0.9241753080449618,1.0218610473053564,0.07766433228228886,0.35,0,7,0.0
7.299919520000913,524,90.91,99.0,6.7,-15.3,1.0,0.13,-0.52,0.0,0.94,-0.24,7.7,85.3,-4180.0,-4.72,3.7,0.81,0.0,0.9701546268507922,1.1345924378383632,0.031051313206929332,0.35,0,7,0.0
7.312188361000153,525,90.92,99.1,6.6,-15.3,1.51,0.03,-0.82,0.01,0.88,-0.24,6.2,-174.4,-1870.0,-4.67,4.54,-0.38,0.0,0.9121951545584969,1.718545896972205,0.08723056978924015,0.35,0,7,0.0
7.320058418001281,526,90.93,99.2,6.5,-15.3,0.49,0.02,-0.68,0.01,1.09,-0.28,4.7,-140.8,-353.0,-4.63,3.25,-0.2,0.0,1.125433249908674,0.8383913167489273,0.1234873750497183,0.35,0,7,0.0
7.332390739000402,527,90.94,99.1,6.5,-15.3,-1.24,0.41,0.1,-0.01,1.01,-0.32,3.7,-96.3,176.0,-4.61,1.83,-0.3,0.0,1.0595281968876524,1.3098473193468008,0.05643067558812276,0.35,0,7,0.0
7.340172263000568,528,90.95,99.0,6.6,-15.4,-1.07,0.45,0.39,-0.05,0.92,-0.26,3.0,-39.5,405.0,-4.6,0.45,-0.06,0.0,0.9573400649716902,1.224540730233176,0.04484230720128257,0.35,0,7,0.0
7.35226182200131,529,90.96,98.9,6.6,-15.4,-0.55,0.01,0.58,-0.06,0.91,-0.27,3.0,8.9,415.0,-4.6,-0.67,-0.12,0.0,0.9511046209539727,0.7993747556684537,0.050056196194620095,0.35,0,7,0.0
7.360187325000879,530,90.97,98.9,6.7,-15.4,-0.14,-0.12,0.78,-0.07,0.94,-0.27,3.3,37.4,301.0,-4.61,-1.3,0.01,0.0,0.9805100713404222,0.8014985963805552,0.0202377308920072,0.35,0,7,0.0
7.372166479000953,531,90.98,98.9,6.8,-15.3,-0.66,-0.25,1.13,-0.09,0.97,-0.2,3.8,62.2,267.0,-4.63,-1.99,-0.21,0.0,0.9944847912361455,1.3322912594474228,0.006137750776358142,0.35,0,7,0.0
7.380111015001603,532,90.99,98.8,6.9,-15.3,-1.44,-0.56,1.49,-0.1,0.95,-0.19,4.6,77.8,67.0,-4.65,-1.79,0.28,0.0,0.9739609848448756,2.1464622055838767,0.026128326024275506,0.35,0,7,0.0
7.3925817890012695,533,91.0,98.6,7.0,-15.2,-1.48,-1.02,1.62,-0.1,0.88,-0.17,4.9,33.7,-617.0,-4.65,0.68,0.0,0.0,0.9018314698434514,2.419752053413738,0.09629268420518566,0.35,0,7,0.0
7.400139038001726,534,91.01,98.5,7.2,-15.0,-0.85,-1.45,1.52,-0.12,0.86,-0.17,4.7,-34.1,-356.0,-4.64,1.04,0.02,0.0,0.8848163651289458,2.266142096162551,0.11104163314129745,0.35,0,7,0.0
7.412203316000159,535,91.02,98.5,7.3,-14.8,-0.72,-1.98,1.43,-0.06,0.9,-0.16,4.3,-46.6,-222.0,-4.63,1.47,0.09,0.0,0.916078599247903,2.5463110571962724,0.07818381104189343,0.35,0,7,0.0
7.420252992000314,536,91.03,98.4,7.4,-14.6,-0.76,-2.04,1.34,-0.01,0.89,-0.19,3.7,-66.2,-226.0,-4.61,2.1,0.0,0.0,0.9101098834756164,2.5563254878829498,0.08246947627789647,0.35,0,7,0.0
7.432366279001144,537,91.04,98.4,7.5,-14.4,-0.75,-2.05,1.15,0.02,0.89,-0.2,2.8,-95.8,-300.0,-4.58,3.05,0.0,0.0,0.9124143795447329,2.4672859582950655,0.07856168060460433,0.35,0,7,0.0
7.4402374340006645,538,91.05,98.3,7.6,-14.1,-0.96,-2.02,1.03,0.09,0.9,-0.24,1.6,-140.4,-443.0,-4.54,4.5,0.42,0.0,0.9357884376289334,2.4622956768024427,0.05408387006999582,0.35,0,7,0.0
7.452273902001252,539,91.06,98.3,7.7,-13.9,-1.01,-1.77,0.93,0.18,0.88,-0.28,-0.1,-199.3,-530.0,-4.49,6.07,0.29,0.0,0.940850678907126,2.2400669632848036,0.04804119621596714,0.35,0,7,0.0
7.460120286001256,540,91.07,98.2,7.7,-13.8,-0.67,-1.32,0.82,0.26,0.86,-0.32,-2.4,-244.9,-450.0,-4.42,7.15,-0.24,0.0,0.9537295214053091,1.6922470268846683,0.03445910664342844,0.35,0,7,0.0
7.471943729000486,541,91.08,98.2,7.8,-13.7,-0.03,-0.74,0.75,0.28,0.85,-0.35,-5.1,-274.5,-271.0,-4.34,7.58,-0.05,0.0,0.960937042682818,1.0540398474441086,0.026706553658601195,0.35,0,7,0.0
7.479976841001189,542,91.09,98.2,7.8,-13.6,0.66,-0.21,0.84,0.24,0.86,-0.38,-7.9,-278.7,-90.0,-4.27,7.53,0.03,0.0,0.9703607576566562,1.0887148386974432,0.016937181911067745,0.35,0,7,0.0
7.49237338200146,543,91.1,98.3,7.9,-13.6,1.24,0.2,1.13,0.13,0.86,-0.38,-10.7,-273.5,14.0,-4.19,7.34,0.0,0.0,0.9491575211733825,1.6895265609039711,0.03737761002645468,0.35,0,7,0.0
7.500234271001318,544,91.11,98.5,8.1,-13.6,2.05,0.34,1.49,0.04,0.89,-0.36,-13.3,-263.5,81.0,-4.12,7.0,-0.17,0.0,0.9608850087289321,2.55699041844118,0.025137120021486936,0.35,0,7,0.0
7.5120914630006155,545,91.12,98.7,8.3,-13.6,2.86,0.08,1.78,-0.06,0.92,-0.32,-15.9,-250.1,123.0,-4.06,6.61,0.01,0.0,0.9759098319004682,3.369629059703753,0.009910050912951829,0.35,0,7,0.0
7.520168272001683,546,91.13,99.1,8.4,-13.5,3.88,-0.55,1.82,-0.1,0.92,-0.32,-18.3,-234.2,142.0,-3.99,6.19,-0.08,0.0,0.9791833331914919,4.320798537307659,0.006503818629489566,0.35,0,7,0.0
7.532223056001385,547,91.14,99.5,8.6,-13.4,4.76,-1.2,1.31,-0.09,1.01,-0.32,-20.5,-223.0,97.0,-3.93,6.01,0.07,0.0,1.063296760081587,5.080718453132391,0.07605741609539352,0.35,0,7,0.0
7.540299682001205,548,91.15,100.0,8.6,-13.3,4.19,-1.84,0.51,-0.06,1.09,-0.32,-22.7,-219.3,53.0,-3.87,5.93,0.11,0.0,1.13758516164725,4.604541236648881,0.14733890130783545,0.35,0,7,0.0
7.551988506000271,549,91.16,100.4,8.6,-13.0,2.97,-2.52,-0.6,-0.01,1.14,-0.31,-24.9,-212.7,77.0,-3.82,5.65,0.0,0.0,1.1814397995666135,3.940977036218303,0.1873696684426549,0.35,0,7,0.0
7.560118923000118,550,91.17,100.7,8.4,-12.8,1.7,-3.04,-1.63,0.08,1.17,-0.31,-26.9,-199.9,124.0,-3.76,5.23,-0.19,0.0,1.213012778168474,3.845581880548118,0.21456379410362514,0.35,0,7,0.0
7.571971073000896,551,91.18,100.9,8.1,-12.5,1.04,-3.52,-2.54,0.22,1.17,-0.24,-28.8,-181.1,173.0,-3.71,4.68,0.09,0.0,1.214454610102823,4.46358600230801,0.21168551351721465,0.35,0,7,0.0
7.58018795100179,552,91.19,101.0,7.8,-12.2,1.14,-3.75,-3.12,0.36,1.26,-0.27,-30.5,-159.3,213.0,-3.67,4.03,-0.15,0.0,1.3379461872586655,5.0096407056794,0.328473548859596,0.35,0,7,0.0
7.592213733001699,553,91.2,101.2,7.4,-11.9,0.94,-3.02,-3.42,0.4,1.34,-0.29,-31.9,-134.0,244.0,-3.63,3.32,-0.02,0.0,1.4281806608409178,4.65836881322207,0.41033386199301125,0.35,0,8,0.0
7.600111202000335,554,91.21,101.3,7.0,-11.7,0.6,-2.18,-3.83,0.36,1.38,-0.21,-32.9,-108.0,280.0,-3.61,2.45,-0.24,0.0,1.4415616532080755,4.447617339655021,0.4152405572729656,0.35,0,8,0.0
7.611949435000497,555,91.22,101.3,6.6,-11.6,0.6,-1.29,-4.33,0.35,1.43,-0.18,-33.8,-72.0,321.0,-3.59,1.54,-0.14,0.0,1.4831722759005441,4.557740668357514,0.44771415636612555,0.35,0,8,0.0
7.6201369340014935,556,91.23,101.4,6.1,-11.6,0.09,-0.68,-4.21,0.24,1.42,-0.04,-34.3,-38.7,318.0,-3.58,0.67,-0.29,0.0,1.4406942770761602,4.265512864826456,0.3971314343909067,0.35,0,8,0.0
7.63204637400122,557,91.24,101.3,5.7,-11.6,-0.5,-0.58,-3.63,0.05,1.3,0.02,-34.5,-10.5,278.0,-3.58,-0.01,-0.16,0.0,1.3011149065320864,3.7098921817217274,0.25240102256989627,0.35,0,8,0.0
7.640044528001454,558,91.25,101.3,5.4,-11.6,-0.62,-0.85,-2.8,-0.11,1.15,0.07,-34.5,4.6,135.0,-3.58,-0.12,0.19,0.0,1.1573677030226823,2.991136907598848,0.10648074267928243,0.35,0,8,0.0
7.652424834001067,559,91.26,101.2,5.2,-11.6,-0.34,-1.51,-1.99,-0.22,1.07,0.14,-34.5,-0.4,0.0,-3.58,0.09,-0.16,0.0,1.1013173929435602,2.5210712008985388,0.049421823948157195,0.35,0,8,0.0
7.660206001000915,560,91.27,101.2,5.0,-11.4,0.0,-2.5,-1.2,-0.28,1.04,0.24,-34.5,-7.3,-42.0,-3.58,0.27,0.33,0.0,1.1034491379306979,2.773084924772409,0.050522497556589,0.35,0,8,0.0
7.671918704001655,561,91.28,101.3,4.8,-11.1,-0.17,-3.9,-0.66,-0.28,1.04,0.29,-34.7,-13.4,-56.0,-3.57,0.45,0.02,0.0,1.1153923076657828,3.959103433859742,0.06121635394584035,0.35,0,8,0.0
7.680072379000194,562,91.29,101.2,4.7,-10.7,-1.21,-4.79,-0.51,-0.22,1.01,0.21,-34.9,-24.8,-116.0,-3.57,0.87,0.07,0.0,1.0547985589675406,4.966719239095361,0.0006101531426461193,0.35,0,8,0.0
7.692143609001505,563,91.3,101.1,4.5,-10.2,-2.17,-5.21,-0.82,-0.11,0.99,0.14,-35.2,-40.6,-141.0,-3.55,1.28,0.21,0.0,1.0058826969383656,5.703104417771079,0.04733959470879823,0.35,0,8,0.0
7.699948378000045,564,91.31,100.9,4.3,-9.7,-2.51,-5.31,-1.22,0.02,0.96,0.04,-35.7,-56.5,-160.0,-3.54,1.75,0.15,0.0,0.9610411021387171,5.998716529391933,0.09033756571827789,0.35,0,8,0.0
7.71238945800178,565,91.32,100.7,4.1,-9.2,-2.83,-4.96,-1.44,0.15,0.98,-0.05,-36.4,-72.4,-149.0,-3.52,2.13,0.03,0.0,0.9926731586982696,5.889320843696665,0.05753139897555082,0.35,0,8,0.0
7.720233738000388,566,91.33,100.4,3.9,-8.8,-3.13,-4.28,-1.4,0.25,0.98,-0.13,-37.2,-87.8,-158.0,-3.49,2.58,0.0,0.0,1.0197058399362042,5.484095185169564,0.029888743382863847,0.35,0,8,0.0
7.731971035000242,567,91.34,100.1,3.7,-8.4,-2.85,-3.36,-1.2,0.3,0.97,-0.13,-38.2,-102.5,-145.0,-3.46,2.95,0.15,0.0,1.0236210236215353,4.5664099684544315,0.025454088503582106,0.35,0,8,0.0
7.739931777001402,568,91.35,99.9,3.5,-8.1,-2.41,-2.63,-0.88,0.31,0.93,-0.12,-39.3,-117.5,-153.0,-3.43,3.39,0.0,0.0,0.9876234100101111,3.6741529636094357,0.060222668072706265,0.35,0,8,0.0
7.75239140100166,569,91.36,99.7,3.4,-7.9,-1.76,-2.09,-0.5,0.28,0.89,-0.13,-40.6,-134.4,-159.0,-3.4,3.83,0.31,0.0,0.942019108086455,2.77771488817697,0.10371043059643525,0.35,0,8,0.0
7.760189642000114,570,91.37,99.6,3.3,-7.8,-0.94,-1.64,-0.15,0.23,0.87,-0.14,-42.1,-149.0,-151.0,-3.35,4.24,-0.03,0.0,0.9107140056021978,1.8962331080328705,0.13231522241907845,0.35,0,8,0.0
7.772174592000738,571,91.38,99.5,3.3,-7.6,-0.06,-1.16,0.14,0.17,0.88,-0.16,-43.7,-164.6,-150.0,-3.31,4.65,0.15,0.0,0.910439454329611,1.1699572641767733,0.12993797821783204,0.35,0,8,0.0
7.780126092000501,572,91.39,99.5,3.4,-7.5,0.46,-0.93,0.34,0.11,0.92,-0.13,-45.4,-179.3,-148.0,-3.26,5.05,-0.01,0.0,0.9356281312572854,1.0918333206126292,0.10265431526435465,0.35,0,8,0.0
7.791961546001403,573,91.4,99.6,3.4,-7.4,0.69,-0.83,0.46,0.07,0.95,-0.14,-47.3,-193.7,-144.0,-3.21,5.43,-0.01,0.0,0.9628083921528727,1.1732859838931,0.07396457328139205,0.35,0,8,0.0
7.8002662240014615,574,91.41,99.7,3.5,-7.3,0.35,-0.77,0.6,0.05,0.98,-0.16,-49.4,-207.4,-135.0,-3.15,5.78,0.25,0.0,0.9942333730065591,1.0370149468546728,0.041688800579151586,0.35,0,8,0.0
7.812417200000709,575,91.42,99.7,3.5,-7.3,-0.05,-0.64,0.67,0.05,0.95,-0.17,-51.5,-219.0,-112.0,-3.09,6.05,-0.1,0.0,0.966385016440135,0.9279008567729637,0.0681464140026643,0.35,0,8,0.0
7.82022191300166,576,91.43,99.7,3.6,-7.2,-0.29,-0.44,0.72,0.06,0.93,-0.18,-53.8,-225.6,-74.0,-3.03,6.19,0.01,0.0,0.9491575211733826,0.8922443611477744,0.08366643108402838,0.35,0,8,0.0
7.832076560000132,577,91.44,99.7,3.6,-7.1,-0.28,-0.26,0.73,0.08,0.9,-0.19,-56.0,-229.3,-47.0,-2.97,6.28,0.14,0.0,0.9233092656309694,0.8239538822045807,0.10732439289391271,0.35,0,8,0.0
7.84016790700116,578,91.45,99.7,3.7,-7.1,-0.1,-0.13,0.74,0.11,0.89,-0.2,-58.4,-234.8,-62.0,-2.9,6.48,0.16,0.0,0.9188035698668133,0.757957782465488,0.10959348688490733,0.35,0,8,0.0
7.852394848001495,579,91.46,99.7,3.8,-7.1,0.04,-0.01,0.78,0.14,0.89,-0.23,-60.8,-241.4,-56.0,-2.84,6.61,0.04,0.0,0.9298386956886662,0.7810889834071404,0.09658719384179348,0.35,0,8,0.0
7.860251806001543,580,91.47,99.7,3.9,-7.1,0.04,0.18,0.82,0.16,0.89,-0.26,-63.2,-242.5,-9.0,-2.77,6.56,0.0,0.0,0.9409038208021051,0.8404760555780277,0.08381162735378755,0.35,0,8,0.0
7.872287963000417,581,91.48,99.7,4.0,-7.1,0.0,0.35,0.9,0.17,0.9,-0.27,-65.6,-239.5,17.0,-2.7,6.47,0.0,0.0,0.9548821916864928,0.9656603957913983,0.0684365913400119,0.35,0,8,0.0
7.880103023000629,582,91.49,99.7,4.1,-7.1,-0.06,0.52,0.96,0.17,0.91,-0.29,-68.0,-237.0,20.0,-2.64,6.41,-0.02,0.0,0.970103087305674,1.0934349546269315,0.0521513818064141,0.35,0,8,0.0
7.8920400210008665,583,91.5,99.7,4.2,-7.2,-0.12,0.72,1.02,0.17,0.91,-0.29,-70.3,-233.1,44.0,-2.58,6.25,-0.07,0.0,0.970103087305674,1.2542726976220122,0.05110835417028592,0.35,0,8,0.0
7.900086482000916,584,91.51,99.7,4.3,-7.2,-0.22,0.93,1.04,0.16,0.9,-0.3,-72.6,-225.1,80.0,-2.52,5.98,-0.05,0.0,0.9620810776644555,1.412409289122668,0.0579477565352744,0.35,0,8,0.0
7.912170258001424,585,91.52,99.6,4.4,-7.3,-0.36,1.07,1.02,0.14,0.9,-0.29,-74.8,-211.8,121.0,-2.46,5.58,-0.07,0.0,0.9558765610684258,1.5214795430764094,0.06286922766867808,0.35,0,8,0.0
7.920186307001131,586,91.53,99.6,4.6,-7.4,-0.57,1.19,0.88,0.13,0.87,-0.31,-76.8,-196.7,137.0,-2.41,5.17,-0.08,0.0,0.9326842981416595,1.5860012610335465,0.0843402607835354,0.35,0,8,0.0
7.931963316001202,587,91.54,99.5,4.7,-7.5,-0.8,1.26,0.65,0.12,0.82,-0.3,-78.6,-181.7,149.0,-2.36,4.74,0.02,0.0,0.881362581461228,1.627912774076056,0.13294873791468764,0.35,0,8,0.0
7.944285630001104,588,91.55,99.4,4.7,-7.6,-1.22,1.31,0.34,0.12,0.77,-0.31,-80.4,-165.9,157.0,-2.31,4.31,-0.14,0.0,0.8386894538504701,1.8221141566872259,0.1721094282149367,0.35,0,8,0.0
7.952231779001522,589,91.56,99.2,4.8,-7.8,-1.64,1.45,-0.04,0.13,0.72,-0.32,-81.9,-149.7,159.0,-2.27,3.86,-0.15,0.0,0.7985612061701971,2.189451986228517,0.2079929223773055,0.35,0,8,0.0
7.960123602000749,590,91.57,99.0,4.8,-7.9,-1.88,1.69,-0.49,0.16,0.67,-0.35,-83.3,-130.9,186.0,-2.24,3.31,-0.07,0.0,0.7726577508832744,2.574995145626492,0.22921845011094355,0.35,0,8,0.0
7.971967431001758,591,91.58,98.8,4.7,-8.1,-1.84,2.1,-0.76,0.19,0.69,-0.34,-84.4,-112.7,172.0,-2.21,2.88,-0.17,0.0,0.7923383115816122,2.8936482163524992,0.2053471316243537,0.35,0,8,0.0
7.980158804000894,592,91.59,98.6,4.7,-8.4,-1.47,2.54,-0.8,0.2,0.71,-0.32,-85.5,-96.5,164.0,-2.18,2.43,-0.08,0.0,0.8040522371090078,3.0417922348510262,0.1897605419750189,0.35,0,8,0.0
7.991477115001544,593,91.6,98.5,4.6,-8.7,-0.65,2.74,-0.68,0.17,0.73,-0.27,-86.3,-81.8,145.0,-2.16,2.06,-0.14,0.0,0.7966806135459805,2.896981187374195,0.19318952222728525,0.35,0,8,0.0
7.99954765000075,594,91.61,98.5,4.6,-8.9,0.52,2.7,-0.52,0.12,0.77,-0.24,-87.1,-71.4,106.0,-2.14,1.85,-0.14,0.0,0.8154140052758475,2.798356660613511,0.17096700788746988,0.35,0,8,0.0
8.011792584000432,595,91.62,98.6,4.6,-9.2,1.42,2.56,-0.46,0.05,0.81,-0.22,-87.7,-63.9,91.0,-2.12,1.62,0.12,0.0,0.8408329203831163,2.963376452629669,0.14263713092459707,0.35,0,8,0.0
8.019528712000465,596,91.63,98.7,4.6,-9.5,1.72,2.32,-0.54,0.0,0.83,-0.22,-88.3,-57.2,71.0,-2.11,1.48,0.04,0.0,0.8586617494683223,2.9380946206683,0.12231213580260325,0.35,0,8,0.0
8.031952145000105,597,91.64,98.9,4.6,-9.7,1.58,2.07,-0.71,-0.04,0.85,-0.23,-88.9,-53.7,40.0,-2.09,1.41,0.03,0.0,0.8814760348415605,2.6991480137258126,0.09750789342077781,0.35,0,8,0.0
8.04033794300085,598,91.65,99.0,4.5,-9.9,1.34,1.77,-0.85,-0.05,0.87,-0.22,-89.4,-52.0,21.0,-2.08,1.41,-0.01,0.0,0.8987769467448528,2.37718320707513,0.07860284188713584,0.35,0,8,0.0
8.051825483000357,599,91.66,99.1,4.5,-10.0,1.36,1.32,-0.83,-0.04,0.94,-0.18,-89.9,-51.8,4.0,-2.07,1.41,0.05,0.0,0.9579144011862437,2.0690335908341364,0.019076079696830006,0.35,0,8,0.0
8.060139660999994,600,91.67,99.3,4.4,-10.2,1.34,0.73,-0.61,-0.03,1.0,-0.14,-90.4,-51.5,9.0,-2.05,1.38,0.13,0.0,1.010198000393982,1.64335023655945,0.032543369120690224,0.35,0,8,0.0
8.071874522000144,601,91.68,99.4,4.3,-10.2,0.9,0.04,-0.37,-0.01,1.03,-0.17,-90.9,-50.5,3.0,-2.04,1.38,0.22,0.0,1.0439827584783188,0.973909646733207,0.06500156466092633,0.35,0,8,0.0
8.080167060001259,602,91.69,99.4,4.2,-10.2,0.08,-0.38,-0.18,0.01,0.99,-0.28,-91.4,-49.1,18.0,-2.03,1.29,0.0,0.0,1.0288828893513586,0.4280186911806539,0.048903661623286854,0.35,0,8,0.0
8.091970222001692,603,91.7,99.4,4.2,-10.1,-0.44,-0.37,-0.24,0.05,0.93,-0.37,-91.9,-46.2,21.0,-2.01,1.23,0.02,0.0,1.0021476937058729,0.6229767250869008,0.02172509665824507,0.35,0,8,0.0
8.100137533001543,604,91.71,99.4,4.1,-10.1,-0.14,-0.1,-0.32,0.1,0.96,-0.42,-92.4,-44.5,18.0,-2.0,1.19,-0.05,0.0,1.0526157893552612,0.363318042491699,0.07074932846148074,0.35,0,8,0.0
8.111882311000954,605,91.72,99.4,4.1,-10.1,0.51,0.19,-0.28,0.1,1.01,-0.4,-92.8,-42.4,25.0,-1.99,1.1,-0.07,0.0,1.0909170454255448,0.6120457499239743,0.10686957284112897,0.35,0,8,0.0
8.11999385100171,606,91.73,99.5,4.1,-10.2,1.21,0.41,-0.11,0.13,1.13,-0.39,-93.2,-38.3,36.0,-1.98,0.99,-0.11,0.0,1.2024558203942461,1.2823026163897506,0.21404018085363374,0.35,0,8,0.0
8.131983905001107,607,91.74,99.6,4.1,-10.2,1.47,0.75,0.37,0.12,1.24,-0.38,-93.5,-34.3,39.0,-1.97,0.87,-0.09,0.0,1.302459212413195,1.69124214706233,0.30776270141513096,0.35,0,8,0.0
8.140108517000044,608,91.75,99.8,4.2,-10.3,1.52,1.01,0.92,0.08,1.24,-0.39,-93.8,-30.5,24.0,-1.96,0.83,0.36,0.0,1.3023440405668543,2.0437465596301316,0.3014945789774144,0.35,0,8,0.0
8.15188674500132,609,91.76,100.0,4.3,-10.4,1.73,1.19,1.26,0.07,1.22,-0.37,-94.2,-29.6,23.0,-1.95,0.76,-0.1,0.0,1.2767928571228773,2.4487956223417258,0.2704245276227686,0.35,0,8,0.0
8.16027616700012,610,91.77,100.2,4.5,-10.5,2.02,1.23,1.56,0.08,1.31,-0.28,-94.4,-26.0,35.0,-1.95,0.64,0.02,0.0,1.3419761547807025,2.8331784271379736,0.328895668774982,0.35,0,8,0.0
8.17184090200135,611,91.78,100.4,4.7,-10.6,1.85,1.03,1.86,0.08,1.39,-0.21,-94.6,-20.0,63.0,-1.94,0.43,-0.03,0.0,1.4080482946262887,2.818332840528244,0.3870684524481567,0.35,0,9,0.0
8.180141109000033,612,91.79,100.5,4.9,-10.6,1.6,0.94,2.13,0.11,1.51,-0.18,-94.8,-14.3,47.0,-1.94,0.33,0.12,0.0,1.524663897388536,2.8249778760195627,0.4936103741061959,0.35,0,9,0.0
8.192011240000284,613,91.8,100.6,5.1,-10.7,1.11,0.91,2.65,0.14,1.63,-0.11,-94.9,-5.4,97.0,-1.94,-0.01,-0.07,0.0,1.6396950936073451,3.0137518145992046,0.5964687389185048,0.35,0,9,0.0
8.200140703000216,614,91.81,100.6,5.4,-10.7,0.51,0.93,3.27,0.14,1.55,-0.09,-94.9,5.0,79.0,-1.94,-0.19,-0.12,0.0,1.5589098755219946,3.43771726586117,0.5053698504164912,0.35,0,9,0.0
8.211979833000441,615,91.82,100.5,5.8,-10.8,0.13,1.08,3.35,0.14,1.35,-0.07,-94.8,8.7,46.0,-1.94,-0.27,-0.12,0.0,1.3590437814875576,3.522186820712382,0.2993936812544131,0.35,0,9,0.0
8.220076923000306,616,91.83,100.5,6.1,-10.8,-0.05,1.24,2.87,0.26,1.17,-0.08,-94.7,15.3,92.0,-1.95,-0.61,0.02,0.0,1.2012077255828817,3.1268194703244383,0.13872647284274242,0.35,0,9,0.0
8.23198688299999,617,91.84,100.5,6.4,-10.9,-0.17,1.7,2.16,0.36,1.05,-0.12,-94.4,32.4,149.0,-1.96,-1.09,0.01,0.0,1.1164676439557037,2.753997095132818,0.05290666339125316,0.35,0,9,0.0
8.240230956000232,618,91.85,100.5,6.6,-11.1,-0.15,2.51,1.52,0.4,0.99,-0.14,-93.9,51.6,178.0,-1.97,-1.64,-0.08,0.0,1.0768936809174803,2.9381967258847728,0.013066046345969085,0.35,0,9,0.0
8.251931668000907,619,91.86,100.4,6.8,-11.4,-0.25,3.53,0.9,0.37,0.94,-0.11,-93.3,74.1,225.0,-1.99,-2.34,-0.08,0.0,1.0161692772368194,3.6514928453989883,0.046705190187998014,0.35,0,9,0.0
8.260221120001006,620,91.87,100.3,6.9,-11.8,-0.39,4.59,0.39,0.33,0.91,-0.08,-92.4,99.1,235.0,-2.02,-2.99,0.07,0.0,0.9712878049270464,4.623018494447107,0.0897549292478157,0.35,0,9,0.0
8.271864934000405,621,91.88,100.2,7.0,-12.3,-0.43,5.45,0.12,0.3,0.9,0.0,-91.2,123.3,243.0,-2.05,-3.66,-0.26,0.0,0.9486832980505138,5.4682538346349645,0.11011224740186143,0.35,0,9,0.0
8.280334918001245,622,91.89,100.1,7.1,-12.8,-0.36,6.01,0.08,0.25,0.86,0.03,-89.8,149.7,259.0,-2.1,-4.4,-0.15,0.0,0.8961026726887941,6.02130384551386,0.1594390153083095,0.35,0,9,0.0
8.291997785001513,623,91.9,100.0,7.3,-13.5,-0.22,6.37,0.2,0.21,0.86,0.04,-88.1,175.9,257.0,-2.14,-5.09,-0.07,0.0,0.886171540955813,6.376935000452804,0.16598274410046476,0.35,0,9,0.0
8.300299244001508,624,91.91,99.9,7.4,-14.1,-0.34,6.33,0.49,0.17,0.88,0.09,-86.2,200.6,244.0,-2.2,-5.72,0.06,0.0,0.9007774419910837,6.358034287419343,0.14834930620389009,0.35,0,9,0.0
8.31191899300029,625,91.92,99.8,7.6,-14.7,-0.52,5.86,0.72,0.13,0.85,0.13,-84.0,223.2,231.0,-2.26,-6.34,-0.14,0.0,0.8696551040498756,5.92692162931146,0.17588221126219616,0.35,0,9,0.0
8.320134574001713,626,91.93,99.7,7.7,-15.2,-0.49,5.16,0.73,0.07,0.86,0.12,-81.6,246.0,229.0,-2.33,-6.96,-0.16,0.0,0.8711486669908873,5.234367201486728,0.17090087535476062,0.35,0,9,0.0
8.332029092000084,627,91.94,99.6,7.9,-15.7,-0.58,4.41,0.48,0.01,0.87,0.1,-79.0,269.7,235.0,-2.4,-7.61,-0.38,0.0,0.8757853618324527,4.473801515489931,0.16293889690293129,0.35,0,9,0.0
8.340227144000892,628,91.95,99.4,8.0,-16.1,-0.37,3.75,-0.02,-0.03,0.86,0.05,-76.1,292.1,229.0,-2.48,-8.23,-0.19,0.0,0.8619744775803979,3.7682621989452914,0.1732147855318864,0.35,0,9,0.0
8.351981511001213,629,91.96,99.4,8.0,-16.4,0.07,3.15,-0.56,-0.08,0.88,0.03,-73.0,317.9,264.0,-2.57,-9.01,-0.12,0.0,0.8841379982785492,3.2001562461854887,0.1480302395370604,0.35,0,9,0.0
8.360217202000058,630,91.97,99.4,8.0,-16.7,0.28,2.52,-1.03,-0.1,0.88,0.01,-69.7,346.2,257.0,-2.67,-9.68,-0.03,0.0,0.8857200460642177,2.736731627324828,0.14351922791636407,0.35,0,9,0.0
8.371913367000161,631,91.98,99.4,7.9,-17.0,0.37,1.93,-1.36,-0.09,0.89,0.0,-66.1,367.2,226.0,-2.77,-10.26,-0.02,0.0,0.8945389874119518,2.389853551998532,0.1320062808372573,0.35,0,9,0.0
8.380154453001524,632,91.99,99.4,7.7,-17.2,0.48,1.54,-1.55,-0.07,0.88,-0.03,-62.2,393.4,264.0,-2.87,-11.04,0.09,0.0,0.8832893070789434,2.2370739817896057,0.14039084194686047,0.35,0,9,0.0
8.392168038000818,633,92.0,99.4,7.6,-17.3,0.73,1.16,-1.55,-0.04,0.9,-0.03,-59.5,409.4,304.0,-2.99,-11.54,-0.23,0.0,0.9013878188659974,2.0690577565645674,0.11984648355661043,0.35,0,9,0.0
8.400151890000416,634,92.01,99.5,7.5,-17.4,0.73,0.89,-1.39,-0.03,0.93,-0.04,-53.8,440.8,318.0,-3.11,-12.42,-0.31,0.0,0.9313431161500042,1.8047437491234037,0.0880933625471515,0.35,0,9,0.0
8.411989550000726,635,92.02,99.5,7.4,-17.5,0.49,0.6,-1.19,-0.02,0.94,-0.06,-49.1,469.6,253.0,-3.24,-12.97,0.02,0.0,0.9421252570651102,1.419929575718458,0.07576499719940455,0.35,0,9,0.0
8.420133932000681,636,92.03,99.6,7.3,-17.6,0.33,0.43,-0.99,-0.02,0.95,-0.09,-44.3,487.7,213.0,-3.37,-13.51,-0.15,0.0,0.9544631999192006,1.1286717857729944,0.06215851325840793,0.35,0,9,0.0
8.431957449000038,637,92.04,99.6,7.2,-17.7,0.09,0.29,-0.77,-0.02,0.96,-0.1,-39.3,508.5,209.0,-3.51,-14.09,-0.19,0.0,0.9654014708917735,0.8277076778670112,0.05019583744011835,0.35,0,9,0.0
8.440140395001436,638,92.05,99.6,7.1,-17.7,-0.1,0.14,-0.62,-0.02,0.95,-0.11,-34.0,534.5,246.0,-3.66,-14.81,-0.24,0.0,0.9565563234854495,0.6434283176858165,0.05786016514951342,0.35,0,9,0.0
8.452020327000355,639,92.06,99.5,7.1,-17.7,-0.27,-0.04,-0.56,-0.03,0.93,-0.13,-28.6,549.8,171.0,-3.81,-15.15,-0.15,0.0,0.9395211546314431,0.6229767250869008,0.07339742732344934,0.35,0,9,0.0
8.460152543000731,640,92.07,99.5,7.0,-17.7,-0.37,-0.23,-0.51,-0.02,0.93,-0.13,-22.9,571.4,185.0,-3.96,-15.67,-0.2,0.0,0.9392550239418472,0.6707458535093601,0.07219028685278428,0.35,0,9,0.0
8.4718488360013,641,92.08,99.5,7.0,-17.7,-0.47,-0.45,-0.45,-0.02,0.92,-0.13,-17.1,588.6,240.0,-4.12,-16.45,0.02,0.0,0.9293546147730692,0.7911384202527394,0.08044888210113099,0.35,0,9,0.0
8.480219407001641,642,92.09,99.4,6.9,-17.6,-0.49,-0.66,-0.46,-0.02,0.88,-0.15,-11.0,615.6,196.0,-4.29,-16.88,-0.16,0.0,0.8929165694509201,0.9419660291114537,0.11454918887481458,0.35,0,9,0.0
8.492045309001696,643,92.1,99.4,6.9,-17.6,-0.3,-0.84,-0.49,-0.01,0.87,-0.16,-4.8,628.9,149.0,-4.46,-17.21,0.05,0.0,0.8846468221838588,1.017693470549949,0.12036255741903834,0.35,0,9,0.0
8.50429446400085,644,92.11,99.4,6.8,-17.5,-0.18,-1.01,-0.48,0.0,0.87,-0.18,1.5,638.4,30.0,-4.64,-17.05,0.31,0.0,0.8884255736976508,1.132651755836718,0.11425212978714139,0.35,0,9,0.0
8.512286291001146,645,92.12,99.4,6.7,-17.4,0.06,-1.13,-0.48,0.0,0.86,-0.2,7.0,461.9,-2387.0,-4.75,-6.3,2.37,0.0,0.8829496021857646,1.2291867230002118,0.11733353927304702,0.35,0,9,0.0
8.520200766000926,646,92.13,99.4,6.7,-17.3,0.64,-1.26,-0.56,0.0,0.86,-0.22,8.2,-21.0,-3343.0,-4.73,3.73,0.18,0.0,0.8876936408468858,1.5201315732527891,0.11033771059968722,0.35,0,9,0.0
8.53189327400105,647,92.14,99.6,6.6,-17.1,1.44,-1.42,-0.79,0.04,0.85,-0.22,6.9,-138.5,-1185.0,-4.69,3.32,0.08,0.0,0.8789197915623472,2.1711978260858684,0.11672932868654129,0.35,0,9,0.0
8.540297845000168,648,92.15,99.7,6.5,-17.0,-0.16,-1.28,-0.28,0.04,1.04,-0.29,5.8,-95.8,-106.0,-4.67,2.02,-0.25,0.0,1.0804165863221464,1.32,0.08307211675179271,0.35,0,9,0.0
8.551880490000258,649,92.16,99.6,6.5,-16.9,-0.87,-0.88,0.23,0.01,0.92,-0.28,5.1,-47.5,280.0,-4.66,0.7,-0.05,0.0,0.9617172141539321,1.2586500705120545,0.03491471030809323,0.35,0,9,0.0
8.560123803001261,650,92.17,99.5,6.5,-16.8,-0.73,-1.0,0.45,-0.02,0.89,-0.24,5.0,-1.6,369.0,-4.66,-0.41,-0.16,0.0,0.9220086767487603,1.3173458164050926,0.07313078275899976,0.35,0,9,0.0
8.571947098000237,651,92.18,99.5,6.5,-16.7,-0.41,-1.22,0.67,-0.03,0.9,-0.27,5.2,31.7,325.0,-4.67,-1.22,-0.05,0.0,0.9401063769595439,1.450999655410021,0.05393242089725181,0.35,0,9,0.0
