host_time_s,seq,device_time_s,roll,pitch,yaw,gyro_x,gyro_y,gyro_z,accel_x,accel_y,accel_z,belt_length,belt_velocity,belt_acceleration,motor_pos,motor_vel,motor_iq_meas,motor_iq_set,acc_mag,gyro_mag,gyro_corrected,gyro_side_score,gyro_side_separation,step_period_s,gait_cycle_s,cadence_spm,gait_speed_ratio,assist_pulse_s,acc_residual,threshold,gyro_threshold,belt_threshold,belt_ok,calibrated,imu_side,imu_heel_strike,heel_strike,hs_count,left_hs_count,right_hs_count,torque_cmd_nm
0.004752922000079707,2,969.36,94.6,10.4,-88.8,0.03,1.75,-1.11,0.05,0.99,0.02,-183.0,130.9,166.0,0.42,-3.54,0.05,0.0,0.9914635646356349,2.072558804955845,0.0,0.0,2.0,0.6,1.2,100.0,1.0,0.18,0.0,0.2,1.0,-160.0,0,0,calibrating,0,0,0,0,0,0.0
0.012351432000059503,3,969.37,94.6,10.3,-89.0,0.01,1.76,-1.16,0.07,1.0,0.01,-181.2,140.2,166.0,0.38,-4.07,-0.35,0.0,1.002496882788171,2.1079136604709405,0.0,0.0,2.0,0.6,1.2,100.0,1.0,0.18,0.010812651789485317,0.2,1.0,-160.0,0,0,calibrating,0,0,0,0,0,0.0
0.02065916600008677,4,969.38,94.6,10.2,-89.2,0.0,1.88,-1.16,0.08,1.0,-0.01,-179.6,162.7,205.0,0.34,-4.69,0.02,0.0,1.0032447358446492,2.209072203437452,0.0,0.0,2.0,0.6,1.2,100.0,1.0,0.18,0.011329294749044205,0.2,1.0,-160.0,0,0,calibrating,0,0,0,0,0,0.0
0.03229042800012394,5,969.39,94.5,10.1,-89.4,-0.08,2.05,-1.1,0.07,1.01,-0.01,-177.8,183.2,202.0,0.28,-5.23,-0.1,0.0,1.0124722218411721,2.327853088147961,0.0,0.0,2.0,0.6,1.2,100.0,1.0,0.18,0.020145645130655754,0.2,1.0,-160.0,0,0,calibrating,0,0,0,0,0,0.0
0.04070231700006843,6,969.4,94.5,10.0,-89.7,-0.15,2.22,-1.03,0.06,1.01,-0.01,-175.8,205.5,221.0,0.23,-5.87,-0.01,0.0,1.011830025251277,2.451897224599759,0.0,0.0,2.0,0.6,1.2,100.0,1.0,0.18,0.01911337956994552,0.2,1.0,-160.0,0,0,calibrating,0,0,0,0,0,0.0
0.052567308000107005,7,969.41,94.4,9.9,-89.9,-0.23,2.32,-0.98,0.04,1.02,-0.02,-173.6,228.5,227.0,0.16,-6.49,0.05,0.0,1.0209799214480175,2.5289721232152798,0.0,0.0,2.0,0.6,1.2,100.0,1.0,0.18,0.027698010251352212,0.2,1.0,-160.0,0,0,calibrating,0,0,0,0,0,0.0
0.06000364900000932,8,969.42,94.3,9.8,-90.1,-0.35,2.35,-0.97,0.03,1.01,-0.01,-171.2,251.7,233.0,0.1,-7.13,-0.03,0.0,1.0104949282406122,2.566300839730214,0.0,0.0,2.0,0.6,1.2,100.0,1.0,0.18,0.016868756703067866,0.2,1.0,-160.0,0,0,calibrating,0,0,0,0,0,0.0
0.07256358800009366,9,969.43,94.2,9.8,-90.4,-0.49,2.33,-0.95,0.01,1.0,0.0,-168.5,272.4,202.0,0.02,-7.62,-0.1,0.0,1.0000499987500624,2.563493709764079,0.0,0.0,2.0,0.6,1.2,100.0,1.0,0.18,0.006295350668267696,0.2,1.0,-160.0,0,0,calibrating,0,0,0,0,0,0.0
0.08042681100005211,10,969.44,94.2,9.7,-90.6,-0.52,2.22,-0.98,0.0,0.99,0.0,-165.6,293.3,225.0,-0.05,-8.29,-0.13,0.0,0.99,2.48177355937241,0.0,0.0,2.0,0.6,1.2,100.0,1.0,0.18,0.0036795551201588284,0.2,1.0,-160.0,0,0,calibrating,0,0,0,0,0,0.0
0.09234101700008068,11,969.45,94.1,9.6,-90.9,-0.54,2.08,-1.01,0.0,0.98,0.0,-162.5,321.4,263.0,-0.14,-9.05,0.03,0.0,0.98,2.3744683615495914,0.0,0.0,2.0,0.6,1.2,100.0,1.0,0.18,0.013405964017755623,0.2,1.0,-160.0,0,0,calibrating,0,0,0,0,0,0.0
0.1003678110000692,12,969.46,94.0,9.5,-91.1,-0.5,1.92,-1.04,-0.01,0.97,0.0,-159.1,344.6,222.0,-0.23,-9.59,-0.09,0.0,0.970051545022222,2.240089283934906,0.0,0.0,2.0,0.6,1.2,100.0,1.0,0.18,0.02288733061562287,0.2,1.0,-160.0,0,0,calibrating,0,0,0,0,0,0.0
0.11231779000013375,13,969.47,93.9,9.4,-91.3,-0.45,1.72,-1.12,-0.02,0.97,0.0,-155.6,363.7,209.0,-0.33,-10.14,-0.09,0.0,0.9702061636580134,2.101261525845843,0.0,0.0,2.0,0.6,1.2,100.0,1.0,0.18,0.022278057740234836,0.2,1.0,-160.0,0,0,calibrating,0,0,0,0,0,0.0
0.1239194120000775,14,969.48,93.8,9.3,-91.4,-0.43,1.53,-1.19,-0.02,0.97,0.0,-151.8,385.4,217.0,-0.44,-10.74,-0.09,0.0,0.9702061636580134,1.985421869527985,0.0,0.0,2.0,0.6,1.2,100.0,1.0,0.18,0.021832496585430183,0.2,1.0,-160.0,0,0,calibrating,0,0,0,0,0,0.0
0.13188209200006895,15,969.49,93.8,9.2,-91.6,-0.49,1.34,-1.21,-0.02,0.97,0.0,-147.8,408.1,244.0,-0.55,-11.46,-0.23,0.0,0.9702061636580134,1.870775240374963,0.0,0.0,2.0,0.6,1.2,100.0,1.0,0.18,0.02139584665372163,0.2,1.0,-160.0,0,0,calibrating,0,0,0,0,0,0.0
0.14434669199999917,16,969.5,93.7,9.1,-91.7,-0.62,1.16,-1.2,-0.02,0.97,-0.02,-143.5,437.3,254.0,-0.67,-12.15,-0.04,0.0,0.9704122835166504,1.7804493814764855,0.0,0.0,2.0,0.6,1.2,100.0,1.0,0.18,0.020765932259182884,0.2,1.0,-160.0,0,0,calibrating,0,0,0,0,0,0.0
0.15209562299992285,17,969.51,93.6,9.0,-91.8,-0.74,1.02,-1.16,-0.03,0.97,-0.02,-139.0,454.2,192.0,-0.79,-12.58,-0.14,0.0,0.9706698717895801,1.7127755252805315,0.0,0.0,2.0,0.6,1.2,100.0,1.0,0.18,0.02009817710652817,0.2,1.0,-160.0,0,0,calibrating,0,0,0,0,0,0.0
0.16398625100009667,18,969.52,93.5,8.9,-91.9,-0.79,0.86,-1.09,-0.03,0.97,-0.04,-134.3,472.1,166.0,-0.92,-12.96,0.13,0.0,0.9712878049270464,1.5974354447050434,0.0,0.0,2.0,0.6,1.2,100.0,1.0,0.18,0.019090639089680783,0.2,1.0,-160.0,0,0,calibrating,0,0,0,0,0,0.0
0.17213994100006857,19,969.53,93.4,8.8,-92.0,-0.91,0.71,-0.97,-0.04,0.98,-0.05,-129.5,478.1,96.0,-1.05,-13.12,-0.04,0.0,0.982089608946149,1.5076803374721048,0.0,0.0,2.0,0.6,1.2,100.0,1.0,0.18,0.00812305836916638,0.2,1.0,-160.0,0,0,calibrating,0,0,0,0,0,0.0
0.1802330420000544,20,969.54,93.3,8.7,-92.1,-1.04,0.58,-0.83,-0.03,0.98,-0.05,-124.7,493.3,126.0,-1.19,-13.51,0.14,0.0,0.9817331613019904,1.4515164484083534,0.0,0.0,2.0,0.6,1.2,100.0,1.0,0.18,0.008309915893058517,0.2,1.0,-160.0,0,0,calibrating,0,0,0,0,0,0.0
0.19235657700005504,21,969.55,93.2,8.6,-92.1,-1.19,0.46,-0.67,-0.03,0.98,-0.06,-119.7,495.5,32.0,-1.32,-13.44,-0.05,0.0,0.9822932352408826,1.4410412901787373,0.0,0.0,2.0,0.6,1.2,100.0,1.0,0.18,0.007594845115083015,0.2,1.0,-160.0,0,0,calibrating,0,0,0,0,0,0.0
0.2004312750000281,22,969.56,93.0,8.6,-92.2,-1.31,0.31,-0.5,-0.02,0.97,-0.06,-114.8,493.8,-11.0,-1.46,-13.35,0.18,0.0,0.97205966895042,1.4360362112425997,0.0,0.0,2.0,0.6,1.2,100.0,1.0,0.18,0.017471843177434665,0.2,1.0,-160.0,0,0,calibrating,0,0,0,0,0,0.0
0.21254826600011256,23,969.57,92.9,8.5,-92.2,-1.36,0.19,-0.33,-0.03,0.98,-0.06,-110.4,484.8,-87.0,-1.59,-12.92,0.21,0.0,0.9822932352408826,1.4123030836190935,0.0,0.0,2.0,0.6,1.2,100.0,1.0,0.18,0.00709351134923264,0.2,1.0,-160.0,0,0,calibrating,0,0,0,0,0,0.0
0.22055596099994546,24,969.58,92.7,8.5,-92.2,-1.56,0.02,-0.09,-0.05,1.0,-0.06,-105.2,454.2,-307.0,-1.71,-11.74,0.27,0.0,1.0030453628824572,1.5627219842313604,0.0,0.0,2.0,0.6,1.2,100.0,1.0,0.18,0.013385443966495103,0.2,1.0,-160.0,0,0,calibrating,0,0,0,0,0,0.0
0.23222230600003968,25,969.59,92.6,8.5,-92.2,-1.81,-0.15,0.12,-0.04,0.99,-0.06,-101.0,408.0,-374.0,-1.82,-10.65,0.17,0.0,0.992622788374315,1.820164827701052,0.0,0.0,2.0,0.6,1.2,100.0,1.0,0.18,0.002903612069185879,0.2,1.0,-160.0,0,0,calibrating,0,0,0,0,0,0.0
0.23995711399993525,26,969.6,92.4,8.5,-92.2,-1.82,-0.37,0.27,-0.01,0.99,-0.05,-97.2,372.1,-374.0,-1.92,-9.62,0.0,0.0,0.991312261600753,1.876752514318284,0.0,0.0,2.0,0.6,1.2,100.0,1.0,0.18,0.0015612235897115578,0.2,1.0,-160.0,0,0,calibrating,0,0,0,0,0,0.0
0.25230266800008394,27,969.61,92.2,8.5,-92.1,-1.76,-0.56,0.35,0.0,0.98,-0.05,-93.8,328.2,-428.0,-2.01,-8.38,0.19,0.0,0.9812746812182611,1.8798138205684094,0.0,0.0,2.0,0.6,1.2,100.0,1.0,0.18,0.008306829656924863,0.2,1.0,-160.0,0,0,calibrating,0,0,0,0,0,0.0
0.2604861229999642,28,969.62,92.1,8.6,-92.1,-1.89,-0.8,0.42,0.0,0.98,-0.05,-90.7,291.0,-346.0,-2.08,-7.59,0.16,0.0,0.9812746812182611,2.094874697923482,0.0,0.0,2.0,0.6,1.2,100.0,1.0,0.18,0.008140693063786397,0.2,1.0,-160.0,0,0,calibrating,0,0,0,0,0,0.0
0.27236044000005677,29,969.63,91.9,8.6,-92.0,-1.91,-0.92,0.47,0.03,0.96,-0.05,-88.0,268.5,-247.0,-2.16,-7.08,-0.07,0.0,0.9617692030835672,2.171497179367268,0.0,0.0,2.0,0.6,1.2,100.0,1.0,0.18,0.02709324777451072,0.2,1.0,-160.0,0,0,calibrating,0,0,0,0,0,0.0
0.28033656599995993,30,969.64,91.7,8.6,-91.9,-1.69,-0.98,0.5,0.04,0.93,-0.06,-85.4,250.2,-202.0,-2.22,-6.59,0.26,0.0,0.9327915093953204,2.0165564708185086,0.0,0.0,2.0,0.6,1.2,100.0,1.0,0.18,0.05494952263350228,0.2,1.0,-160.0,0,0,calibrating,0,0,0,0,0,0.0
0.2924079609999808,31,969.65,91.6,8.6,-91.8,-1.5,-1.04,0.54,0.02,0.92,-0.06,-83.1,233.0,-182.0,-2.29,-6.13,0.15,0.0,0.9221713506718803,1.9034705146127164,0.0,0.0,2.0,0.6,1.2,100.0,1.0,0.18,0.06425828772980358,0.2,1.0,-160.0,0,0,calibrating,0,0,0,0,0,0.0
0.30052478500010693,32,969.66,91.5,8.7,-91.7,-1.37,-1.17,0.58,0.0,0.92,-0.07,-80.8,215.7,-176.0,-2.34,-5.66,0.03,0.0,0.9226592003551474,1.8926700716184002,0.0,0.0,2.0,0.6,1.2,100.0,1.0,0.18,0.062495029285605797,0.2,1.0,-160.0,0,0,calibrating,0,0,0,0,0,0.0
0.31229070099993805,33,969.67,91.4,8.8,-91.5,-1.13,-1.36,0.63,0.01,0.91,-0.07,-78.8,201.5,-136.0,-2.4,-5.34,0.22,0.0,0.9127431182978045,1.8770721882761996,0.0,0.0,2.0,0.6,1.2,100.0,1.0,0.18,0.07096288911608972,0.2,1.0,-160.0,0,0,calibrating,0,0,0,0,0,0.0
0.32056722400011495,34,969.68,91.3,8.8,-91.4,-0.86,-1.54,0.64,0.02,0.93,-0.07,-76.8,191.5,-104.0,-2.45,-5.11,0.03,0.0,0.9328451104015072,1.8763794925334267,0.0,0.0,2.0,0.6,1.2,100.0,1.0,0.18,0.04984367907213927,0.2,1.0,-160.0,0,0,calibrating,0,0,0,0,0,0.0
0.3322489710001264,35,969.69,91.2,8.9,-91.2,-0.73,-1.73,0.63,0.02,0.94,-0.08,-75.0,185.0,-71.0,-2.5,-4.97,0.12,0.0,0.9436100889668358,1.980580722919417,0.0,0.0,2.0,0.6,1.2,100.0,1.0,0.18,0.03829712649667427,0.2,1.0,-160.0,0,0,calibrating,0,0,0,0,0,0.0
0.3405090129999735,36,969.7,91.2,8.9,-91.0,-0.79,-1.87,0.62,0.03,0.96,-0.09,-73.2,179.9,-67.0,-2.55,-4.79,0.02,0.0,0.9646761114488116,2.1225927541570475,0.0,0.0,2.0,0.6,1.2,100.0,1.0,0.18,0.016886481934404673,0.2,1.0,-160.0,0,0,calibrating,0,0,0,0,0,0.0
0.3524863059999461,37,969.71,91.1,9.0,-90.8,-0.79,-1.97,0.62,0.03,0.95,-0.09,-71.4,170.9,-91.0,-2.6,-4.5,0.12,0.0,0.954725091322104,2.2111987698983553,0.0,0.0,2.0,0.6,1.2,100.0,1.0,0.18,0.026300752019890017,0.2,1.0,-160.0,0,0,calibrating,0,0,0,0,0,0.0
0.36033370400014064,38,969.72,91.1,9.1,-90.6,-0.7,-2.05,0.63,0.02,0.95,-0.1,-69.8,156.4,-145.0,-2.64,-4.02,0.21,0.0,0.9554580053565933,2.2559698579546668,0.0,0.0,2.0,0.6,1.2,100.0,1.0,0.18,0.025056481225692706,0.2,1.0,-160.0,0,0,calibrating,0,0,0,0,0,0.0
0.3721919260001414,39,969.73,91.1,9.1,-90.4,-0.52,-2.14,0.62,0.0,0.94,-0.09,-68.4,135.6,-200.0,-2.67,-3.38,0.1,0.0,0.9442986815621421,2.2878811157925143,0.0,0.0,2.0,0.6,1.2,100.0,1.0,0.18,0.035491488919740966,0.2,1.0,-160.0,0,0,calibrating,0,0,0,0,0,0.0
0.38027214599992476,40,969.74,91.1,9.2,-90.2,-0.32,-2.28,0.62,0.0,0.95,-0.09,-67.2,107.9,-263.0,-2.7,-2.57,0.19,0.0,0.9542536350467835,2.3843657437566077,0.0,0.0,2.0,0.6,1.2,100.0,1.0,0.18,0.025025804726397594,0.2,1.0,-160.0,0,0,calibrating,0,0,0,0,0,0.0
0.39239288599992506,41,969.75,91.1,9.2,-89.9,-0.23,-2.43,0.65,0.01,0.95,-0.09,-66.3,76.8,-309.0,-2.72,-1.65,0.42,0.0,0.9543060305792895,2.525925572933613,0.0,0.0,2.0,0.6,1.2,100.0,1.0,0.18,0.024473941010013767,0.2,1.0,-160.0,0,0,calibrating,0,0,0,0,0,0.0
0.4005797380000331,42,969.76,91.1,9.3,-89.7,-0.09,-2.58,0.66,0.01,0.95,-0.1,-65.8,40.1,-353.0,-2.73,-0.63,0.03,0.0,0.9553009996854395,2.6646012834943993,0.0,0.0,2.0,0.6,1.2,100.0,1.0,0.18,0.023009392465786593,0.2,1.0,-160.0,0,0,calibrating,0,0,0,0,0,0.0
0.41211684800009607,43,969.77,91.1,9.4,-89.4,0.03,-2.71,0.69,0.02,0.94,-0.11,-65.7,3.8,-335.0,-2.73,0.22,-0.12,0.0,0.9466255859631092,2.796622963504376,0.0,0.0,2.0,0.6,1.2,100.0,1.0,0.18,0.03105111006435457,0.2,1.0,-160.0,0,0,calibrating,0,0,0,0,0,0.0
0.4205601169999227,44,969.78,91.2,9.4,-89.1,0.05,-2.8,0.74,0.01,0.94,-0.11,-65.8,-12.8,-171.0,-2.73,0.42,0.13,0.0,0.9464671151181112,2.896566933457606,0.0,0.0,2.0,0.6,1.2,100.0,1.0,0.18,0.0305853892911655,0.2,1.0,-160.0,0,0,calibrating,0,0,0,0,0,0.0
0.4323662880001393,45,969.79,91.2,9.5,-88.8,0.08,-2.91,0.84,0.0,0.92,-0.11,-66.0,-20.5,-111.0,-2.72,0.64,0.18,0.0,0.9265527507918802,3.029867983922732,0.0,0.0,2.0,0.6,1.2,100.0,1.0,0.18,0.04948975854504867,0.2,1.0,-160.0,0,0,calibrating,0,0,0,0,0,0.0
0.4404896539999754,46,969.8,91.3,9.6,-88.5,0.22,-3.13,0.93,-0.01,0.9,-0.12,-66.2,-30.9,-128.0,-2.71,1.04,0.21,0.0,0.9080198235721508,3.2726441908646287,0.0,0.0,2.0,0.6,1.2,100.0,1.0,0.18,0.0666622320494824,0.2,1.0,-160.0,0,0,calibrating,0,0,0,0,0,0.0
0.4522652430000562,47,969.81,91.4,9.7,-88.2,0.38,-3.38,1.03,-0.03,0.9,-0.13,-66.7,-47.5,-152.0,-2.7,1.49,0.11,0.0,0.9098351499035416,3.553828921037139,0.0,0.0,2.0,0.6,1.2,100.0,1.0,0.18,0.06354996760372977,0.2,1.0,-160.0,0,0,calibrating,0,0,0,0,0,0.0
0.46036166299995784,48,969.82,91.5,9.8,-87.8,0.63,-3.68,1.12,-0.04,0.9,-0.13,-67.2,-63.2,-155.0,-2.68,1.91,0.12,0.0,0.9102197536858888,3.8979096962346373,0.0,0.0,2.0,0.6,1.2,100.0,1.0,0.18,0.06190205654495495,0.2,1.0,-160.0,0,0,calibrating,0,0,0,0,0,0.0
0.4722628470001382,49,969.83,91.7,9.9,-87.4,1.04,-4.04,1.07,-0.02,0.89,-0.09,-68.0,-78.2,-142.0,-2.66,2.27,-0.04,0.0,0.8947625383307014,4.306750515179629,0.0,0.0,2.0,0.6,1.2,100.0,1.0,0.18,0.07581208646213955,0.2,1.0,-160.0,0,0,calibrating,0,0,0,0,0,0.0
0.4802634239999861,50,969.84,91.9,9.9,-87.0,1.85,-4.37,0.79,0.03,0.92,-0.1,-68.8,-88.9,-113.0,-2.63,2.54,-0.03,0.0,0.9259049627256569,4.810769169270128,0.0,0.0,2.0,0.6,1.2,100.0,1.0,0.18,0.0437762688258404,0.2,1.0,-160.0,0,0,calibrating,0,0,0,0,0,0.0
0.49244659200007845,51,969.85,92.2,10.0,-86.6,2.32,-4.39,0.36,0.06,0.97,-0.13,-69.8,-101.3,-144.0,-2.61,2.99,0.19,0.0,0.9805100713404223,4.978363184822899,0.0,0.0,2.0,0.6,1.2,100.0,1.0,0.18,0.010612262993146437,0.2,1.0,-160.0,0,0,calibrating,0,0,0,0,0,0.0
0.5004403319999255,52,969.86,92.5,10.0,-86.1,2.28,-4.16,-0.01,0.05,1.01,-0.15,-71.0,-123.8,-217.0,-2.57,3.7,0.13,0.0,1.02230132544177,4.743848648513146,0.0,0.0,2.0,0.6,1.2,100.0,1.0,0.18,0.051355446752604395,0.2,1.0,-160.0,0,0,calibrating,0,0,0,0,0,0.0
0.5122499700000844,53,969.87,92.8,10.0,-85.7,2.07,-3.95,-0.27,0.06,1.0,-0.15,-72.4,-149.4,-230.0,-2.53,4.34,-0.09,0.0,1.0129659421717987,4.467695155222657,0.0,0.0,2.0,0.6,1.2,100.0,1.0,0.18,0.041179662212980306,0.2,1.0,-160.0,0,0,calibrating,0,0,0,0,0,0.0
0.5205205540000861,54,969.88,93.1,9.9,-85.3,2.35,-3.89,-0.43,0.09,0.97,-0.12,-74.0,-169.8,-200.0,-2.48,4.82,0.03,0.0,0.9815294188153506,4.565030120382559,0.0,0.0,2.0,0.6,1.2,100.0,1.0,0.18,0.009548276079401563,0.2,1.0,-160.0,0,0,calibrating,0,0,0,0,0,0.0
0.5323366830000396,55,969.89,93.4,9.8,-84.9,2.97,-3.93,-0.67,0.15,0.97,-0.12,-75.8,-184.3,-153.0,-2.43,5.15,0.01,0.0,0.9888377015466188,4.971388136124557,0.0,0.0,2.0,0.6,1.2,100.0,1.0,0.18,0.016519427634456463,0.2,1.0,-160.0,0,0,calibrating,0,0,0,0,0,0.0
0.540497748000007,56,969.9,93.8,9.7,-84.5,3.24,-3.78,-1.04,0.22,1.02,-0.11,-77.8,-196.8,-136.0,-2.38,5.52,0.03,0.0,1.049237818609299,5.086020055013547,0.0,0.0,2.0,0.6,1.2,100.0,1.0,0.18,0.07538115380319388,0.2,1.0,-160.0,0,0,calibrating,0,0,0,0,0,0.0
0.5522681980000925,57,969.91,94.3,9.6,-84.2,3.18,-3.28,-1.53,0.28,1.09,-0.1,-79.8,-206.3,-89.0,-2.32,5.66,-0.03,0.0,1.129822994986383,4.817852218572089,0.0,0.0,2.0,0.6,1.2,100.0,1.0,0.18,0.15284700357667225,0.2,1.0,-160.0,0,0,calibrating,0,0,0,0,0,0.0
0.560436996000135,58,969.92,94.6,9.4,-83.9,2.77,-2.51,-2.07,0.31,1.16,-0.1,-81.9,-210.3,-47.0,-2.26,5.72,0.13,0.0,1.2048651376813921,4.272926397681102,0.0,0.0,2.0,0.6,1.2,100.0,1.0,0.18,0.2233313633462478,0.2,1.0,-160.0,0,0,calibrating,0,0,0,0,0,0.0
0.5723798849999184,59,969.93,94.9,9.2,-83.7,2.31,-1.61,-2.46,0.31,1.21,-0.07,-84.0,-206.9,30.0,-2.21,5.51,-0.2,0.0,1.2510395677195825,3.7389570738375695,0.0,0.0,2.0,0.6,1.2,100.0,1.0,0.18,0.26411567751674936,0.2,1.0,-160.0,0,0,calibrating,0,0,0,0,0,0.0
0.5803478949999317,60,969.94,95.1,9.0,-83.6,2.08,-0.85,-2.69,0.29,1.19,-0.03,-86.0,-194.6,108.0,-2.16,5.09,0.01,0.0,1.2251938622112013,3.5049964336643766,0.0,0.0,2.0,0.6,1.2,100.0,1.0,0.18,0.23350457256820079,0.2,1.0,-160.0,0,0,calibrating,0,0,0,0,0,0.0
0.5924395130000448,61,969.95,95.3,8.7,-83.6,2.41,-0.21,-2.92,0.25,1.19,-0.03,-87.8,-176.4,164.0,-2.11,4.55,0.05,0.0,1.2163469899662678,3.7919124462466165,0.0,0.0,2.0,0.6,1.2,100.0,1.0,0.18,0.22016454631680193,0.2,1.0,-160.0,0,0,calibrating,0,0,0,0,0,0.0
0.6002980180001032,62,969.96,95.5,8.4,-83.6,2.65,0.5,-3.11,0.2,1.25,-0.02,-89.4,-156.5,182.0,-2.07,4.02,0.01,0.0,1.2660568707605515,4.116381906480496,0.0,0.0,2.0,0.6,1.2,100.0,1.0,0.18,0.2644769385688639,0.2,1.0,-160.0,0,0,calibrating,0,0,0,0,0,0.0
0.6123083600000427,63,969.97,95.7,8.1,-83.8,2.28,1.04,-3.02,0.1,1.31,0.01,-90.9,-139.2,165.0,-2.03,3.6,-0.04,0.0,1.3138493064274914,3.924334338457925,0.0,0.0,2.0,0.6,1.2,100.0,1.0,0.18,0.30602398675108766,0.2,1.0,-160.0,0,0,calibrating,0,0,0,0,0,0.0
0.6205588689999786,64,969.98,95.9,7.9,-83.9,1.52,1.16,-2.55,-0.05,1.32,0.07,-92.2,-127.9,114.0,-2.0,3.39,0.19,0.0,1.322800060477773,3.1872401854896344,0.0,0.0,2.0,0.6,1.2,100.0,1.0,0.18,0.30867524598534213,0.2,1.0,-160.0,0,0,calibrating,0,0,0,0,0,0.0
0.6322825270001431,65,969.99,96.0,7.7,-84.0,0.89,0.76,-1.79,-0.2,1.28,0.12,-93.4,-121.0,76.0,-1.96,3.23,0.0,0.0,1.3010764773832475,2.138644430474594,0.0,0.0,2.0,0.6,1.2,100.0,1.0,0.18,0.2812126296330002,0.2,1.0,-160.0,0,0,calibrating,0,0,0,0,0,0.0
0.6404042970000319,66,970.0,96.1,7.5,-84.1,0.93,0.0,-1.03,-0.28,1.21,0.17,-94.2,-119.6,40.0,-1.93,3.25,-0.07,0.0,1.2535549449465706,1.3877319625922004,0.0,0.0,2.0,0.6,1.2,100.0,1.0,0.18,0.2290172752523969,0.2,1.0,-160.0,0,0,calibrating,0,0,0,0,0,0.0
0.6525027370000771,67,970.01,96.2,7.5,-84.0,1.38,-0.96,-0.43,-0.3,1.16,0.21,-95.8,-118.8,28.0,-1.9,3.18,-0.18,0.0,1.2164292005702593,1.735194513592064,0.0,0.0,2.0,0.6,1.2,100.0,1.0,0.18,0.18805370025856383,0.2,1.0,-160.0,0,0,calibrating,0,0,0,0,0,0.0
0.6603485580001234,68,970.02,96.4,7.4,-83.9,1.59,-1.88,-0.01,-0.27,1.15,0.21,-97.0,-116.6,21.0,-1.87,3.13,0.01,0.0,1.1997916485790354,2.4622347572885896,0.0,0.0,2.0,0.6,1.2,100.0,1.0,0.18,0.16798782530199308,0.2,1.0,-160.0,0,0,calibrating,0,0,0,0,0,0.0
0.6725948170001175,69,970.03,96.5,7.4,-83.7,1.23,-2.65,0.26,-0.22,1.15,0.19,-98.1,-114.4,29.0,-1.84,3.05,0.15,0.0,1.1861703081766968,2.9330871108782297,0.0,0.0,2.0,0.6,1.2,100.0,1.0,0.18,0.15127915520166124,0.2,1.0,-160.0,0,0,calibrating,0,0,0,0,0,0.0
0.680455295999991,70,970.04,96.7,7.4,-83.4,0.52,-3.27,0.48,-0.15,1.09,0.2,-99.2,-108.9,49.0,-1.81,2.88,-0.08,0.0,1.1183022847155415,3.345698731206981,0.0,0.0,2.0,0.6,1.2,100.0,1.0,0.18,0.08174290910569582,0.2,1.0,-160.0,0,0,calibrating,0,0,0,0,0,0.0
0.6924226329999783,71,970.05,96.7,7.4,-83.0,-0.01,-3.86,0.62,-0.08,0.99,0.18,-100.3,-101.8,67.0,-1.78,2.67,-0.01,0.0,1.0094057657849989,3.909488457586235,0.0,0.0,2.0,0.6,1.2,100.0,1.0,0.18,0.026610537628349862,0.2,1.0,-160.0,0,0,calibrating,0,0,0,0,0,0.0
0.7006236449999506,72,970.06,96.8,7.5,-82.6,-0.29,-4.21,0.65,-0.01,0.91,0.18,-101.2,-92.3,92.0,-1.75,2.37,-0.01,0.0,0.9276852914647294,4.269742380987405,0.0,0.0,2.0,0.6,1.2,100.0,1.0,0.18,0.10616439170964698,0.2,1.0,-160.0,0,0,calibrating,0,0,0,0,0,0.0
0.7123615680000057,73,970.07,96.8,7.5,-82.1,-0.41,-4.5,0.6,0.07,0.85,0.18,-102.1,-81.4,109.0,-1.73,2.05,-0.14,0.0,0.8716650732936361,4.558300121755916,0.0,0.0,2.0,0.6,1.2,100.0,1.0,0.18,0.15894091768312546,0.2,1.0,-160.0,0,0,calibrating,0,0,0,0,0,0.0
0.7205266930000107,74,970.08,96.8,7.5,-81.7,-0.54,-4.66,0.5,0.14,0.81,0.17,-102.7,-69.5,129.0,-1.71,1.64,-0.2,0.0,0.8394045508573325,4.717753702769995,0.0,0.0,2.0,0.6,1.2,100.0,1.0,0.18,0.18737741131704055,0.2,1.0,-160.0,0,0,calibrating,0,0,0,0,0,0.0
0.7325504689999889,75,970.09,96.8,7.5,-81.2,-0.7,-4.6,0.35,0.21,0.77,0.13,-103.4,-52.3,154.0,-1.7,1.2,-0.02,0.0,0.8086408349817612,4.666101156211682,0.0,0.0,2.0,0.6,1.2,100.0,1.0,0.18,0.21377830464875947,0.2,1.0,-160.0,0,0,calibrating,0,0,0,0,0,0.0
0.7445981280000069,76,970.1,96.8,7.4,-80.7,-0.73,-4.34,0.17,0.23,0.77,0.09,-103.8,-33.6,182.0,-1.69,0.67,0.03,0.0,0.8086408349817612,4.404247949423374,0.0,0.0,2.0,0.6,1.2,100.0,1.0,0.18,0.20950273855578427,0.2,1.0,-160.0,0,0,calibrating,0,0,0,0,0,0.0
0.752485482000111,77,970.11,96.8,7.4,-80.3,-0.56,-3.91,0.06,0.23,0.79,0.05,-104.0,-14.5,173.0,-1.69,0.21,-0.17,0.0,0.8243178998420452,3.950354414479795,0.0,0.0,2.0,0.6,1.2,100.0,1.0,0.18,0.18994916022159025,0.2,1.0,-160.0,0,0,calibrating,0,0,0,0,0,0.0
0.7603786930001206,78,970.12,96.8,7.3,-79.9,-0.29,-3.53,0.05,0.21,0.83,0.05,-104.0,-1.6,127.0,-1.69,-0.05,0.05,0.0,0.8576129663198895,3.5422450508117023,0.0,0.0,2.0,0.6,1.2,100.0,1.0,0.18,0.15352101186887102,0.2,1.0,-160.0,0,0,calibrating,0,0,0,0,0,0.0
0.7726996650001183,79,970.13,96.8,7.3,-79.6,-0.12,-3.25,0.03,0.18,0.85,0.02,-104.0,1.9,36.0,-1.69,0.0,0.14,0.0,0.8690799733051038,3.252352994371921,0.0,0.0,2.0,0.6,1.2,100.0,1.0,0.18,0.13921292478598368,0.2,1.0,-160.0,0,0,calibrating,0,0,0,0,0,0.0
0.7803901490001408,80,970.14,96.8,7.3,-79.3,-0.02,-3.0,-0.05,0.16,0.87,0.0,-104.0,-0.6,5.0,-1.69,0.01,-0.03,0.0,0.8845903006477066,3.00048329440442,0.0,0.0,2.0,0.6,1.2,100.0,1.0,0.18,0.12122854549451334,0.2,1.0,-160.0,0,0,calibrating,0,0,0,0,0,0.0
0.79244104899999,81,970.15,96.9,7.2,-79.0,0.07,-2.75,-0.17,0.15,0.92,-0.01,-104.0,0.3,4.0,-1.69,0.0,-0.04,0.0,0.9322016949137134,2.756138603191066,0.0,0.0,2.0,0.6,1.2,100.0,1.0,0.18,0.07214480820393632,0.2,1.0,-160.0,0,0,calibrating,0,0,0,0,0,0.0
0.8005886720000035,82,970.16,96.9,7.2,-78.8,0.12,-2.44,-0.2,0.15,0.96,-0.03,-104.0,0.0,1.0,-1.69,0.0,-0.04,0.0,0.972111104761179,2.4511221919765647,0.0,0.0,2.0,0.6,1.2,100.0,1.0,0.18,0.03159069038934126,0.2,1.0,-160.0,0,0,calibrating,0,0,0,0,0,0.0
0.8124194800000168,83,970.17,96.9,7.2,-78.5,0.21,-2.11,-0.15,0.15,0.99,-0.05,-104.0,0.2,0.0,-1.69,0.0,-0.04,0.0,1.002546757014355,2.125723406278437,0.0,0.0,2.0,0.6,1.2,100.0,1.0,0.18,0.0011319373734419713,0.2,1.0,-160.0,0,0,calibrating,0,0,0,0,0,0.0
0.8204666589999761,84,970.18,96.9,7.1,-78.4,0.33,-1.75,-0.03,0.15,1.02,-0.07,-104.0,-0.3,-1.0,-1.69,0.0,0.05,0.0,1.0333440859655605,1.7810951687094096,0.0,0.0,2.0,0.6,1.2,100.0,1.0,0.18,0.02907208374620862,0.2,1.0,-160.0,0,0,calibrating,0,0,0,0,0,0.0
0.8323040709999532,85,970.19,96.9,7.1,-78.2,0.5,-1.37,0.12,0.16,1.06,-0.08,-104.0,-0.4,-3.0,-1.69,0.01,0.05,0.0,1.0749883720301352,1.463318147225681,0.0,0.0,2.0,0.6,1.2,100.0,1.0,0.18,0.06930204241456739,0.2,1.0,-160.0,0,0,calibrating,0,0,0,0,0,0.0
0.8405290349999177,86,970.2,97.0,7.2,-78.1,0.64,-0.99,0.33,0.16,1.11,-0.08,-104.0,-0.7,1.0,-1.69,0.0,0.14,0.0,1.1243220179290274,1.2241731903615598,0.0,0.0,2.0,0.6,1.2,100.0,1.0,0.18,0.11626297454719037,0.2,1.0,-160.0,0,0,calibrating,0,0,0,0,0,0.0
0.8522866370001339,87,970.21,97.0,7.2,-78.0,0.48,-0.72,0.52,0.16,1.14,-0.08,-104.0,-1.3,-11.0,-1.69,0.06,-0.13,0.0,1.1539497389401325,1.009554357129917,0.0,0.0,2.0,0.6,1.2,100.0,1.0,0.18,0.14297288164712962,0.2,1.0,-160.0,0,0,calibrating,0,0,0,0,0,0.0
0.860389067000142,88,970.22,97.0,7.3,-77.9,0.2,-0.57,0.68,0.14,1.15,-0.07,-104.0,-3.4,-16.0,-1.69,0.11,0.1,0.0,1.1606032913963322,0.9095603333479314,0.0,0.0,2.0,0.6,1.2,100.0,1.0,0.18,0.14663390542126264,0.2,1.0,-160.0,0,0,calibrating,0,0,0,0,0,0.0
0.8723099460000867,89,970.23,97.0,7.3,-77.9,-0.12,-0.52,0.79,0.12,1.13,-0.07,-104.1,-6.3,-25.0,-1.69,0.21,-0.1,0.0,1.1385077953180645,0.9533624704172071,0.0,0.0,2.0,0.6,1.2,100.0,1.0,0.18,0.12204764115613487,0.2,1.0,-160.0,0,0,calibrating,0,0,0,0,0,0.0
0.8802661110000827,90,970.24,97.0,7.4,-77.8,-0.39,-0.52,0.87,0.1,1.11,-0.06,-104.2,-10.6,-45.0,-1.68,0.37,0.2,0.0,1.1161093136427096,1.0860018416190647,0.0,0.0,2.0,0.6,1.2,100.0,1.0,0.18,0.09765617629116452,0.2,1.0,-160.0,0,0,calibrating,0,0,0,0,0,0.0
0.8925752719999309,91,970.25,96.9,7.4,-77.8,-0.52,-0.56,0.93,0.1,1.08,-0.05,-104.3,-15.1,-39.0,-1.68,0.46,0.07,0.0,1.0857716150277645,1.2037026210821342,0.0,0.0,2.0,0.6,1.2,100.0,1.0,0.18,0.06597210812269516,0.2,1.0,-160.0,0,0,calibrating,0,0,0,0,0,0.0
0.9005329460001121,92,970.26,96.8,7.5,-77.7,-0.66,-0.58,0.99,0.1,1.07,-0.05,-104.5,-22.3,-73.0,-1.67,0.72,0.01,0.0,1.0758252646224664,1.32366914295076,0.0,0.0,2.0,0.6,1.2,100.0,1.0,0.18,0.054905242563049184,0.2,1.0,-160.0,0,0,calibrating,0,0,0,0,0,0.0
0.9123409640001228,93,970.27,96.7,7.6,-77.6,-0.8,-0.6,1.05,0.11,1.05,-0.05,-104.8,-30.7,-73.0,-1.66,0.93,0.13,0.0,1.056929515152264,1.45,0.0,0.0,2.0,0.6,1.2,100.0,1.0,0.18,0.03528930323098978,0.2,1.0,-160.0,0,0,calibrating,0,0,0,0,0,0.0
0.9203415399999813,94,970.28,96.6,7.7,-77.5,-0.87,-0.58,1.16,0.11,1.04,-0.06,-105.2,-37.0,-63.0,-1.65,1.07,0.22,0.0,1.0475208828467335,1.5616977940690062,0.0,0.0,2.0,0.6,1.2,100.0,1.0,0.18,0.025363057506950115,0.2,1.0,-160.0,0,0,calibrating,0,0,0,0,0,0.0
0.9323920060001001,95,970.29,96.5,7.8,-77.5,-0.96,-0.56,1.3,0.11,1.02,-0.07,-105.6,-43.7,-70.0,-1.64,1.28,0.05,0.0,1.0282995672468214,1.7103216071838654,0.0,0.0,2.0,0.6,1.2,100.0,1.0,0.18,0.0060189070688971835,0.2,1.0,-160.0,0,0,calibrating,0,0,0,0,0,0.0
0.9404842369999642,96,970.3,96.4,7.9,-77.4,-0.94,-0.5,1.4,0.12,0.99,-0.07,-106.1,-50.0,-52.0,-1.63,1.39,-0.04,0.0,0.9996999549864949,1.758863269273652,0.0,0.0,2.0,0.6,1.2,100.0,1.0,0.18,0.02212909108760064,0.2,1.0,-160.0,0,0,calibrating,0,0,0,0,0,0.0
0.9524244260001069,97,970.31,96.3,8.0,-77.4,-0.9,-0.42,1.48,0.13,0.97,-0.07,-106.6,-51.9,-24.0,-1.61,1.41,-0.28,0.0,0.981172767661231,1.7823579887329033,0.0,0.0,2.0,0.6,1.2,100.0,1.0,0.18,0.039843152844607266,0.2,1.0,-160.0,0,0,calibrating,0,0,0,0,0,0.0
0.9603234740000062,98,970.32,96.2,8.2,-77.3,-0.93,-0.32,1.49,0.15,0.94,-0.08,-107.1,-52.4,-14.0,-1.6,1.44,0.0,0.0,0.9552486587271399,1.7853291013143768,0.0,0.0,2.0,0.6,1.2,100.0,1.0,0.18,0.06445191654312432,0.2,1.0,-160.0,0,0,calibrating,0,0,0,0,0,0.0
0.9724097150001398,99,970.33,96.1,8.3,-77.3,-0.95,-0.21,1.45,0.16,0.91,-0.08,-107.6,-52.1,-5.0,-1.58,1.43,0.04,0.0,0.9274157643689264,1.7461672313956644,0.0,0.0,2.0,0.6,1.2,100.0,1.0,0.18,0.09043911468331123,0.2,1.0,-160.0,0,0,calibrating,0,0,0,0,0,0.0
0.9803819730000214,100,970.34,96.0,8.5,-77.2,-1.03,-0.03,1.36,0.17,0.9,-0.08,-108.1,-51.5,9.0,-1.57,1.37,0.15,0.0,0.9194019795497507,1.7062825088478168,0.0,0.0,2.0,0.6,1.2,100.0,1.0,0.18,0.09648384151243727,0.2,1.0,-160.0,0,0,calibrating,0,0,0,0,0,0.0
0.9924465860001419,101,970.35,95.9,8.7,-77.2,-0.96,0.01,1.25,0.17,0.88,-0.09,-108.6,-48.9,26.0,-1.56,1.27,-0.13,0.0,0.9007774419910837,1.5761345120261785,0.0,0.0,2.0,0.6,1.2,100.0,1.0,0.18,0.11280621148968217,0.2,1.0,-160.0,0,0,calibrating,0,0,0,0,0,0.0
1.000522845999967,102,970.36,95.8,8.8,-77.2,-0.95,0.13,1.09,0.18,0.86,-0.09,-109.1,-42.4,57.0,-1.55,1.07,0.09,0.0,0.8832326986700616,1.4517231140957976,0.0,0.0,2.0,0.6,1.2,100.0,1.0,0.18,0.12774393571449005,0.2,1.0,-160.0,0,0,calibrating,0,0,0,0,0,0.0
1.0123008289999689,103,970.37,95.7,8.9,-77.2,-0.94,0.23,0.95,0.17,0.85,-0.1,-109.5,-37.2,52.0,-1.54,0.93,-0.07,0.0,0.8725823743349392,1.3560973416388662,0.0,0.0,2.0,0.6,1.2,100.0,1.0,0.18,0.13562637484862017,0.2,1.0,-160.0,0,0,calibrating,0,0,0,0,0,0.0
1.0220093640000414,104,970.38,95.6,9.1,-77.2,-0.98,0.36,0.78,0.17,0.84,-0.11,-109.8,-30.5,65.0,-1.53,0.74,-0.06,0.0,0.8640601830891179,1.3032267646115927,0.0,0.0,2.0,0.6,1.2,100.0,1.0,0.18,0.14126559477255274,0.2,1.0,-160.0,0,0,calibrating,0,0,0,0,0,0.0
1.0317891909999162,105,970.39,95.5,9.1,-77.3,-1.0,0.47,0.61,0.15,0.84,-0.11,-110.1,-22.3,77.0,-1.52,0.51,-0.01,0.0,0.8603487664894974,1.2621410380777578,0.0,0.0,2.0,0.6,1.2,100.0,1.0,0.18,0.1420774711447298,0.2,1.0,-160.0,0,0,calibrating,0,0,0,0,0,0.0
1.043769126000143,106,970.4,95.4,9.2,-77.3,-1.08,0.58,0.43,0.14,0.84,-0.12,-110.2,-16.1,64.0,-1.52,0.35,0.1,0.0,0.8599999999999999,1.2991150834317953,0.0,0.0,2.0,0.6,1.2,100.0,1.0,0.18,0.13957771288154264,0.2,1.0,-160.0,0,0,calibrating,0,0,0,0,0,0.0
1.0565670500000124,107,970.41,95.3,9.2,-77.4,-1.1,0.7,0.25,0.14,0.86,-0.12,-110.4,-9.4,65.0,-1.52,0.17,0.05,0.0,0.8795453370918408,1.3275918047351754,0.0,0.0,2.0,0.6,1.2,100.0,1.0,0.18,0.11763172827390767,0.2,1.0,-160.0,0,0,calibrating,0,0,0,0,0,0.0
1.068545578000112,108,970.42,95.3,9.3,-77.4,-1.1,0.79,0.07,0.14,0.87,-0.13,-110.4,-2.1,72.0,-1.52,-0.03,-0.03,0.0,0.890730037665734,1.3560973416388664,0.0,0.0,2.0,0.6,1.2,100.0,1.0,0.18,0.10431808714601432,0.2,1.0,-160.0,0,0,calibrating,0,0,0,0,0,0.0
1.0763326960000086,109,970.43,95.2,9.3,-77.5,-1.11,0.86,-0.1,0.15,0.88,-0.13,-110.4,1.4,17.0,-1.52,0.02,0.05,0.0,0.9021086409075129,1.4077286670377926,0.0,0.0,2.0,0.6,1.2,100.0,1.0,0.18,0.09108069422615073,0.2,1.0,-160.0,0,0,calibrating,0,0,0,0,0,0.0
1.0845488730001307,110,970.44,95.1,9.3,-77.6,-1.12,0.91,-0.3,0.16,0.89,-0.13,-110.4,-0.3,6.0,-1.52,0.0,0.13,0.0,0.9135644476444998,1.4739402972983675,0.0,0.0,2.0,0.6,1.2,100.0,1.0,0.18,0.07803238973938043,0.2,1.0,-160.0,0,0,calibrating,0,0,0,0,0,0.0
1.0924839460001294,111,970.45,95.0,9.2,-77.7,-1.09,0.98,-0.5,0.15,0.89,-0.13,-110.4,0.0,2.0,-1.52,0.0,0.21,0.0,0.9118662182579197,1.548709139896837,0.0,0.0,2.0,0.6,1.2,100.0,1.0,0.18,0.07813600674344134,0.2,1.0,-160.0,0,0,calibrating,0,0,0,0,0,0.0
1.1005599879999863,112,970.46,94.9,9.2,-77.8,-0.96,1.03,-0.67,0.14,0.91,-0.13,-110.4,-0.1,-3.0,-1.52,0.01,-0.03,0.0,0.9298386956886662,1.5592947123619705,0.0,0.0,2.0,0.6,1.2,100.0,1.0,0.18,0.05896025872644095,0.2,1.0,-160.0,0,0,calibrating,0,0,0,0,0,0.0
1.1123669610001343,113,970.47,94.8,9.1,-77.9,-0.82,1.02,-0.78,0.12,0.92,-0.12,-110.4,0.0,0.0,-1.52,0.0,-0.1,0.0,0.93552124508212,1.5235484895466898,0.0,0.0,2.0,0.6,1.2,100.0,1.0,0.18,0.05221215514632738,0.2,1.0,-160.0,0,0,calibrating,0,0,0,0,0,0.0
1.1205312570000387,114,970.48,94.8,9.0,-78.0,-0.74,0.95,-0.84,0.1,0.93,-0.12,-110.4,-0.9,-3.0,-1.52,0.03,-0.03,0.0,0.9430270409696638,1.4682302271782854,0.0,0.0,2.0,0.6,1.2,100.0,1.0,0.18,0.04381223207360785,0.2,1.0,-160.0,0,0,calibrating,0,0,0,0,0,0.0
1.1324240960000225,115,970.49,94.7,8.9,-78.1,-0.74,0.89,-0.9,0.09,0.94,-0.13,-110.4,-1.5,-6.0,-1.51,0.05,-0.03,0.0,0.9532051195833979,1.4661855271417734,0.0,0.0,2.0,0.6,1.2,100.0,1.0,0.18,0.03296147039067632,0.2,1.0,-160.0,0,0,calibrating,0,0,0,0,0,0.0
1.1404363340000145,116,970.5,94.6,8.8,-78.2,-0.8,0.85,-0.95,0.08,0.94,-0.14,-110.4,-2.4,-8.0,-1.51,0.07,-0.12,0.0,0.9537295214053091,1.5049916943292412,0.0,0.0,2.0,0.6,1.2,100.0,1.0,0.18,0.03178832719738989,0.2,1.0,-160.0,0,0,calibrating,0,0,0,0,0,0.0
1.1522374630001195,117,970.51,94.5,8.7,-78.3,-0.86,0.85,-0.97,0.08,0.94,-0.14,-110.5,-4.8,-22.0,-1.51,0.16,-0.03,0.0,0.9537295214053091,1.5501612819316577,0.0,0.0,2.0,0.6,1.2,100.0,1.0,0.18,0.031152560653442074,0.2,1.0,-160.0,0,0,calibrating,0,0,0,0,0,0.0
1.160429238000006,118,970.52,94.4,8.6,-78.4,-0.79,0.88,-0.96,0.09,0.93,-0.15,-110.6,-12.1,-80.0,-1.51,0.5,0.16,0.0,0.9463086177352503,1.5231874474272693,0.0,0.0,2.0,0.6,1.2,100.0,1.0,0.18,0.037801995037030856,0.2,1.0,-160.0,0,0,calibrating,0,0,0,0,0,0.0
1.1723898100001406,119,970.53,94.4,8.5,-78.5,-0.6,0.94,-0.9,0.11,0.93,-0.15,-110.8,-24.7,-108.0,-1.5,0.8,0.1,0.0,0.9484197383015602,1.4330387294138285,0.0,0.0,2.0,0.6,1.2,100.0,1.0,0.18,0.03497705698130649,0.2,1.0,-160.0,0,0,calibrating,0,0,0,0,0,0.0
1.180444953999995,120,970.54,94.4,8.4,-78.6,-0.43,1.03,-0.78,0.12,0.93,-0.13,-111.1,-37.6,-118.0,-1.49,1.16,0.11,0.0,0.9466784036831093,1.3616901262769001,0.0,0.0,2.0,0.6,1.2,100.0,1.0,0.18,0.03598402376776233,0.2,1.0,-160.0,0,0,calibrating,0,0,0,0,0,0.0
1.1924475420000817,121,970.55,94.4,8.4,-78.7,-0.25,1.07,-0.65,0.12,0.92,-0.12,-111.5,-46.1,-84.0,-1.48,1.31,0.1,0.0,0.93552124508212,1.2766753698571929,0.0,0.0,2.0,0.6,1.2,100.0,1.0,0.18,0.046198358721376565,0.2,1.0,-160.0,0,0,calibrating,0,0,0,0,0,0.0
1.2005066950000582,122,970.56,94.4,8.3,-78.8,-0.03,1.04,-0.51,0.12,0.9,-0.1,-112.1,-56.1,-103.0,-1.46,1.65,0.07,0.0,0.913454979733539,1.1587061750072793,0.0,0.0,2.0,0.6,1.2,100.0,1.0,0.18,0.06689933158855843,0.2,1.0,-160.0,0,0,calibrating,0,0,0,0,0,0.0
1.2123282780000864,123,970.57,94.4,8.3,-78.9,0.28,0.94,-0.39,0.12,0.9,-0.1,-112.7,-68.0,-114.0,-1.44,1.99,0.13,0.0,0.913454979733539,1.0555093557141026,0.0,0.0,2.0,0.6,1.2,100.0,1.0,0.18,0.06556134495678723,0.2,1.0,-160.0,0,0,calibrating,0,0,0,0,0,0.0
1.2205269520000002,124,970.58,94.4,8.2,-79.0,0.56,0.79,-0.28,0.13,0.91,-0.12,-113.5,-81.3,-132.0,-1.42,2.38,0.06,0.0,0.9270382947861432,1.0080178569846867,0.0,0.0,2.0,0.6,1.2,100.0,1.0,0.18,0.050938469306099354,0.2,1.0,-160.0,0,0,calibrating,0,0,0,0,0,0.0
1.2323245049999514,125,970.59,94.5,8.2,-79.1,0.7,0.73,-0.25,0.16,0.92,-0.16,-114.4,-93.0,-109.0,-1.4,2.63,0.04,0.0,0.9474175425861608,1.0418253212511202,0.0,0.0,2.0,0.6,1.2,100.0,1.0,0.18,0.029948037075959943,0.2,1.0,-160.0,0,0,calibrating,0,0,0,0,0,0.0
1.2444672060000812,126,970.6,94.6,8.2,-79.1,0.72,0.83,-0.23,0.19,0.94,-0.21,-115.4,-102.6,-103.0,-1.37,2.89,-0.04,0.0,0.9817331613019904,1.1225862995778988,0.0,0.0,2.0,0.6,1.2,100.0,1.0,0.18,0.004280230007072117,0.2,1.0,-160.0,0,0,calibrating,0,0,0,0,0,0.0
1.2525204240000676,127,970.61,94.7,8.2,-79.2,0.83,1.09,-0.15,0.22,0.98,-0.23,-116.5,-112.4,-93.0,-1.34,3.14,-0.12,0.0,1.0303882763308208,1.3782234942127494,0.0,0.0,2.0,0.6,1.2,100.0,1.0,0.18,0.051876638135184394,0.2,1.0,-160.0,0,0,calibrating,0,0,0,0,0,0.0
1.260423807000052,128,970.62,94.7,8.2,-79.4,1.13,1.42,0.07,0.25,1.04,-0.23,-117.7,-121.4,-94.0,-1.3,3.42,0.2,0.0,1.0940749517286281,1.8160947111866164,0.0,0.0,2.0,0.6,1.2,100.0,1.0,0.18,0.11325204726233196,0.2,1.0,-160.0,0,0,calibrating,0,0,0,0,0,0.0
1.2723246709999785,129,970.63,94.9,8.2,-79.5,1.52,1.77,0.39,0.25,1.06,-0.23,-119.0,-133.5,-120.0,-1.27,3.79,0.12,0.0,1.1131037687475505,2.365459786172659,0.0,0.0,2.0,0.6,1.2,100.0,1.0,0.18,0.12963524699562923,0.2,1.0,-160.0,0,0,calibrating,0,0,0,0,0,0.0
1.2803271249999852,130,970.64,95.0,8.3,-79.7,1.79,2.06,0.7,0.24,1.08,-0.2,-120.4,-147.9,-135.0,-1.22,4.18,-0.09,0.0,1.1242775458044159,2.8173924114329547,0.0,0.0,2.0,0.6,1.2,100.0,1.0,0.18,0.13799284357144448,0.2,1.0,-160.0,0,0,calibrating,0,0,0,0,0,0.0
1.2924366790000477,131,970.65,95.2,8.4,-79.9,1.91,2.18,1.01,0.21,1.08,-0.18,-122.0,-162.7,-150.0,-1.18,4.62,-0.01,0.0,1.114854250563723,3.069299594370025,0.0,0.0,2.0,0.6,1.2,100.0,1.0,0.18,0.12599815736413666,0.2,1.0,-160.0,0,0,calibrating,0,0,0,0,0,0.0
1.3045794170000136,132,970.66,95.4,8.6,-80.1,2.02,2.19,1.16,0.18,1.03,-0.18,-123.8,-180.4,-176.0,-1.13,5.14,0.09,0.0,1.0609901036296239,3.1972019016633904,0.0,0.0,2.0,0.6,1.2,100.0,1.0,0.18,0.07069133022143692,0.2,1.0,-160.0,0,0,calibrating,0,0,0,0,0,0.0
1.312369876000048,133,970.67,95.6,8.7,-80.3,2.17,2.13,1.22,0.15,1.02,-0.17,-125.6,-198.0,-170.0,-1.08,5.58,0.09,0.0,1.0448923389517217,3.27630889874566,0.0,0.0,2.0,0.6,1.2,100.0,1.0,0.18,0.053501694232664265,0.2,1.0,-160.0,0,0,calibrating,0,0,0,0,0,0.0
1.3205652209999243,134,970.68,95.8,8.9,-80.5,2.09,2.08,1.28,0.12,1.07,-0.13,-127.7,-214.7,-160.0,-1.02,5.99,0.21,0.0,1.0845275469069469,3.2144828510975136,0.0,0.0,2.0,0.6,1.2,100.0,1.0,0.18,0.09127416414413159,0.2,1.0,-160.0,0,0,calibrating,0,0,0,0,0,0.0
1.3323262979999981,135,970.69,96.0,9.0,-80.7,1.91,2.08,1.43,0.1,1.13,-0.1,-130.0,-231.0,-164.0,-0.95,6.46,-0.05,0.0,1.1388151737661383,3.165343583246533,0.0,0.0,2.0,0.6,1.2,100.0,1.0,0.18,0.1426505551832563,0.2,1.0,-160.0,0,0,calibrating,0,0,0,0,0,0.0
1.3404797880000388,136,970.7,96.1,9.1,-80.9,1.84,2.15,1.65,0.07,1.21,-0.06,-132.4,-248.6,-171.0,-0.89,6.94,0.23,0.0,1.2135073135337915,3.275759453928203,0.0,0.0,2.0,0.6,1.2,100.0,1.0,0.18,0.2129958410518913,0.2,1.0,-160.0,0,0,calibrating,0,0,0,0,0,0.0
1.352420087999917,137,970.71,96.3,9.3,-81.1,1.84,2.25,2.01,0.05,1.33,-0.01,-135.1,-267.4,-171.0,-0.81,7.43,0.0,0.0,1.3309770847013107,3.533864739912947,0.0,0.0,2.0,0.6,1.2,100.0,1.0,0.18,0.3238562999750223,0.2,1.0,-160.0,0,0,calibrating,0,0,0,0,0,0.0
1.3604305690000729,138,970.72,96.4,9.6,-81.3,1.47,2.32,2.54,0.03,1.42,0.03,-137.8,-278.6,-111.0,-0.74,7.64,0.0,0.0,1.4206336614342208,3.740975808529106,0.0,0.0,2.0,0.6,1.2,100.0,1.0,0.18,0.40524261917377347,0.2,1.0,-160.0,0,0,calibrating,0,0,0,0,0,0.0
1.3724590750000516,139,970.73,96.5,9.9,-81.5,0.93,2.33,3.04,0.01,1.43,0.06,-140.6,-286.6,-99.0,-0.66,7.91,-0.22,0.0,1.4312931216211444,3.9414971774694956,0.0,0.0,2.0,0.6,1.2,100.0,1.0,0.18,0.4075840377734832,0.2,1.0,-160.0,0,0,calibrating,0,0,0,0,0,0.0
1.3804166360000636,140,970.74,96.5,10.2,-81.7,0.3,2.15,3.31,-0.02,1.37,0.07,-143.6,-294.9,-83.0,-0.58,8.1,0.03,0.0,1.3719329429676947,3.9583582455356416,0.0,0.0,2.0,0.6,1.2,100.0,1.0,0.18,0.3412593819376333,0.2,1.0,-160.0,0,0,calibrating,0,0,0,0,0,0.0
1.3924695729999712,141,970.75,96.5,10.6,-81.9,-0.11,1.88,3.25,0.01,1.25,0.06,-146.5,-297.1,-20.0,-0.5,8.04,0.01,0.0,1.2514791248758408,3.756194883123079,0.0,0.0,2.0,0.6,1.2,100.0,1.0,0.18,0.21638945256886344,0.2,1.0,-160.0,0,0,calibrating,0,0,0,0,0,0.0
1.4004779429999417,142,970.76,96.5,10.9,-82.0,-0.38,1.67,2.81,0.13,1.13,0.06,-149.5,-293.8,17.0,-0.42,7.93,-0.03,0.0,1.1390346790155248,3.290805372549401,0.0,0.0,2.0,0.6,1.2,100.0,1.0,0.18,0.10186610657437645,0.2,1.0,-160.0,0,0,calibrating,0,0,0,0,0,0.0
1.4123899930000334,143,970.77,96.4,11.2,-82.2,-0.41,1.5,2.17,0.25,1.02,0.08,-152.4,-291.0,22.0,-0.34,7.86,0.05,0.0,1.0532331175955303,2.6696441710460217,0.0,0.0,2.0,0.6,1.2,100.0,1.0,0.18,0.015743254251294303,0.2,1.0,-160.0,0,0,calibrating,0,0,0,0,0,0.0
1.4205755420000514,144,970.78,96.3,11.4,-82.3,-0.02,1.53,1.39,0.34,0.95,0.07,-155.3,-287.5,29.0,-0.26,7.77,0.03,0.0,1.0114346246792225,2.067220355936928,0.0,0.0,2.0,0.6,1.2,100.0,1.0,0.18,0.025534133891713218,0.2,1.0,-160.0,0,0,calibrating,0,0,0,0,0,0.0
1.432451914000012,145,970.79,96.3,11.5,-82.4,0.42,1.87,0.6,0.4,0.91,0.05,-158.1,-283.9,36.0,-0.18,7.67,-0.09,0.0,0.995288902781499,2.008307745341834,0.0,0.0,2.0,0.6,1.2,100.0,1.0,0.18,0.040846258673648106,0.2,1.0,-160.0,0,0,calibrating,0,0,0,0,0,0.0
1.4404900570000336,146,970.8,96.3,11.5,-82.7,0.7,2.38,-0.12,0.4,0.92,0.04,-160.9,-280.6,37.0,-0.11,7.57,-0.12,0.0,1.0039920318408908,2.483706907024257,0.0,0.0,2.0,0.6,1.2,100.0,1.0,0.18,0.031500267021971284,0.2,1.0,-160.0,0,0,calibrating,0,0,0,0,0,0.0
1.452446345999988,147,970.81,96.4,11.5,-82.9,0.62,3.01,-0.71,0.35,0.92,0.04,-163.7,-273.8,76.0,-0.03,7.29,-0.1,0.0,0.9851395840184273,3.154140136392167,0.0,0.0,2.0,0.6,1.2,100.0,1.0,0.18,0.049345660547545855,0.2,1.0,-160.0,0,0,calibrating,0,0,0,0,0,0.0
1.4602120810000088,148,970.82,96.3,11.5,-83.3,0.34,3.62,-1.13,0.28,0.91,0.04,-166.4,-261.4,105.0,0.03,6.96,0.0,0.0,0.9529428104561155,3.8074794812316455,0.0,0.0,2.0,0.6,1.2,100.0,1.0,0.18,0.07991158542766041,0.2,1.0,-160.0,0,0,calibrating,0,0,0,0,0,0.0
1.4724669970000832,149,970.83,96.3,11.4,-83.7,-0.09,4.16,-1.37,0.19,0.9,0.06,-168.9,-252.6,80.0,0.1,6.79,-0.08,0.0,0.9217917335276988,4.380707705382773,0.0,0.0,2.0,0.6,1.2,100.0,1.0,0.18,0.10884140910895568,0.2,1.0,-160.0,0,0,calibrating,0,0,0,0,0,0.0
1.4803010140001334,150,970.84,96.1,11.3,-84.2,-0.45,4.54,-1.43,0.09,0.88,0.07,-171.4,-247.0,70.0,0.16,6.62,0.0,0.0,0.8873556220591606,4.781108658041563,0.0,0.0,2.0,0.6,1.2,100.0,1.0,0.18,0.14041197016594398,0.2,1.0,-160.0,0,0,calibrating,0,0,0,0,0,0.0
1.4924713269999756,151,970.85,96.0,11.2,-84.7,-0.69,4.82,-1.41,-0.01,0.88,0.09,-173.8,-238.2,92.0,0.23,6.33,-0.02,0.0,0.8846468221838588,5.069181393479622,0.0,0.0,2.0,0.6,1.2,100.0,1.0,0.18,0.1402583546404208,0.2,1.0,-160.0,0,0,calibrating,0,0,0,0,0,0.0
1.5005162980000932,152,970.86,95.8,11.1,-85.2,-0.91,4.91,-1.28,-0.08,0.9,0.13,-176.1,-225.0,125.0,0.29,5.93,-0.03,0.0,0.9128526715741155,5.155055770794338,0.0,0.0,2.0,0.6,1.2,100.0,1.0,0.18,0.10981145514516089,0.2,1.0,-160.0,0,0,calibrating,0,0,0,0,0,0.0
1.5123512620000383,153,970.87,95.6,11.0,-85.7,-1.21,4.83,-1.05,-0.13,0.92,0.16,-178.3,-209.2,154.0,0.35,5.46,-0.17,0.0,0.9428149341201592,5.08876212845521,0.0,0.0,2.0,0.6,1.2,100.0,1.0,0.18,0.07825220874713501,0.2,1.0,-160.0,0,0,calibrating,0,0,0,0,0,0.0
1.5205260079999334,154,970.88,95.4,11.0,-86.2,-1.54,4.63,-0.78,-0.15,0.94,0.18,-180.2,-187.5,216.0,0.4,4.77,-0.02,0.0,0.9687620966986683,4.941345970482131,0.0,0.0,2.0,0.6,1.2,100.0,1.0,0.18,0.05125894524525343,0.2,1.0,-160.0,0,0,calibrating,0,0,0,0,0,0.0
1.5324367260000145,155,970.89,95.1,11.0,-86.6,-1.83,4.35,-0.5,-0.16,0.93,0.19,-181.9,-159.1,269.0,0.44,3.95,-0.04,0.0,0.9626006440887104,4.745671712202604,0.0,0.0,2.0,0.6,1.2,100.0,1.0,0.18,0.05627198989810711,0.2,1.0,-160.0,0,0,calibrating,0,0,0,0,0,0.0
1.5405345429999215,156,970.9,94.8,11.0,-87.1,-1.83,3.98,-0.3,-0.15,0.91,0.2,-183.3,-125.2,333.0,0.47,2.93,-0.11,0.0,0.9437160589923221,4.390819968980737,0.0,0.0,2.0,0.6,1.2,100.0,1.0,0.18,0.07365344349460545,0.2,1.0,-160.0,0,0,calibrating,0,0,0,0,0,0.0
1.5525484550000783,157,970.91,94.6,11.0,-87.4,-1.52,3.55,-0.22,-0.13,0.9,0.2,-184.3,-86.4,376.0,0.49,1.84,-0.09,0.0,0.9310746479203481,3.867983971011255,0.0,0.0,2.0,0.6,1.2,100.0,1.0,0.18,0.08456895747524795,0.2,1.0,-160.0,0,0,calibrating,0,0,0,0,0,0.0
1.5603404220000812,158,970.92,94.4,11.0,-87.8,-0.99,3.08,-0.24,-0.11,0.91,0.18,-184.8,-44.2,419.0,0.5,0.64,-0.18,0.0,0.9341306118525396,3.2440869285516998,0.0,0.0,2.0,0.6,1.2,100.0,1.0,0.18,0.07988273367219523,0.2,1.0,-160.0,0,0,calibrating,0,0,0,0,0,0.0
1.5724607350000497,159,970.93,94.3,11.0,-88.1,-0.45,2.59,-0.33,-0.09,0.93,0.16,-185.0,0.0,412.0,0.5,-0.45,-0.14,0.0,0.9479451460923254,2.649433901798646,0.0,0.0,2.0,0.6,1.2,100.0,1.0,0.18,0.06474683544376125,0.2,1.0,-160.0,0,0,calibrating,0,0,0,0,0,0.0
1.5844716359999893,160,970.94,94.2,10.9,-88.3,-0.01,2.23,-0.5,-0.06,0.94,0.12,-184.7,31.9,316.0,0.49,-1.15,-0.09,0.0,0.9495261976375375,2.2853883696212334,0.0,0.0,2.0,0.6,1.2,100.0,1.0,0.18,0.06190246822057821,0.2,1.0,-160.0,0,0,calibrating,0,0,0,0,0,0.0
1.592342422999991,161,970.95,94.2,10.9,-88.5,0.21,1.82,-0.7,-0.03,0.96,0.09,-184.2,55.1,255.0,0.47,-1.76,0.13,0.0,0.9646761114488116,1.961249601657066,0.0,0.0,2.0,0.6,1.2,100.0,1.0,0.18,0.045817503321118114,0.2,1.0,-160.0,0,0,calibrating,0,0,0,0,0,0.0
1.6005620400001135,162,970.96,94.2,10.8,-88.7,0.18,1.53,-0.86,0.0,0.98,0.06,-183.5,79.3,251.0,0.45,-2.45,-0.11,0.0,0.9818350166906862,1.7643412368360039,0.0,0.0,2.0,0.6,1.2,100.0,1.0,0.18,0.02808542611765863,0.2,1.0,-160.0,0,0,calibrating,0,0,0,0,0,0.0
1.6122981860000891,163,970.97,94.2,10.7,-88.8,0.13,1.31,-0.92,0.03,0.98,0.04,-182.6,102.7,235.0,0.42,-3.06,-0.12,0.0,0.9812746812182611,1.6060510577189009,0.0,0.0,2.0,0.6,1.2,100.0,1.0,0.18,0.028072846358282,0.2,1.0,-160.0,0,0,calibrating,0,0,0,0,0,0.0
1.6202959049999208,164,970.98,94.2,10.7,-89.0,0.14,1.22,-0.92,0.07,0.97,0.02,-181.5,123.4,236.0,0.39,-3.7,0.03,0.0,0.9727281223445737,1.5344054223053307,0.0,0.0,2.0,0.6,1.2,100.0,1.0,0.18,0.03588701712732989,0.2,1.0,-160.0,0,0,calibrating,0,0,0,0,0,0.0
1.6327647709999837,165,970.99,94.1,10.6,-89.1,0.21,1.23,-0.87,0.09,0.97,0.0,-180.0,149.4,236.0,0.35,-4.35,-0.02,0.0,0.9741663102366043,1.5211508800904663,0.0,0.0,2.0,0.6,1.2,100.0,1.0,0.18,0.033759852650593336,0.2,1.0,-160.0,0,0,calibrating,0,0,0,0,0,0.0
1.6403940970001258,166,971.0,94.1,10.5,-89.2,0.24,1.32,-0.83,0.09,0.99,0.0,-178.9,164.3,269.0,0.3,-4.97,-0.18,0.0,0.9940824915468535,1.577624796965362,0.0,0.0,2.0,0.6,1.2,100.0,1.0,0.18,0.01356679791353732,0.2,1.0,-160.0,0,0,calibrating,0,0,0,0,0,0.0
1.6524558099999922,167,971.01,94.1,10.4,-89.4,0.23,1.43,-0.81,0.08,1.01,-0.01,-176.6,193.3,278.0,0.24,-5.62,0.03,0.0,1.0132127121192271,1.659487872808958,0.0,0.0,2.0,0.6,1.2,100.0,1.0,0.18,0.005452154205659587,0.2,1.0,-160.0,0,0,calibrating,0,0,0,0,0,0.0
1.6603696370000307,168,971.02,94.1,10.4,-89.5,0.13,1.53,-0.81,0.06,1.03,-0.01,-174.5,217.6,253.0,0.18,-6.3,-0.14,0.0,1.0317945531936095,1.736058754766094,0.0,0.0,2.0,0.6,1.2,100.0,1.0,0.18,0.023553315374441164,0.2,1.0,-160.0,0,0,calibrating,0,0,0,0,0,0.0
1.6728244910000285,169,971.03,94.1,10.3,-89.7,-0.03,1.62,-0.82,0.04,1.04,-0.02,-172.2,242.0,248.0,0.12,-6.92,-0.04,0.0,1.0409610943738483,1.8159570479501987,0.0,0.0,2.0,0.6,1.2,100.0,1.0,0.18,0.03206545942358652,0.2,1.0,-160.0,0,0,calibrating,0,0,0,0,0,0.0
1.6804399740001372,170,971.04,94.1,10.2,-89.9,-0.18,1.65,-0.85,0.02,1.03,-0.03,-169.6,264.5,216.0,0.04,-7.44,-0.18,0.0,1.0306308747558457,1.8647788072583835,0.0,0.0,2.0,0.6,1.2,100.0,1.0,0.18,0.021300535009472377,0.2,1.0,-160.0,0,0,calibrating,0,0,0,0,0,0.0
1.6925800070000605,171,971.05,94.0,10.2,-90.1,-0.27,1.62,-0.87,0.0,1.02,-0.03,-166.8,283.1,204.0,-0.02,-8.01,-0.07,0.0,1.0204410811016968,1.8585478202080248,0.0,0.0,2.0,0.6,1.2,100.0,1.0,0.18,0.010888526528216813,0.2,1.0,-160.0,0,0,calibrating,0,0,0,0,0,0.0
1.700513663000038,172,971.06,93.9,10.1,-90.2,-0.32,1.56,-0.88,0.0,1.01,-0.03,-163.8,307.7,247.0,-0.11,-8.78,-0.03,0.0,1.0104454463255301,1.8194504664870654,0.0,0.0,2.0,0.6,1.2,100.0,1.0,0.18,0.0008750339170091603,0.2,1.0,-160.0,0,0,calibrating,0,0,0,0,0,0.0
1.7124943060000533,173,971.07,93.9,10.0,-90.4,-0.33,1.47,-0.9,-0.01,0.99,-0.02,-160.6,333.1,230.0,-0.2,-9.36,-0.02,0.0,0.9902524930541705,1.75493589626516,0.0,0.0,2.0,0.6,1.2,100.0,1.0,0.18,0.01893156096726334,0.2,1.0,-160.0,0,0,calibrating,0,0,0,0,0,0.0
1.7243782959999407,174,971.08,93.8,9.9,-90.5,-0.35,1.36,-0.93,-0.01,0.98,-0.02,-157.1,352.1,200.0,-0.3,-9.84,-0.09,0.0,0.9802550688468792,1.6843396332094074,0.0,0.0,2.0,0.6,1.2,100.0,1.0,0.18,0.02835040547106349,0.2,1.0,-160.0,0,0,calibrating,0,0,0,0,0,0.0
1.7322680080001192,175,971.09,93.8,9.8,-90.7,-0.36,1.23,-0.95,-0.01,0.97,-0.02,-153.4,372.1,214.0,-0.4,-10.46,-0.1,0.0,0.9702576977277737,1.5953056133543817,0.0,0.0,2.0,0.6,1.2,100.0,1.0,0.18,0.03758082105836569,0.2,1.0,-160.0,0,0,calibrating,0,0,0,0,0,0.0
1.7406050879999384,176,971.1,93.7,9.7,-90.8,-0.37,1.08,-0.96,-0.01,0.96,-0.03,-149.2,396.5,216.0,-0.51,-11.05,-0.15,0.0,0.9605206921248495,1.4916098685648336,0.0,0.0,2.0,0.6,1.2,100.0,1.0,0.18,0.046371470128064196,0.2,1.0,-160.0,0,0,calibrating,0,0,0,0,0,0.0
1.7526312590000543,177,971.11,93.7,9.7,-90.9,-0.39,0.94,-0.96,-0.01,0.95,-0.04,-145.0,423.1,265.0,-0.63,-11.85,-0.03,0.0,0.9508943158942533,1.3990353819685906,0.0,0.0,2.0,0.6,1.2,100.0,1.0,0.18,0.05487788943148719,0.2,1.0,-160.0,0,0,calibrating,0,0,0,0,0,0.0
1.7643424460000006,178,971.12,93.6,9.6,-91.0,-0.41,0.83,-0.93,-0.01,0.95,-0.05,-140.6,444.9,197.0,-0.75,-12.26,0.03,0.0,0.9513674369033238,1.312211873136347,0.0,0.0,2.0,0.6,1.2,100.0,1.0,0.18,0.053316673053968366,0.2,1.0,-160.0,0,0,calibrating,0,0,0,0,0,0.0
1.7725372059999245,179,971.13,93.5,9.5,-91.1,-0.47,0.71,-0.87,-0.02,0.96,-0.06,-136.0,462.5,188.0,-0.87,-12.77,0.0,0.0,0.9620810776644555,1.2173331507849443,0.0,0.0,2.0,0.6,1.2,100.0,1.0,0.18,0.04175097164698016,0.2,1.0,-160.0,0,0,calibrating,0,0,0,0,0,0.0
1.780051394000111,180,971.14,93.5,9.4,-91.2,-0.66,0.6,-0.74,-0.03,0.97,-0.07,-131.3,473.2,90.0,-1.0,-12.87,0.1,0.0,0.9729850975220535,1.1589650555560336,0.0,0.0,2.0,0.6,1.2,100.0,1.0,0.18,0.030230012753594382,0.2,1.0,-160.0,0,0,calibrating,0,0,0,0,0,0.0
1.7925114990000566,181,971.15,93.4,9.3,-91.2,-0.8,0.52,-0.62,-0.02,0.97,-0.07,-126.5,483.8,142.0,-1.14,-13.36,0.09,0.0,0.9727281223445737,1.137892789325954,0.0,0.0,2.0,0.6,1.2,100.0,1.0,0.18,0.02987724817245263,0.2,1.0,-160.0,0,0,calibrating,0,0,0,0,0,0.0
1.8005355330001294,182,971.16,93.3,9.3,-91.3,-0.91,0.43,-0.48,-0.01,0.97,-0.07,-121.6,492.7,55.0,-1.27,-13.36,0.09,0.0,0.9725739046468397,1.1150784725749125,0.0,0.0,2.0,0.6,1.2,100.0,1.0,0.18,0.029430836552783002,0.2,1.0,-160.0,0,0,calibrating,0,0,0,0,0,0.0
1.8125837439999941,183,971.17,93.2,9.2,-91.3,-1.0,0.4,-0.34,-0.01,0.98,-0.08,-116.7,489.5,0.0,-1.4,-13.27,-0.26,0.0,0.9833107342035883,1.12942463227964,0.0,0.0,2.0,0.6,1.2,100.0,1.0,0.18,0.018320126856113728,0.2,1.0,-160.0,0,0,calibrating,0,0,0,0,0,0.0
1.8204542900000433,184,971.18,93.1,9.2,-91.4,-1.16,0.39,-0.18,-0.01,0.98,-0.08,-111.8,478.6,-105.0,-1.53,-12.8,0.02,0.0,0.9833107342035883,1.2369721096289925,0.0,0.0,2.0,0.6,1.2,100.0,1.0,0.18,0.01795372431899156,0.2,1.0,-160.0,0,0,calibrating,0,0,0,0,0,0.0
1.832277245000114,185,971.19,92.9,9.2,-91.4,-1.43,0.38,0.02,-0.02,0.99,-0.08,-107.2,456.2,-232.0,-1.66,-11.95,0.07,0.0,0.9934284070832683,1.4797634946166227,0.0,0.0,2.0,0.6,1.2,100.0,1.0,0.18,0.007679330410525154,0.2,1.0,-160.0,0,0,calibrating,0,0,0,0,0,0.0
1.8403698730000997,186,971.2,92.8,9.2,-91.4,-1.71,0.3,0.23,-0.02,0.98,-0.07,-102.9,409.4,-422.0,-1.78,-10.45,-0.15,0.0,0.982700361249552,1.7512852423291871,0.0,0.0,2.0,0.6,1.2,100.0,1.0,0.18,0.018039228719356704,0.2,1.0,-160.0,0,0,calibrating,0,0,0,0,0,0.0
1.8525372070000685,187,971.21,92.6,9.3,-91.4,-1.79,0.12,0.39,0.0,0.97,-0.06,-99.0,366.2,-388.0,-1.86,-9.55,0.31,0.0,0.9718538984847466,1.8359193882085345,0.0,0.0,2.0,0.6,1.2,100.0,1.0,0.18,0.0283079776544789,0.2,1.0,-160.0,0,0,calibrating,0,0,0,0,0,0.0
1.8605986160000612,188,971.22,92.4,9.3,-91.4,-1.64,-0.02,0.47,0.03,0.96,-0.06,-95.7,324.7,-432.0,-1.95,-8.25,0.01,0.0,0.9623408959407265,1.7061359852016484,0.0,0.0,2.0,0.6,1.2,100.0,1.0,0.18,0.03706456059452912,0.2,1.0,-160.0,0,0,calibrating,0,0,0,0,0,0.0
1.872339688000011,189,971.23,92.3,9.4,-91.4,-1.61,-0.16,0.51,0.04,0.95,-0.07,-92.8,278.2,-413.0,-2.02,-7.17,0.08,0.0,0.9534149149242422,1.6964079697997179,0.0,0.0,2.0,0.6,1.2,100.0,1.0,0.18,0.04507073077879309,0.2,1.0,-160.0,0,0,calibrating,0,0,0,0,0,0.0
1.8803442880000603,190,971.24,92.1,9.4,-91.4,-1.63,-0.25,0.51,0.06,0.94,-0.08,-90.2,253.5,-251.0,-2.09,-6.73,-0.02,0.0,0.9453041838477179,1.7261228229763952,0.0,0.0,2.0,0.6,1.2,100.0,1.0,0.18,0.05211783261821101,0.2,1.0,-160.0,0,0,calibrating,0,0,0,0,0,0.0
1.8925855520001278,191,971.25,92.0,9.4,-91.4,-1.38,-0.22,0.5,0.07,0.92,-0.08,-87.8,242.3,-153.0,-2.16,-6.47,0.04,0.0,0.9261209424259879,1.4841832770921521,0.0,0.0,2.0,0.6,1.2,100.0,1.0,0.18,0.06987505255914217,0.2,1.0,-160.0,0,0,calibrating,0,0,0,0,0,0.0
1.9002298600000813,192,971.26,91.9,9.5,-91.4,-1.12,-0.2,0.52,0.04,0.91,-0.09,-85.4,232.2,-113.0,-2.22,-6.22,0.36,0.0,0.9153141537199128,1.2509196616889513,0.0,0.0,2.0,0.6,1.2,100.0,1.0,0.18,0.07906820443991291,0.2,1.0,-160.0,0,0,calibrating,0,0,0,0,0,0.0
1.9123473560000548,193,971.27,91.8,9.5,-91.3,-0.92,-0.21,0.58,0.01,0.91,-0.1,-83.1,221.7,-115.0,-2.29,-5.88,0.06,0.0,0.9155326318597279,1.1076551810017412,0.0,0.0,2.0,0.6,1.2,100.0,1.0,0.18,0.07727273177409588,0.2,1.0,-160.0,0,0,calibrating,0,0,0,0,0,0.0
1.9201709480000773,194,971.28,91.7,9.6,-91.3,-0.67,-0.26,0.65,-0.01,0.93,-0.1,-80.9,211.7,-104.0,-2.34,-5.61,0.12,0.0,0.9354143466934854,0.9690201236300514,0.0,0.0,2.0,0.6,1.2,100.0,1.0,0.18,0.05624319660153154,0.2,1.0,-160.0,0,0,calibrating,0,0,0,0,0,0.0
1.9323587409999163,195,971.29,91.6,9.7,-91.3,-0.4,-0.42,0.72,-0.01,0.93,-0.09,-78.9,201.2,-104.0,-2.39,-5.34,0.26,0.0,0.9343982020530648,0.9245539465060976,0.0,0.0,2.0,0.6,1.2,100.0,1.0,0.18,0.056114154417113205,0.2,1.0,-160.0,0,0,calibrating,0,0,0,0,0,0.0
1.9403702849999718,196,971.3,91.6,9.7,-91.2,-0.26,-0.68,0.81,-0.01,0.95,-0.09,-77.0,188.6,-129.0,-2.44,-4.94,-0.04,0.0,0.9543060305792895,1.0890821823902914,0.0,0.0,2.0,0.6,1.2,100.0,1.0,0.18,0.03548219937307073,0.2,1.0,-160.0,0,0,calibrating,0,0,0,0,0,0.0
1.952523352000071,197,971.31,91.6,9.8,-91.1,-0.27,-0.96,0.88,-0.01,0.95,-0.09,-75.2,170.3,-163.0,-2.49,-4.44,0.11,0.0,0.9543060305792895,1.33,0.0,0.0,2.0,0.6,1.2,100.0,1.0,0.18,0.034772555385609305,0.2,1.0,-160.0,0,0,calibrating,0,0,0,0,0,0.0
1.9605976350001129,198,971.32,91.6,9.9,-91.0,-0.21,-1.25,0.91,-0.02,0.95,-0.08,-73.6,152.0,-183.0,-2.53,-3.9,0.16,0.0,0.9535722311393091,1.5603525242713585,0.0,0.0,2.0,0.6,1.2,100.0,1.0,0.18,0.03479622772907798,0.2,1.0,-160.0,0,0,calibrating,0,0,0,0,0,0.0
1.972715553999933,199,971.33,91.6,10.0,-90.9,-0.07,-1.49,0.91,-0.01,0.94,-0.08,-72.3,130.8,-207.0,-2.57,-3.29,0.12,0.0,0.9434511116109832,1.747312221670758,0.0,0.0,2.0,0.6,1.2,100.0,1.0,0.18,0.04401900031225581,0.2,1.0,-160.0,0,0,calibrating,0,0,0,0,0,0.0
1.9826138820001233,200,971.34,91.6,10.1,-90.7,0.12,-1.74,0.9,-0.02,0.93,-0.08,-71.1,105.5,-260.0,-2.6,-2.47,0.21,0.0,0.9336487562247379,1.9626512680555352,0.0,0.0,2.0,0.6,1.2,100.0,1.0,0.18,0.05274492858453095,0.2,1.0,-160.0,0,0,calibrating,0,0,0,0,0,0.0
1.9926568190001035,201,971.35,91.7,10.2,-90.5,0.31,-2.0,0.9,-0.02,0.93,-0.09,-70.3,75.1,-286.0,-2.61,-1.7,-0.1,0.0,0.9345587193964862,2.214971783115984,0.0,0.0,2.0,0.6,1.2,100.0,1.0,0.18,0.05079826610452709,0.2,1.0,-160.0,0,0,calibrating,0,0,0,0,0,0.0
2.0004567600001337,202,971.36,91.8,10.2,-90.3,0.49,-2.28,0.94,-0.01,0.92,-0.09,-69.7,43.0,-310.0,-2.62,-0.81,0.04,0.0,0.9244457799135654,2.514378650879775,0.0,0.0,2.0,0.6,1.2,100.0,1.0,0.18,0.0596929814756989,0.2,1.0,-160.0,0,0,calibrating,0,0,0,0,0,0.0
2.0125587080001424,203,971.37,91.9,10.3,-90.0,0.64,-2.54,0.97,0.0,0.92,-0.11,-69.5,9.5,-312.0,-2.63,0.06,0.26,0.0,0.9265527507918802,2.793223943761044,0.0,0.0,2.0,0.6,1.2,100.0,1.0,0.18,0.05643429038543646,0.2,1.0,-160.0,0,0,calibrating,0,0,0,0,0,0.0
2.0204507240000567,204,971.38,92.0,10.4,-89.8,0.71,-2.74,1.01,0.0,0.92,-0.13,-69.6,-9.9,-178.0,-2.62,0.33,0.13,0.0,0.9291393867445293,3.005295326586058,0.0,0.0,2.0,0.6,1.2,100.0,1.0,0.18,0.05277070134413153,0.2,1.0,-160.0,0,0,calibrating,0,0,0,0,0,0.0
2.032508685000039,205,971.39,92.1,10.5,-89.5,0.66,-2.9,1.08,-0.02,0.93,-0.15,-69.7,-13.6,-88.0,-2.62,0.44,-0.68,0.0,0.9422313940853383,3.1641744578957716,0.0,0.0,2.0,0.6,1.2,100.0,1.0,0.18,0.03888512012325618,0.2,1.0,-160.0,0,0,calibrating,0,0,0,0,0,0.0
2.040517722000004,206,971.4,92.2,10.6,-89.2,0.63,-3.07,1.16,-0.04,0.92,-0.15,-69.9,-22.2,-102.0,-2.61,0.77,0.07,0.0,0.9330058949438638,3.341766000186129,0.0,0.0,2.0,0.6,1.2,100.0,1.0,0.18,0.04714840687943611,0.2,1.0,-160.0,0,0,calibrating,0,0,0,0,0,0.0
2.0526252280001245,207,971.41,92.4,10.7,-88.8,0.81,-3.31,1.17,-0.06,0.91,-0.13,-70.3,-39.0,-164.0,-2.6,1.29,0.01,0.0,0.9211948762341224,3.6029293637261337,0.0,0.0,2.0,0.6,1.2,100.0,1.0,0.18,0.05778023707739399,0.2,1.0,-160.0,0,0,calibrating,0,0,0,0,0,0.0
2.0605563859999165,208,971.42,92.6,10.8,-88.5,1.22,-3.58,1.1,-0.05,0.92,-0.14,-70.8,-60.7,-191.0,-2.59,1.86,-0.06,0.0,0.9319334740205439,3.9388830904204304,0.0,0.0,2.0,0.6,1.2,100.0,1.0,0.18,0.0461008065051528,0.2,1.0,-160.0,0,0,calibrating,0,0,0,0,0,0.0
2.072810908000065,209,971.43,92.8,10.9,-88.1,1.64,-3.77,0.89,0.01,0.94,-0.13,-71.5,-80.1,-188.0,-2.56,2.38,0.0,0.0,0.9489994731294639,4.206494978007225,0.0,0.0,2.0,0.6,1.2,100.0,1.0,0.18,0.028454111248308323,0.2,1.0,-160.0,0,0,calibrating,0,0,0,0,0,0.0
2.0844365150001067,210,971.44,93.0,11.0,-87.7,2.13,-3.88,0.52,0.07,0.98,-0.14,-72.5,-98.7,-186.0,-2.54,2.89,0.06,0.0,0.9924212815130478,4.4566467214712,0.0,0.0,2.0,0.6,1.2,100.0,1.0,0.18,0.014668343192570044,0.2,1.0,-160.0,0,0,calibrating,0,0,0,0,0,0.0
2.092431991000012,211,971.45,93.3,11.0,-87.3,2.21,-3.8,0.06,0.1,1.01,-0.16,-73.6,-121.0,-215.0,-2.5,3.54,0.0,0.0,1.0274726273726225,4.39632801324014,0.0,0.0,2.0,0.6,1.2,100.0,1.0,0.18,0.04872529527110181,0.2,1.0,-160.0,0,0,calibrating,0,0,0,0,0,0.0
2.1002248049999253,212,971.46,93.6,10.9,-86.9,1.78,-3.63,-0.43,0.1,1.02,-0.16,-75.0,-146.0,-245.0,-2.46,4.28,0.18,0.0,1.0373041983911953,4.065734865925224,0.0,0.0,2.0,0.6,1.2,100.0,1.0,0.18,0.057385728963881055,0.2,1.0,-160.0,0,0,calibrating,0,0,0,0,0,0.0
2.1124377169999207,213,971.47,93.8,10.8,-86.6,1.65,-3.42,-0.88,0.11,1.02,-0.13,-76.6,-170.8,-241.0,-2.42,4.9,0.2,0.0,1.034117981663601,3.8978583863449936,0.0,0.0,2.0,0.6,1.2,100.0,1.0,0.18,0.05311552199156111,0.2,1.0,-160.0,0,0,calibrating,0,0,0,0,0,0.0
2.120471345999931,214,971.48,94.1,10.7,-86.2,1.88,-3.23,-1.29,0.13,1.02,-0.09,-78.5,-194.1,-225.0,-2.36,5.49,0.0,0.0,1.0321821544669332,3.9536565354112385,0.0,0.0,2.0,0.6,1.2,100.0,1.0,0.18,0.05015610089899536,0.2,1.0,-160.0,0,0,calibrating,0,0,0,0,0,0.0
2.132466411999985,215,971.49,94.4,10.5,-85.9,2.25,-3.05,-1.68,0.16,1.06,-0.08,-80.5,-214.3,-199.0,-2.3,6.01,0.16,0.0,1.0749883720301352,4.145768927472924,0.0,0.0,2.0,0.6,1.2,100.0,1.0,0.18,0.09110307209295343,0.2,1.0,-160.0,0,0,calibrating,0,0,0,0,0,0.0
2.1405309199999465,216,971.5,94.7,10.2,-85.6,2.36,-2.72,-1.98,0.18,1.13,-0.08,-82.9,-228.9,-132.0,-2.24,6.28,0.0,0.0,1.1470396680150166,4.109549853694441,0.0,0.0,2.0,0.6,1.2,100.0,1.0,0.18,0.15989128071627812,0.2,1.0,-160.0,0,0,calibrating,0,0,0,0,0,0.0
2.1526059220000207,217,971.51,94.9,10.0,-85.4,2.27,-2.28,-2.19,0.18,1.19,-0.06,-85.1,-230.7,-33.0,-2.17,6.21,0.02,0.0,1.2050311199301036,3.891966084127661,0.0,0.0,2.0,0.6,1.2,100.0,1.0,0.18,0.21352507797873788,0.2,1.0,-160.0,0,0,calibrating,0,0,0,0,0,0.0
2.16056529399998,218,971.52,95.1,9.7,-85.2,2.11,-1.67,-2.34,0.17,1.24,-0.05,-87.4,-221.9,78.0,-2.11,5.82,-0.1,0.0,1.2525973016097391,3.5660342118381307,0.0,0.0,2.0,0.6,1.2,100.0,1.0,0.18,0.25586943446520616,0.2,1.0,-160.0,0,0,calibrating,0,0,0,0,0,0.0
2.1725332220000837,219,971.53,95.3,9.5,-85.1,2.03,-0.93,-2.53,0.15,1.28,-0.02,-89.5,-201.5,186.0,-2.06,5.14,-0.17,0.0,1.2889142717807107,3.3744184684179284,0.0,0.0,2.0,0.6,1.2,100.0,1.0,0.18,0.286342676543454,0.2,1.0,-160.0,0,0,calibrating,0,0,0,0,0,0.0
2.1812886640000215,220,971.54,95.5,9.2,-85.1,2.17,-0.3,-2.69,0.18,1.36,0.03,-91.3,-175.2,235.0,-2.02,4.47,0.0,0.0,1.3721880337621373,3.469149751740331,0.0,0.0,2.0,0.6,1.2,100.0,1.0,0.18,0.362224109754383,0.2,1.0,-160.0,0,0,calibrating,0,0,0,0,0,0.0
2.192424287999984,221,971.55,95.7,8.9,-85.1,1.69,0.15,-2.58,0.17,1.47,0.06,-92.9,-148.1,248.0,-1.98,3.76,-0.06,0.0,1.4810131667206743,3.0878795313289022,0.0,0.0,2.0,0.6,1.2,100.0,1.0,0.18,0.4616282578586617,0.2,1.0,-160.0,0,0,calibrating,0,0,0,0,0,0.0
2.2047221320001427,222,971.56,95.8,8.7,-85.2,0.51,0.29,-2.08,0.01,1.44,0.08,-94.2,-123.9,231.0,-1.94,3.15,0.02,0.0,1.4422551785311781,2.161157097482735,0.0,0.0,2.0,0.6,1.2,100.0,1.0,0.18,0.41441286427578206,0.2,1.0,-160.0,0,0,calibrating,0,0,0,0,0,0.0
2.2124121829999694,223,971.57,95.8,8.5,-85.2,-0.14,0.03,-1.49,-0.15,1.37,0.16,-95.3,-104.8,200.0,-1.91,2.63,0.02,0.0,1.3874436925511608,1.4968633872200896,0.0,0.0,2.0,0.6,1.2,100.0,1.0,0.18,0.3524093507298498,0.2,1.0,-160.0,0,0,calibrating,0,0,0,0,0,0.0
2.220693454999946,224,971.58,95.8,8.4,-85.2,-0.23,-0.72,-0.87,-0.27,1.3,0.23,-96.3,-89.8,148.0,-1.89,2.32,-0.07,0.0,1.3475162336684483,1.1524755962709146,0.0,0.0,2.0,0.6,1.2,100.0,1.0,0.18,0.3062322540101945,0.2,1.0,-160.0,0,0,calibrating,0,0,0,0,0,0.0
2.2328760170000805,225,971.59,95.8,8.3,-85.1,-0.21,-1.73,-0.27,-0.33,1.23,0.26,-97.1,-80.3,109.0,-1.87,2.08,0.06,0.0,1.299769210283118,1.7634908562280667,0.0,0.0,2.0,0.6,1.2,100.0,1.0,0.18,0.25331552601236695,0.2,1.0,-160.0,0,0,calibrating,0,0,0,0,0,0.0
2.240439031000051,226,971.6,95.8,8.3,-84.8,-0.15,-2.84,0.25,-0.36,1.17,0.28,-97.8,-73.5,70.0,-1.85,1.93,-0.02,0.0,1.255746789762968,2.8549255682066392,0.0,0.0,2.0,0.6,1.2,100.0,1.0,0.18,0.20510724338237263,0.2,1.0,-160.0,0,0,calibrating,0,0,0,0,0,0.0
2.2528341740000997,227,971.61,95.8,8.3,-84.5,-0.3,-4.21,0.74,-0.31,1.12,0.26,-98.5,-66.6,81.0,-1.83,1.7,0.18,0.0,1.1908400396358867,4.285055425545859,0.0,0.0,2.0,0.6,1.2,100.0,1.0,0.18,0.1373964833901855,0.2,1.0,-160.0,0,0,calibrating,0,0,0,0,0,0.0
2.260264515000017,228,971.62,95.9,8.4,-84.0,-0.6,-5.23,1.04,-0.23,1.03,0.22,-99.1,-57.9,82.0,-1.82,1.48,0.04,0.0,1.0780538019969133,5.366050689287235,0.0,0.0,2.0,0.6,1.2,100.0,1.0,0.18,0.02411804083618785,0.2,1.0,-160.0,0,0,calibrating,0,0,0,0,0,0.0
2.272888576000014,229,971.63,95.9,8.4,-83.4,-0.96,-5.98,1.15,-0.13,0.95,0.19,-99.7,-50.3,71.0,-1.8,1.29,-0.14,0.0,0.9774968030638259,6.164778990361293,0.0,0.0,2.0,0.6,1.2,100.0,1.0,0.18,0.07491017893496144,0.2,1.0,-160.0,0,0,calibrating,0,0,0,0,0,0.0
2.284558152000045,230,971.64,95.9,8.5,-82.8,-1.21,-6.5,1.13,0.0,0.87,0.16,-100.1,-45.8,44.0,-1.79,1.22,0.06,0.0,0.8845903006477066,6.707533078561745,0.0,0.0,2.0,0.6,1.2,100.0,1.0,0.18,0.16446034772405904,0.2,1.0,-160.0,0,0,calibrating,0,0,0,0,0,0.0
2.2923126690000117,231,971.65,95.8,8.5,-82.1,-1.36,-6.72,1.09,0.11,0.82,0.12,-100.6,-42.2,39.0,-1.78,1.11,0.05,0.0,0.8360023923410745,6.942341103691175,0.0,0.0,2.0,0.6,1.2,100.0,1.0,0.18,0.2087872909100773,0.2,1.0,-160.0,0,0,calibrating,0,0,0,0,0,0.0
2.3003925289999643,232,971.66,95.8,8.5,-81.4,-1.45,-6.68,1.0,0.2,0.76,0.09,-101.0,-35.4,68.0,-1.77,0.86,0.04,0.0,0.7910120100226039,6.908321069550835,0.0,0.0,2.0,0.6,1.2,100.0,1.0,0.18,0.24870211976397694,0.2,1.0,-160.0,0,0,calibrating,0,0,0,0,0,0.0
2.3124461209999936,233,971.67,95.8,8.6,-80.7,-1.13,-6.42,0.84,0.28,0.72,0.06,-101.2,-25.7,102.0,-1.76,0.52,0.08,0.0,0.7748548251124207,6.572587009694128,0.0,0.0,2.0,0.6,1.2,100.0,1.0,0.18,0.259562118580677,0.2,1.0,-160.0,0,0,calibrating,0,0,0,0,0,0.0
2.320479528000078,234,971.68,95.7,8.6,-80.1,-0.83,-5.98,0.62,0.34,0.71,0.04,-101.4,-16.2,82.0,-1.76,0.35,0.08,0.0,0.7882258559575422,6.069077359862865,0.0,0.0,2.0,0.6,1.2,100.0,1.0,0.18,0.24126726598084436,0.2,1.0,-160.0,0,0,calibrating,0,0,0,0,0,0.0
2.3326817570000458,235,971.69,95.8,8.6,-79.5,-0.56,-5.36,0.31,0.38,0.71,0.0,-101.5,-9.0,75.0,-1.76,0.16,-0.15,0.0,0.8052949770115296,5.398082993063372,0.0,0.0,2.0,0.6,1.2,100.0,1.0,0.18,0.21971418202831972,0.2,1.0,-160.0,0,0,calibrating,0,0,0,0,0,0.0
2.3404141579999305,236,971.7,95.8,8.5,-79.0,-0.29,-4.6,-0.03,0.39,0.74,-0.04,-101.6,-1.2,72.0,-1.76,-0.03,-0.08,0.0,0.8374365647617735,4.6092298705966055,0.0,0.0,2.0,0.6,1.2,100.0,1.0,0.18,0.18382114239251435,0.2,1.0,-160.0,0,0,calibrating,0,0,0,0,0,0.0
2.3524769079999714,237,971.71,95.8,8.5,-78.6,-0.16,-3.69,-0.33,0.39,0.8,-0.07,-101.6,1.1,25.0,-1.76,-0.02,-0.07,0.0,0.8927485648266258,3.7081801466487576,0.0,0.0,2.0,0.6,1.2,100.0,1.0,0.18,0.1259389594811089,0.2,1.0,-160.0,0,0,calibrating,0,0,0,0,0,0.0
2.360554279000098,238,971.72,95.9,8.4,-78.3,-0.03,-2.74,-0.52,0.37,0.85,-0.08,-101.6,-0.4,-4.0,-1.76,0.03,-0.07,0.0,0.9304837451562493,2.789067944672557,0.0,0.0,2.0,0.6,1.2,100.0,1.0,0.18,0.08643970356845565,0.2,1.0,-160.0,0,0,calibrating,0,0,0,0,0,0.0
2.3729010140000355,239,971.73,95.9,8.3,-78.1,0.14,-1.81,-0.57,0.35,0.92,-0.09,-101.6,0.0,10.0,-1.76,-0.02,-0.17,0.0,0.9884331034521254,1.9027874290103979,0.0,0.0,2.0,0.6,1.2,100.0,1.0,0.18,0.027920538367127934,0.2,1.0,-160.0,0,0,calibrating,0,0,0,0,0,0.0
2.380312516999993,240,971.74,96.0,8.2,-77.9,0.33,-1.01,-0.49,0.31,0.98,-0.08,-101.6,0.6,-1.0,-1.76,0.0,0.16,0.0,1.030970416646375,1.1700854669638454,0.0,0.0,2.0,0.6,1.2,100.0,1.0,0.18,0.01432443933057903,0.2,1.0,-160.0,0,0,calibrating,0,0,0,0,0,0.0
2.392590284000107,241,971.75,96.0,8.2,-77.9,0.47,-0.34,-0.29,0.26,1.03,-0.07,-101.6,-1.1,-13.0,-1.76,0.05,0.17,0.0,1.064612605598863,0.6485368146836384,0.0,0.0,2.0,0.6,1.2,100.0,1.0,0.18,0.047007295717405695,0.2,1.0,-160.0,0,0,calibrating,0,0,0,0,0,0.0
2.4005605500001366,242,971.76,96.0,8.2,-77.9,0.41,0.14,-0.01,0.23,1.07,-0.05,-101.6,-1.6,-7.0,-1.75,0.05,0.0,0.0,1.095582037092613,0.433358973600409,0.0,0.0,2.0,0.6,1.2,100.0,1.0,0.18,0.07641719266693259,0.2,1.0,-160.0,0,0,calibrating,0,0,0,0,0,0.0
2.4125981540000794,243,971.77,96.0,8.3,-77.9,0.17,0.45,0.34,0.17,1.07,-0.02,-101.6,-3.9,-19.0,-1.75,0.12,-0.24,0.0,1.0836050941187014,0.5890670590009257,0.0,0.0,2.0,0.6,1.2,100.0,1.0,0.18,0.06315144469916079,0.2,1.0,-160.0,0,0,calibrating,0,0,0,0,0,0.0
2.4202028649999647,244,971.78,96.0,8.3,-78.0,0.05,0.5,0.62,0.13,1.05,0.01,-101.7,-7.0,-29.0,-1.75,0.22,0.0,0.0,1.0580642702596095,0.798060148109151,0.0,0.0,2.0,0.6,1.2,100.0,1.0,0.18,0.036858408423267264,0.2,1.0,-160.0,0,0,calibrating,0,0,0,0,0,0.0
2.4325030800000604,245,971.79,96.0,8.4,-78.0,0.02,0.39,0.82,0.11,1.02,0.03,-101.8,-12.1,-58.0,-1.75,0.45,0.06,0.0,1.026352765865616,0.9082400563727632,0.0,0.0,2.0,0.6,1.2,100.0,1.0,0.18,0.005043965948688278,0.2,1.0,-160.0,0,0,calibrating,0,0,0,0,0,0.0
2.440408423000008,246,971.8,96.0,8.5,-78.0,0.07,0.19,0.87,0.09,1.0,0.03,-102.0,-21.6,-85.0,-1.74,0.7,0.02,0.0,1.0044899203078146,0.8932524839036273,0.0,0.0,2.0,0.6,1.2,100.0,1.0,0.18,0.0164825020169308,0.2,1.0,-160.0,0,0,calibrating,0,0,0,0,0,0.0
2.4526424600001064,247,971.81,96.0,8.6,-78.0,0.12,0.0,0.83,0.1,1.01,0.01,-102.2,-28.3,-67.0,-1.73,0.84,0.0,0.0,1.0149876846543509,0.8386298349093001,0.0,0.0,2.0,0.6,1.2,100.0,1.0,0.18,0.00586504291698664,0.2,1.0,-160.0,0,0,calibrating,0,0,0,0,0,0.0
2.4603398490000927,248,971.82,96.0,8.7,-78.0,0.03,-0.16,0.79,0.11,1.03,0.0,-102.6,-34.5,-66.0,-1.72,1.02,0.24,0.0,1.0358571330062847,0.8065977932030313,0.0,0.0,2.0,0.6,1.2,100.0,1.0,0.18,0.014704317326248217,0.2,1.0,-160.0,0,0,calibrating,0,0,0,0,0,0.0
2.4726937529999304,249,971.83,95.9,8.7,-78.0,-0.1,-0.24,0.71,0.13,1.04,-0.01,-103.0,-41.7,-61.0,-1.71,1.18,0.04,0.0,1.0481412118603104,0.7561084578286371,0.0,0.0,2.0,0.6,1.2,100.0,1.0,0.18,0.026448628256668494,0.2,1.0,-160.0,0,0,calibrating,0,0,0,0,0,0.0
2.4843298549999417,250,971.84,95.9,8.8,-78.0,-0.26,-0.27,0.67,0.15,1.04,-0.03,-103.4,-48.1,-59.0,-1.7,1.35,0.11,0.0,1.0511898020814319,0.7677239087067695,0.0,0.0,2.0,0.6,1.2,100.0,1.0,0.18,0.02890727410823435,0.2,1.0,-160.0,0,0,calibrating,0,0,0,0,0,0.0
2.4925647610000397,251,971.85,95.8,8.8,-77.9,-0.42,-0.28,0.68,0.16,1.03,-0.04,-103.9,-51.0,-35.0,-1.69,1.41,0.26,0.0,1.0431203190428227,0.8468766143896052,0.0,0.0,2.0,0.6,1.2,100.0,1.0,0.18,0.020421035248232133,0.2,1.0,-160.0,0,0,calibrating,0,0,0,0,0,0.0
2.500285399999939,252,971.86,95.7,8.9,-77.9,-0.47,-0.27,0.73,0.16,1.01,-0.05,-104.5,-53.5,-33.0,-1.67,1.51,0.02,0.0,1.023816389788716,0.9092304438369846,0.0,0.0,2.0,0.6,1.2,100.0,1.0,0.18,0.001094763874243121,0.2,1.0,-160.0,0,0,calibrating,0,0,0,0,0,0.0
2.5125099940000837,253,971.87,95.7,9.0,-77.9,-0.49,-0.26,0.81,0.16,1.0,-0.05,-105.0,-57.5,-34.0,-1.65,1.59,-0.15,0.0,1.0139526616169021,0.9817331613019905,0.0,0.0,2.0,0.6,1.2,100.0,1.0,0.18,0.008593585011619442,0.2,1.0,-160.0,0,0,calibrating,0,0,0,0,0,0.0
2.520481794000034,254,971.88,95.6,9.1,-77.8,-0.6,-0.25,0.88,0.15,0.98,-0.06,-105.6,-61.0,-37.0,-1.64,1.7,-0.04,0.0,0.9932270636667125,1.0940292500660116,0.0,0.0,2.0,0.6,1.2,100.0,1.0,0.18,0.028732799302572887,0.2,1.0,-160.0,0,0,calibrating,0,0,0,0,0,0.0
2.532485281999925,255,971.89,95.5,9.1,-77.8,-0.66,-0.25,0.9,0.15,0.96,-0.06,-106.2,-62.3,-13.0,-1.62,1.68,-0.03,0.0,0.9734988443752771,1.1437219941926446,0.0,0.0,2.0,0.6,1.2,100.0,1.0,0.18,0.047491798222128234,0.2,1.0,-160.0,0,0,calibrating,0,0,0,0,0,0.0
2.5404218650000985,256,971.9,95.4,9.2,-77.8,-0.81,-0.25,0.86,0.15,0.94,-0.06,-106.8,-61.4,4.0,-1.61,1.64,-0.03,0.0,0.9537819457297354,1.2075595223424807,0.0,0.0,2.0,0.6,1.2,100.0,1.0,0.18,0.06586452293031653,0.2,1.0,-160.0,0,0,calibrating,0,0,0,0,0,0.0
2.552619625000034,257,971.91,95.3,9.3,-77.8,-0.91,-0.22,0.8,0.16,0.91,-0.06,-107.4,-60.5,8.0,-1.59,1.63,0.08,0.0,0.9259049627256569,1.2314625451064276,0.0,0.0,2.0,0.6,1.2,100.0,1.0,0.18,0.09186667581570707,0.2,1.0,-160.0,0,0,calibrating,0,0,0,0,0,0.0
2.5603547040000194,258,971.92,95.2,9.4,-77.7,-0.91,-0.18,0.72,0.16,0.89,-0.05,-108.0,-58.5,16.0,-1.57,1.57,0.07,0.0,0.9056489386070079,1.1742657280190034,0.0,0.0,2.0,0.6,1.2,100.0,1.0,0.18,0.10988024593566892,0.2,1.0,-160.0,0,0,calibrating,0,0,0,0,0,0.0
2.572608591000062,259,971.93,95.1,9.5,-77.7,-0.79,-0.15,0.66,0.16,0.88,-0.05,-108.6,-53.9,43.0,-1.56,1.38,-0.01,0.0,0.8958236433584458,1.0402884215447177,0.0,0.0,2.0,0.6,1.2,100.0,1.0,0.18,0.11731143036054625,0.2,1.0,-160.0,0,0,calibrating,0,0,0,0,0,0.0
2.5802807669999765,260,971.94,95.0,9.5,-77.7,-0.67,-0.11,0.58,0.16,0.87,-0.05,-109.1,-47.1,67.0,-1.55,1.17,-0.11,0.0,0.8860022573334675,0.8929725639682331,0.0,0.0,2.0,0.6,1.2,100.0,1.0,0.18,0.1245901600578142,0.2,1.0,-160.0,0,0,calibrating,0,0,0,0,0,0.0
2.5926424159999897,261,971.95,95.0,9.6,-77.7,-0.64,-0.07,0.5,0.16,0.87,-0.06,-109.5,-37.9,86.0,-1.54,0.92,0.11,0.0,0.8866228059327146,0.8151686941977103,0.0,0.0,2.0,0.6,1.2,100.0,1.0,0.18,0.12149021922939585,0.2,1.0,-160.0,0,0,calibrating,0,0,0,0,0,0.0
2.604488887000116,262,971.96,94.9,9.7,-77.7,-0.71,-0.02,0.37,0.15,0.87,-0.07,-109.8,-29.1,79.0,-1.53,0.71,-0.14,0.0,0.885607136375944,0.800874522007037,0.0,0.0,2.0,0.6,1.2,100.0,1.0,0.18,0.12005577101044318,0.2,1.0,-160.0,0,0,calibrating,0,0,0,0,0,0.0
2.6163005089999842,263,971.97,94.8,9.7,-77.7,-0.75,0.02,0.24,0.14,0.86,-0.07,-110.1,-20.4,91.0,-1.52,0.44,-0.1,0.0,0.8741281370600079,0.7877182237323191,0.0,0.0,2.0,0.6,1.2,100.0,1.0,0.18,0.12890407491985167,0.2,1.0,-160.0,0,0,calibrating,0,0,0,0,0,0.0
2.6245496770000045,264,971.98,94.8,9.7,-77.7,-0.78,0.05,0.1,0.14,0.87,-0.07,-110.2,-13.6,68.0,-1.52,0.3,-0.06,0.0,0.8839683252243826,0.7879720807236764,0.0,0.0,2.0,0.6,1.2,100.0,1.0,0.18,0.11668260902036742,0.2,1.0,-160.0,0,0,calibrating,0,0,0,0,0,0.0
2.6324940330000572,265,971.99,94.7,9.7,-77.7,-0.76,0.06,-0.02,0.15,0.87,-0.08,-110.3,-8.3,59.0,-1.52,0.15,-0.13,0.0,0.8864536084872123,0.7626270385975048,0.0,0.0,2.0,0.6,1.2,100.0,1.0,0.18,0.11191337924238687,0.2,1.0,-160.0,0,0,calibrating,0,0,0,0,0,0.0
2.640467542000124,266,972.0,94.6,9.7,-77.7,-0.76,0.08,-0.14,0.15,0.88,-0.09,-110.3,-5.1,50.0,-1.52,0.07,-0.05,0.0,0.897217922246318,0.7769169839822012,0.0,0.0,2.0,0.6,1.2,100.0,1.0,0.18,0.09912608417361568,0.2,1.0,-160.0,0,0,calibrating,0,0,0,0,0,0.0
2.652551391000088,267,972.01,94.5,9.7,-77.7,-0.75,0.11,-0.27,0.16,0.9,-0.09,-110.4,-1.3,40.0,-1.52,0.0,-0.12,0.0,0.918531436587774,0.8046738469715541,0.0,0.0,2.0,0.6,1.2,100.0,1.0,0.18,0.0762563184355165,0.2,1.0,-160.0,0,0,calibrating,0,0,0,0,0,0.0
2.6624941610000405,268,972.02,94.5,9.6,-77.7,-0.73,0.14,-0.39,0.16,0.91,-0.09,-110.4,0.0,13.0,-1.52,0.0,-0.05,0.0,0.9283318372220141,0.8394045508573323,0.0,0.0,2.0,0.6,1.2,100.0,1.0,0.18,0.0651267994452509,0.2,1.0,-160.0,0,0,calibrating,0,0,0,0,0,0.0
2.6726258410001265,269,972.03,94.4,9.6,-77.7,-0.65,0.15,-0.51,0.16,0.92,-0.09,-110.4,-0.8,-3.0,-1.52,0.03,0.08,0.0,0.9381364506296512,0.8397023282092292,0.0,0.0,2.0,0.6,1.2,100.0,1.0,0.18,0.05421574231686144,0.2,1.0,-160.0,0,0,calibrating,0,0,0,0,0,0.0
2.6801357419999476,270,972.04,94.4,9.6,-77.7,-0.6,0.15,-0.63,0.16,0.93,-0.1,-110.4,-1.7,-2.0,-1.52,0.03,-0.15,0.0,0.9489467845985886,0.8828363381737298,0.0,0.0,2.0,0.6,1.2,100.0,1.0,0.18,0.042537300180965576,0.2,1.0,-160.0,0,0,calibrating,0,0,0,0,0,0.0
2.692724558000009,271,972.05,94.3,9.5,-77.8,-0.54,0.17,-0.74,0.15,0.93,-0.11,-110.4,-2.5,-10.0,-1.51,0.09,0.04,0.0,0.9484197383015602,0.9317188417113824,0.0,0.0,2.0,0.6,1.2,100.0,1.0,0.18,0.04220305954843406,0.2,1.0,-160.0,0,0,calibrating,0,0,0,0,0,0.0
2.7043921459999183,272,972.06,94.3,9.4,-77.8,-0.54,0.2,-0.85,0.14,0.94,-0.11,-110.5,-4.3,-14.0,-1.51,0.12,0.0,0.0,0.9567131231461183,1.0266937225872184,0.0,0.0,2.0,0.6,1.2,100.0,1.0,0.18,0.03323148120979835,0.2,1.0,-160.0,0,0,calibrating,0,0,0,0,0,0.0
2.716288458000008,273,972.07,94.3,9.3,-77.8,-0.58,0.24,-0.96,0.13,0.93,-0.12,-110.5,-8.6,-52.0,-1.51,0.35,-0.06,0.0,0.9466784036831093,1.1469960767151735,0.0,0.0,2.0,0.6,1.2,100.0,1.0,0.18,0.04240087665935133,0.2,1.0,-160.0,0,0,calibrating,0,0,0,0,0,0.0
2.7243540810000013,274,972.08,94.2,9.2,-77.8,-0.54,0.31,-1.08,0.11,0.92,-0.13,-110.7,-20.2,-102.0,-1.5,0.71,0.17,0.0,0.9356281312572854,1.2466354719804824,0.0,0.0,2.0,0.6,1.2,100.0,1.0,0.18,0.052382126103471705,0.2,1.0,-160.0,0,0,calibrating,0,0,0,0,0,0.0
2.73235476800005,275,972.09,94.2,9.1,-77.9,-0.41,0.41,-1.13,0.11,0.92,-0.14,-111.0,-32.1,-105.0,-1.5,0.99,0.05,0.0,0.9370699013414101,1.2700787377166818,0.0,0.0,2.0,0.6,1.2,100.0,1.0,0.18,0.049921548898960055,0.2,1.0,-160.0,0,0,calibrating,0,0,0,0,0,0.0
2.7403368800000862,276,972.1,94.2,8.9,-77.9,-0.26,0.52,-1.13,0.11,0.92,-0.13,-111.3,-41.2,-99.0,-1.48,1.23,0.14,0.0,0.9356281312572854,1.2707871576310488,0.0,0.0,2.0,0.6,1.2,100.0,1.0,0.18,0.05033605260342311,0.2,1.0,-160.0,0,0,calibrating,0,0,0,0,0,0.0
2.7524082850000013,277,972.11,94.2,8.8,-78.0,-0.14,0.65,-1.07,0.11,0.92,-0.14,-111.8,-50.1,-98.0,-1.47,1.49,0.01,0.0,0.9370699013414101,1.2597618822618821,0.0,0.0,2.0,0.6,1.2,100.0,1.0,0.18,0.04791639686891247,0.2,1.0,-160.0,0,0,calibrating,0,0,0,0,0,0.0
2.760272440000108,278,972.12,94.3,8.7,-78.1,0.04,0.71,-0.97,0.11,0.92,-0.12,-112.4,-61.4,-113.0,-1.45,1.82,-0.02,0.0,0.9342911751697112,1.202746856158851,0.0,0.0,2.0,0.6,1.2,100.0,1.0,0.18,0.04968122057979918,0.2,1.0,-160.0,0,0,calibrating,0,0,0,0,0,0.0
2.7722112559999914,279,972.13,94.3,8.6,-78.1,0.26,0.79,-0.83,0.12,0.93,-0.12,-113.1,-72.1,-106.0,-1.43,2.1,0.01,0.0,0.9453570753953239,1.1749893616539684,0.0,0.0,2.0,0.6,1.2,100.0,1.0,0.18,0.037843013947102766,0.2,1.0,-160.0,0,0,calibrating,0,0,0,0,0,0.0
2.782373118000123,280,972.14,94.4,8.5,-78.2,0.42,0.86,-0.68,0.11,0.91,-0.12,-113.9,-82.2,-98.0,-1.41,2.34,-0.09,0.0,0.9244457799135654,1.1740528097151337,0.0,0.0,2.0,0.6,1.2,100.0,1.0,0.18,0.05757922324028408,0.2,1.0,-160.0,0,0,calibrating,0,0,0,0,0,0.0
2.7925231809999786,281,972.15,94.4,8.4,-78.3,0.65,0.92,-0.58,0.11,0.9,-0.12,-114.7,-90.0,-88.0,-1.39,2.55,-0.07,0.0,0.9146037393319579,1.267004340955468,0.0,0.0,2.0,0.6,1.2,100.0,1.0,0.18,0.06607283854545365,0.2,1.0,-160.0,0,0,calibrating,0,0,0,0,0,0.0
2.802553438000132,282,972.16,94.5,8.4,-78.4,0.85,0.91,-0.48,0.11,0.91,-0.12,-115.7,-98.6,-80.0,-1.36,2.77,0.09,0.0,0.9244457799135654,1.334541119636259,0.0,0.0,2.0,0.6,1.2,100.0,1.0,0.18,0.05510618200456929,0.2,1.0,-160.0,0,0,calibrating,0,0,0,0,0,0.0
2.81228747199998,283,972.17,94.7,8.3,-78.5,1.0,0.87,-0.4,0.11,0.91,-0.13,-116.7,-105.4,-64.0,-1.33,2.91,-0.17,0.0,0.9257969539807311,1.38452157801892,0.0,0.0,2.0,0.6,1.2,100.0,1.0,0.18,0.05267990777865539,0.2,1.0,-160.0,0,0,calibrating,0,0,0,0,0,0.0
2.8204933130000427,284,972.18,94.8,8.3,-78.6,1.14,0.85,-0.38,0.12,0.91,-0.15,-117.8,-109.8,-49.0,-1.3,3.02,0.25,0.0,0.9300537618869137,1.4719035294474976,0.0,0.0,2.0,0.6,1.2,100.0,1.0,0.18,0.04745463787502324,0.2,1.0,-160.0,0,0,calibrating,0,0,0,0,0,0.0
2.8327680610000243,285,972.19,95.0,8.3,-78.7,1.2,0.89,-0.4,0.14,0.92,-0.18,-119.0,-115.3,-56.0,-1.27,3.2,-0.11,0.0,0.9478396488858228,1.546641522784126,0.0,0.0,2.0,0.6,1.2,100.0,1.0,0.18,0.029075375858591768,0.2,1.0,-160.0,0,0,calibrating,0,0,0,0,0,0.0
2.840519028000017,286,972.2,95.1,8.2,-78.8,1.26,0.99,-0.44,0.15,0.93,-0.2,-120.1,-120.0,-48.0,-1.24,3.32,-0.06,0.0,0.9630160954002794,1.661715980545412,0.0,0.0,2.0,0.6,1.2,100.0,1.0,0.18,0.013620950757252559,0.2,1.0,-160.0,0,0,calibrating,0,0,0,0,0,0.0
2.8526088260000506,287,972.21,95.2,8.2,-78.9,1.41,1.16,-0.43,0.17,0.96,-0.21,-121.4,-125.4,-56.0,-1.2,3.47,0.15,0.0,0.9972963451251589,1.875793165570234,0.0,0.0,2.0,0.6,1.2,100.0,1.0,0.18,0.02024611298827428,0.2,1.0,-160.0,0,0,calibrating,0,0,0,0,0,0.0
2.8604929939999693,288,972.22,95.3,8.2,-79.0,1.59,1.38,-0.26,0.18,1.0,-0.21,-122.7,-132.5,-73.0,-1.16,3.72,0.16,0.0,1.0375451797391764,2.1213439136547376,0.0,0.0,2.0,0.6,1.2,100.0,1.0,0.18,0.059285048650245975,0.2,1.0,-160.0,0,0,calibrating,0,0,0,0,0,0.0
2.872532385000113,289,972.23,95.5,8.2,-79.2,1.87,1.63,-0.04,0.18,1.03,-0.22,-124.1,-142.5,-90.0,-1.13,3.98,0.04,0.0,1.0685036265731622,2.4810078597215286,0.0,0.0,2.0,0.6,1.2,100.0,1.0,0.18,0.08843862557454718,0.2,1.0,-160.0,0,0,calibrating,0,0,0,0,0,0.0
2.8825089300000855,290,972.24,95.7,8.2,-79.3,2.08,1.89,0.28,0.18,1.09,-0.2,-125.6,-152.0,-92.0,-1.08,4.24,0.0,0.0,1.122719911643149,2.8243406310146093,0.0,0.0,2.0,0.6,1.2,100.0,1.0,0.18,0.13980181243164325,0.2,1.0,-160.0,0,0,calibrating,0,0,0,0,0,0.0
2.8926975320000565,291,972.25,96.0,8.3,-79.5,2.17,2.03,0.6,0.18,1.12,-0.18,-127.1,-160.9,-94.0,-1.04,4.5,-0.08,0.0,1.1485643212288985,3.0314682911091118,0.0,0.0,2.0,0.6,1.2,100.0,1.0,0.18,0.16233329757704495,0.2,1.0,-160.0,0,0,calibrating,0,0,0,0,0,0.0
2.9002202880001278,292,972.26,96.2,8.4,-79.7,2.13,2.09,0.86,0.16,1.1,-0.18,-128.8,-170.5,-91.0,-1.0,4.73,0.06,0.0,1.1260550608207398,3.1055756310223708,0.0,0.0,2.0,0.6,1.2,100.0,1.0,0.18,0.13702755642550857,0.2,1.0,-160.0,0,0,calibrating,0,0,0,0,0,0.0
2.9124943490000987,293,972.27,96.4,8.5,-79.9,2.23,2.1,0.96,0.16,1.06,-0.18,-130.6,-182.2,-118.0,-0.94,5.11,0.02,0.0,1.0870142593360954,3.210062304691297,0.0,0.0,2.0,0.6,1.2,100.0,1.0,0.18,0.09602701984204687,0.2,1.0,-160.0,0,0,calibrating,0,0,0,0,0,0.0
2.9206075649999548,294,972.28,96.6,8.6,-80.1,2.31,2.13,1.04,0.15,1.07,-0.17,-132.5,-196.3,-132.0,-0.89,5.5,-0.04,0.0,1.0937549999885714,3.3097734061412725,0.0,0.0,2.0,0.6,1.2,100.0,1.0,0.18,0.10071240528463243,0.2,1.0,-160.0,0,0,calibrating,0,0,0,0,0,0.0
2.9324892150000323,295,972.29,96.8,8.8,-80.3,2.33,2.18,1.21,0.14,1.12,-0.13,-134.6,-210.1,-128.0,-0.83,5.84,0.15,0.0,1.136177802986839,3.412535714098828,0.0,0.0,2.0,0.6,1.2,100.0,1.0,0.18,0.14027250411724201,0.2,1.0,-160.0,0,0,calibrating,0,0,0,0,0,0.0
2.940511302999994,296,972.3,97.0,8.9,-80.5,2.36,2.17,1.46,0.12,1.17,-0.11,-136.8,-222.4,-126.0,-0.77,6.19,0.0,0.0,1.181270502467576,3.5227971840570103,0.0,0.0,2.0,0.6,1.2,100.0,1.0,0.18,0.1816578995260194,0.2,1.0,-160.0,0,0,calibrating,0,0,0,0,0,0.0
2.9525618140000915,297,972.31,97.2,9.0,-80.7,2.31,2.06,1.77,0.09,1.24,-0.08,-139.1,-233.8,-116.0,-0.71,6.5,0.04,0.0,1.2458330546265017,3.565473320612566,0.0,0.0,2.0,0.6,1.2,100.0,1.0,0.18,0.24129604265124627,0.2,1.0,-160.0,0,0,calibrating,0,0,0,0,0,0.0
2.960508245000028,298,972.32,97.4,9.3,-80.9,2.06,1.84,2.08,0.07,1.29,-0.05,-141.5,-248.0,-139.0,-0.64,6.92,-0.04,0.0,1.2928650354928777,3.4576870882137385,0.0,0.0,2.0,0.6,1.2,100.0,1.0,0.18,0.2825614630472699,0.2,1.0,-160.0,0,0,calibrating,0,0,0,0,0,0.0
2.972619782000038,299,972.33,97.6,9.5,-81.0,1.63,1.55,2.4,0.06,1.35,0.01,-144.1,-261.7,-124.0,-0.57,7.23,0.19,0.0,1.3513696755514386,3.2892856367302614,0.0,0.0,2.0,0.6,1.2,100.0,1.0,0.18,0.3342447810437139,0.2,1.0,-160.0,0,0,calibrating,0,0,0,0,0,0.0
2.9805234509999536,300,972.34,97.7,9.8,-81.1,0.95,1.21,2.67,0.04,1.33,0.02,-146.8,-268.8,-74.0,-0.49,7.36,0.14,0.0,1.3307516672918356,3.081476918621978,0.0,0.0,2.0,0.6,1.2,100.0,1.0,0.18,0.3073542373284286,0.2,1.0,-160.0,0,0,calibrating,0,0,0,0,0,0.0
2.9927846150001187,301,972.35,97.7,10.1,-81.2,0.64,0.84,2.76,0.03,1.27,0.03,-149.5,-272.5,-52.0,-0.42,7.46,-0.01,0.0,1.2707084638106412,2.9551311307622203,0.0,0.0,2.0,0.6,1.2,100.0,1.0,0.18,0.2423648131702898,0.2,1.0,-160.0,0,0,calibrating,0,0,0,0,0,0.0
3.000507851000066,302,972.36,97.8,10.3,-81.2,0.43,0.49,2.64,0.04,1.2,0.02,-152.3,-277.8,-46.0,-0.34,7.59,0.01,0.0,1.200833044182246,2.719301380869726,0.0,0.0,2.0,0.6,1.2,100.0,1.0,0.18,0.16903960567105636,0.2,1.0,-160.0,0,0,calibrating,0,0,0,0,0,0.0
3.012609864000069,303,972.37,97.8,10.6,-81.2,0.18,0.17,2.23,0.1,1.09,0.01,-155.1,-280.9,-37.0,-0.27,7.68,-0.1,0.0,1.0946232228488486,2.2437022975430585,0.0,0.0,2.0,0.6,1.2,100.0,1.0,0.18,0.061573188650905886,0.2,1.0,-160.0,0,0,calibrating,0,0,0,0,0,0.0
3.0206516739999643,304,972.38,97.8,10.8,-81.2,0.14,0.06,1.66,0.19,1.02,0.0,-157.9,-284.0,-35.0,-0.19,7.76,-0.01,0.0,1.0375451797391764,1.66697330512519,0.0,0.0,2.0,0.6,1.2,100.0,1.0,0.18,0.004405242630408868,0.2,1.0,-160.0,0,0,calibrating,0,0,0,0,0,0.0
3.0323917620000884,305,972.39,97.9,10.9,-81.2,0.38,0.12,1.04,0.27,0.97,0.0,-161.0,-288.4,-40.0,-0.1,7.89,-0.08,0.0,1.0068763578513502,1.1137324633860683,0.0,0.0,2.0,0.6,1.2,100.0,1.0,0.18,0.025738307672269034,0.2,1.0,-160.0,0,0,calibrating,0,0,0,0,0,0.0
3.0420625070000824,306,972.4,97.9,11.0,-81.2,0.74,0.49,0.52,0.33,0.92,-0.03,-163.9,-289.6,-3.0,-0.02,7.82,-0.06,0.0,0.9778547949465708,1.028639878674748,0.0,0.0,2.0,0.6,1.2,100.0,1.0,0.18,0.05366467316550749,0.2,1.0,-160.0,0,0,calibrating,0,0,0,0,0,0.0
3.0520019059999868,307,972.41,98.0,11.0,-81.3,1.08,1.11,0.03,0.35,0.91,-0.03,-166.8,-285.7,17.0,0.04,7.75,-0.01,0.0,0.9754486147409304,1.5489996772110703,0.0,0.0,2.0,0.6,1.2,100.0,1.0,0.18,0.05494943630372495,0.2,1.0,-160.0,0,0,calibrating,0,0,0,0,0,0.0
3.0604536270000153,308,972.42,98.1,11.0,-81.4,1.2,1.89,-0.41,0.33,0.91,-0.03,-169.4,-286.3,-3.0,0.12,7.82,0.0,0.0,0.9684523736353792,2.276005272401626,0.0,0.0,2.0,0.6,1.2,100.0,1.0,0.18,0.06070676386109053,0.2,1.0,-160.0,0,0,calibrating,0,0,0,0,0,0.0
3.072720562000086,309,972.43,98.2,11.0,-81.7,1.08,2.68,-0.79,0.28,0.93,-0.02,-172.3,-285.8,15.0,0.2,7.7,0.0,0.0,0.9714422267947797,2.995479928158425,0.0,0.0,2.0,0.6,1.2,100.0,1.0,0.18,0.05656257248765628,0.2,1.0,-160.0,0,0,calibrating,0,0,0,0,0,0.0
3.084680687999935,310,972.44,98.2,10.9,-82.0,0.72,3.35,-1.07,0.23,0.93,0.0,-175.1,-280.7,43.0,0.27,7.55,-0.01,0.0,0.9580187889597992,3.589679651445237,0.0,0.0,2.0,0.6,1.2,100.0,1.0,0.18,0.06858629011618411,0.2,1.0,-160.0,0,0,calibrating,0,0,0,0,0,0.0
3.0923738559999947,311,972.45,98.2,10.9,-82.4,0.29,3.88,-1.21,0.17,0.94,0.03,-177.8,-275.6,42.0,0.35,7.45,0.14,0.0,0.9557196241576292,4.074628817450738,0.0,0.0,2.0,0.6,1.2,100.0,1.0,0.18,0.06946774581998694,0.2,1.0,-160.0,0,0,calibrating,0,0,0,0,0,0.0
3.100410518999979,312,972.46,98.1,10.8,-82.8,-0.12,4.27,-1.17,0.09,0.93,0.06,-180.6,-270.4,59.0,0.42,7.24,0.0,0.0,0.9362691920596342,4.429017949839444,0.0,0.0,2.0,0.6,1.2,100.0,1.0,0.18,0.08713981435962226,0.2,1.0,-160.0,0,0,calibrating,0,0,0,0,0,0.0
3.112570771000037,313,972.47,98.0,10.8,-83.3,-0.33,4.51,-1.09,0.01,0.92,0.07,-183.2,-261.5,95.0,0.49,6.91,-0.02,0.0,0.9227133899537819,4.651569627555842,0.0,0.0,2.0,0.6,1.2,100.0,1.0,0.18,0.09868170413616506,0.2,1.0,-160.0,0,0,calibrating,0,0,0,0,0,0.0
3.1205684320000273,314,972.48,97.8,10.7,-83.8,-0.55,4.66,-0.93,-0.05,0.93,0.1,-185.7,-248.1,121.0,0.56,6.53,0.14,0.0,0.9366963221877195,4.783617877715568,0.0,0.0,2.0,0.6,1.2,100.0,1.0,0.18,0.08300479646418302,0.2,1.0,-160.0,0,0,calibrating,0,0,0,0,0,0.0
3.132535516999951,315,972.49,97.7,10.7,-84.2,-0.9,4.63,-0.75,-0.1,0.93,0.13,-188.1,-233.8,141.0,0.62,6.1,0.0,0.0,0.944351629426243,4.775918759778059,0.0,0.0,2.0,0.6,1.2,100.0,1.0,0.18,0.07384249944114629,0.2,1.0,-160.0,0,0,calibrating,0,0,0,0,0,0.0
3.1444774950000465,316,972.5,97.5,10.7,-84.7,-1.22,4.44,-0.52,-0.12,0.92,0.15,-190.3,-214.8,186.0,0.68,5.51,-0.06,0.0,0.9398404119849284,4.633832107446277,0.0,0.0,2.0,0.6,1.2,100.0,1.0,0.18,0.07678664254481149,0.2,1.0,-160.0,0,0,calibrating,0,0,0,0,0,0.0
3.1565568820001317,317,972.51,97.3,10.7,-85.2,-1.39,4.19,-0.31,-0.11,0.91,0.15,-192.3,-191.6,222.0,0.73,4.82,0.04,0.0,0.9288164511893617,4.425415234754814,0.0,0.0,2.0,0.6,1.2,100.0,1.0,0.18,0.08605439127357073,0.2,1.0,-160.0,0,0,calibrating,0,0,0,0,0,0.0
3.164437931000066,318,972.52,97.0,10.8,-85.6,-1.26,3.95,-0.13,-0.1,0.89,0.15,-194.1,-165.0,261.0,0.77,4.05,-0.09,0.0,0.9080748867797193,4.148132109757355,0.0,0.0,2.0,0.6,1.2,100.0,1.0,0.18,0.10466003656954892,0.2,1.0,-160.0,0,0,calibrating,0,0,0,0,0,0.0
3.172597970999959,319,972.53,96.9,10.8,-85.9,-0.99,3.65,-0.02,-0.07,0.9,0.14,-195.5,-135.0,294.0,0.81,3.18,-0.23,0.0,0.9135097153287425,3.7819307238499227,0.0,0.0,2.0,0.6,1.2,100.0,1.0,0.18,0.09724070386011519,0.2,1.0,-160.0,0,0,calibrating,0,0,0,0,0,0.0
3.1804533150000225,320,972.54,96.7,10.8,-86.3,-0.67,3.37,0.03,-0.04,0.92,0.13,-196.6,-100.9,338.0,0.83,2.15,-0.14,0.0,0.93,3.436087891774598,0.0,0.0,2.0,0.6,1.2,100.0,1.0,0.18,0.07913541080508046,0.2,1.0,-160.0,0,0,calibrating,0,0,0,0,0,0.0
3.192714052999918,321,972.55,96.6,10.9,-86.6,-0.38,3.04,0.0,-0.01,0.95,0.11,-197.4,-61.1,386.0,0.85,1.02,0.02,0.0,0.9563994981178106,3.063657944353449,0.0,0.0,2.0,0.6,1.2,100.0,1.0,0.18,0.05168119443352448,0.2,1.0,-160.0,0,0,calibrating,0,0,0,0,0,0.0
3.202680449000127,322,972.56,96.5,10.9,-86.9,-0.18,2.84,-0.09,0.02,0.98,0.1,-197.7,-19.3,406.0,0.85,-0.12,-0.01,0.0,0.985291834940288,2.8471213532267994,0.0,0.0,2.0,0.6,1.2,100.0,1.0,0.18,0.022333080458826093,0.2,1.0,-160.0,0,0,calibrating,0,0,0,0,0,0.0
3.2125573680000343,323,972.57,96.5,10.9,-87.2,0.08,2.55,-0.28,0.03,1.01,0.08,-197.6,16.8,335.0,0.84,-0.83,-0.24,0.0,1.0136074190730846,2.566573591385994,0.0,0.0,2.0,0.6,1.2,100.0,1.0,0.18,0.0058628536004912135,0.2,1.0,-160.0,0,0,calibrating,0,0,0,0,0,0.0
3.2206589090001216,324,972.58,96.4,10.9,-87.4,0.21,2.32,-0.54,0.03,1.04,0.05,-197.3,41.5,274.0,0.83,-1.49,-0.13,0.0,1.041633332799983,2.391254900674539,0.0,0.0,2.0,0.6,1.2,100.0,1.0,0.18,0.03321099198084143,0.2,1.0,-160.0,0,0,calibrating,0,0,0,0,0,0.0
3.2325983349999206,325,972.59,96.4,10.9,-87.7,0.09,2.13,-0.8,0.03,1.07,0.03,-196.7,65.4,245.0,0.81,-2.12,-0.21,0.0,1.0708407911543152,2.27705950734714,0.0,0.0,2.0,0.6,1.2,100.0,1.0,0.18,0.06117008132847035,0.2,1.0,-160.0,0,0,calibrating,0,0,0,0,0,0.0
3.240598372000022,326,972.6,96.3,10.8,-87.9,-0.34,2.02,-1.0,0.02,1.09,0.03,-195.9,87.8,236.0,0.78,-2.75,-0.08,0.0,1.090596167240652,2.279473623449063,0.0,0.0,2.0,0.6,1.2,100.0,1.0,0.18,0.07930694826651097,0.2,1.0,-160.0,0,0,calibrating,0,0,0,0,0,0.0
3.2525944020001134,327,972.61,96.2,10.7,-88.1,-0.84,1.92,-1.12,0.01,1.07,0.02,-194.8,112.3,245.0,0.75,-3.42,-0.13,0.0,1.070233619356073,2.376215478444663,0.0,0.0,2.0,0.6,1.2,100.0,1.0,0.18,0.05776551237429328,0.2,1.0,-160.0,0,0,calibrating,0,0,0,0,0,0.0
3.260414651000019,328,972.62,96.1,10.6,-88.3,-1.12,1.79,-1.16,0.0,1.04,0.02,-193.5,136.3,234.0,0.71,-4.02,-0.08,0.0,1.0401922899156675,2.4091699815496623,0.0,0.0,2.0,0.6,1.2,100.0,1.0,0.18,0.027169699275209958,0.2,1.0,-160.0,0,0,calibrating,0,0,0,0,0,0.0
3.2725446540000576,329,972.63,96.0,10.5,-88.5,-1.22,1.71,-1.19,0.01,1.03,0.02,-192.0,157.9,222.0,0.67,-4.63,-0.02,0.0,1.0302426898551622,2.414249365744972,0.0,0.0,2.0,0.6,1.2,100.0,1.0,0.18,0.01687569723041049,0.2,1.0,-160.0,0,0,calibrating,0,0,0,0,0,0.0
3.2846156780001365,330,972.64,95.8,10.4,-88.7,-1.19,1.65,-1.17,0.01,1.03,0.02,-190.3,180.8,231.0,0.62,-5.26,-0.23,0.0,1.0302426898551622,2.346806340540267,0.0,0.0,2.0,0.6,1.2,100.0,1.0,0.18,0.016538183285802255,0.2,1.0,-160.0,0,0,calibrating,0,0,0,0,0,0.0
3.2965965109999615,331,972.65,95.6,10.3,-88.9,-1.13,1.62,-1.17,0.01,1.01,0.01,-188.3,203.8,227.0,0.56,-5.88,-0.03,0.0,1.010099005048515,2.295691616920705,0.0,0.0,2.0,0.6,1.2,100.0,1.0,0.18,0.003533391490428084,0.2,1.0,-160.0,0,0,calibrating,0,0,0,0,0,0.0
3.304678276000004,332,972.66,95.5,10.2,-89.0,-1.04,1.57,-1.21,0.02,1.0,0.0,-186.1,227.1,233.0,0.5,-6.54,-0.1,0.0,1.000199980003999,2.2384369546627845,0.0,0.0,2.0,0.6,1.2,100.0,1.0,0.18,0.013163768204245363,0.2,1.0,-160.0,0,0,calibrating,0,0,0,0,0,0.0
3.31665405800004,333,972.67,95.4,10.1,-89.2,-0.95,1.51,-1.24,0.03,0.98,0.0,-183.7,252.6,254.0,0.43,-7.29,-0.05,0.0,0.9804590761474953,2.172602126483356,0.0,0.0,2.0,0.6,1.2,100.0,1.0,0.18,0.03224657861953395,0.2,1.0,-160.0,0,0,calibrating,0,0,0,0,0,0.0
3.32451838399993,334,972.68,95.3,10.0,-89.4,-0.79,1.45,-1.26,0.05,0.96,-0.01,-181.0,279.9,254.0,0.35,-7.95,-0.02,0.0,0.9613532129243653,2.077065237299975,0.0,0.0,2.0,0.6,1.2,100.0,1.0,0.18,0.050325393005810626,0.2,1.0,-160.0,0,0,calibrating,0,0,0,0,0,0.0
3.3321781229999488,335,972.69,95.2,9.9,-89.5,-0.62,1.39,-1.29,0.05,0.94,-0.02,-178.0,301.4,218.0,0.27,-8.49,-0.11,0.0,0.9415412895885129,1.9951441050711098,0.0,0.0,2.0,0.6,1.2,100.0,1.0,0.18,0.06873457001482963,0.2,1.0,-160.0,0,0,calibrating,0,0,0,0,0,0.0
3.340549767000084,336,972.7,95.1,9.8,-89.7,-0.43,1.3,-1.35,0.04,0.94,-0.04,-174.8,323.0,233.0,0.18,-9.17,0.02,0.0,0.9417005893594843,1.9228624495787525,0.0,0.0,2.0,0.6,1.2,100.0,1.0,0.18,0.06720376483898127,0.2,1.0,-160.0,0,0,calibrating,0,0,0,0,0,0.0
3.3526121410000087,337,972.71,95.0,9.6,-89.8,-0.27,1.2,-1.41,0.03,0.94,-0.06,-171.4,348.7,241.0,0.08,-9.79,-0.1,0.0,0.9423905772024675,1.8710959355415209,0.0,0.0,2.0,0.6,1.2,100.0,1.0,0.18,0.06518350145607787,0.2,1.0,-160.0,0,0,calibrating,0,0,0,0,0,0.0
3.3603176870001334,338,972.72,95.0,9.5,-89.9,-0.22,1.16,-1.46,0.03,0.96,-0.07,-167.8,366.8,184.0,-0.01,-10.24,0.01,0.0,0.9630160954002794,1.877658115845374,0.0,0.0,2.0,0.6,1.2,100.0,1.0,0.18,0.0436668235931007,0.2,1.0,-160.0,0,0,calibrating,0,0,0,0,0,0.0
3.372638155000004,339,972.73,94.9,9.3,-90.1,-0.29,1.16,-1.48,0.03,0.97,-0.08,-164.0,389.7,248.0,-0.12,-11.03,-0.01,0.0,0.973755616158387,1.9026560382791209,0.0,0.0,2.0,0.6,1.2,100.0,1.0,0.18,0.03226875677829322,0.2,1.0,-160.0,0,0,calibrating,0,0,0,0,0,0.0
3.380520454000134,340,972.74,94.9,9.1,-90.2,-0.47,1.15,-1.44,0.02,0.97,-0.09,-159.9,415.7,222.0,-0.23,-11.55,-0.1,0.0,0.9743715923609432,1.901841213140571,0.0,0.0,2.0,0.6,1.2,100.0,1.0,0.18,0.03101972496422223,0.2,1.0,-160.0,0,0,calibrating,0,0,0,0,0,0.0
3.392667749000111,341,972.75,94.8,9.0,-90.3,-0.68,1.13,-1.35,0.0,0.96,-0.09,-155.6,432.2,185.0,-0.35,-12.01,-0.03,0.0,0.9642095207992918,1.8872731651777386,0.0,0.0,2.0,0.6,1.2,100.0,1.0,0.18,0.04035816059535624,0.2,1.0,-160.0,0,0,calibrating,0,0,0,0,0,0.0
3.400443657000096,342,972.76,94.7,8.8,-90.4,-0.8,1.07,-1.22,0.0,0.95,-0.09,-151.2,450.9,189.0,-0.47,-12.55,-0.03,0.0,0.9542536350467835,1.8092263539977522,0.0,0.0,2.0,0.6,1.2,100.0,1.0,0.18,0.0493077654209072,0.2,1.0,-160.0,0,0,calibrating,0,0,0,0,0,0.0
3.41262271100004,343,972.77,94.6,8.7,-90.6,-0.85,0.95,-1.07,-0.01,0.95,-0.09,-146.5,474.2,255.0,-0.61,-13.37,-0.12,0.0,0.9543060305792895,1.6643016553497745,0.0,0.0,2.0,0.6,1.2,100.0,1.0,0.18,0.04827026249063315,0.2,1.0,-160.0,0,0,calibrating,0,0,0,0,0,0.0
3.4206440390000807,344,972.78,94.5,8.6,-90.7,-0.85,0.83,-0.92,-0.02,0.95,-0.09,-141.6,499.6,206.0,-0.74,-13.78,0.11,0.0,0.9544631999192006,1.5025977505640025,0.0,0.0,2.0,0.6,1.2,100.0,1.0,0.18,0.047150831287707584,0.2,1.0,-160.0,0,0,calibrating,0,0,0,0,0,0.0
3.4326206539999475,345,972.79,94.4,8.6,-90.7,-0.91,0.64,-0.78,-0.03,0.96,-0.09,-136.5,517.4,209.0,-0.88,-14.39,0.0,0.0,0.9646761114488116,1.3587126259809321,0.0,0.0,2.0,0.6,1.2,100.0,1.0,0.18,0.03619916136293466,0.2,1.0,-160.0,0,0,calibrating,0,0,0,0,0,0.0
3.440565629000048,346,972.8,94.3,8.5,-90.8,-1.02,0.47,-0.61,-0.04,0.96,-0.09,-131.2,529.8,100.0,-1.03,-14.48,0.09,0.0,0.9650388593212192,1.2780453826057978,0.0,0.0,2.0,0.6,1.2,100.0,1.0,0.18,0.0351196852207164,0.2,1.0,-160.0,0,0,calibrating,0,0,0,0,0,0.0
3.452518360000113,347,972.81,94.2,8.5,-90.8,-1.16,0.27,-0.41,-0.03,0.97,-0.1,-125.8,544.4,174.0,-1.18,-15.06,0.02,0.0,0.975602378020882,1.2596031120952345,0.0,0.0,2.0,0.6,1.2,100.0,1.0,0.18,0.024065043190632518,0.2,1.0,-160.0,0,0,calibrating,0,0,0,0,0,0.0
3.460512918999939,348,972.82,94.1,8.4,-90.9,-1.21,0.12,-0.21,-0.02,0.98,-0.1,-120.3,553.7,71.0,-1.33,-15.07,-0.04,0.0,0.985291834940288,1.2339367893048654,0.0,0.0,2.0,0.6,1.2,100.0,1.0,0.18,0.014088074545801965,0.2,1.0,-160.0,0,0,calibrating,0,0,0,0,0,0.0
3.4724533390001397,349,972.83,93.9,8.4,-90.9,-1.29,-0.02,0.0,-0.03,0.98,-0.1,-114.7,557.2,50.0,-1.48,-15.15,0.19,0.0,0.9855455342093535,1.2901550294441362,0.0,0.0,2.0,0.6,1.2,100.0,1.0,0.18,0.013557687771201699,0.2,1.0,-160.0,0,0,calibrating,0,0,0,0,0,0.0
3.480418754000084,350,972.84,93.8,8.4,-90.9,-1.38,-0.17,0.18,-0.03,0.98,-0.1,-109.1,558.8,20.0,-1.63,-15.1,0.06,0.0,0.9855455342093535,1.402034236386544,0.0,0.0,2.0,0.6,1.2,100.0,1.0,0.18,0.013286534015777618,0.2,1.0,-160.0,0,0,calibrating,0,0,0,0,0,0.0
3.4928026899999622,351,972.85,93.7,8.5,-90.8,-1.56,-0.38,0.39,-0.05,0.99,-0.09,-103.7,534.7,-286.0,-1.77,-13.67,0.21,0.0,0.995339138183564,1.6523014252853503,0.0,0.0,2.0,0.6,1.2,100.0,1.0,0.18,0.0034230714407358365,0.2,1.0,-160.0,0,0,calibrating,0,0,0,0,0,0.0
3.502557535000051,352,972.86,93.5,8.5,-90.8,-1.77,-0.62,0.69,-0.08,1.01,-0.09,-98.7,476.2,-503.0,-1.9,-11.95,0.01,0.0,1.017152889196113,1.9983493188129047,0.0,0.0,2.0,0.6,1.2,100.0,1.0,0.18,0.018022865980376945,0.2,1.0,-160.0,0,0,calibrating,0,0,0,0,0,0.0
3.512503739000067,353,972.87,93.3,8.6,-90.7,-1.97,-0.92,0.95,-0.04,1.0,-0.08,-94.4,406.5,-644.0,-2.01,-10.02,0.35,0.0,1.0039920318408906,2.372719958191442,0.0,0.0,2.0,0.6,1.2,100.0,1.0,0.18,0.004764768452651391,0.2,1.0,-160.0,0,0,calibrating,0,0,0,0,0,0.0
3.5205108400000427,354,972.88,93.2,8.7,-90.6,-1.65,-1.15,1.05,0.02,0.98,-0.08,-90.8,342.1,-602.0,-2.1,-8.48,0.04,0.0,0.9834632682515396,2.2688102609076854,0.0,0.0,2.0,0.6,1.2,100.0,1.0,0.18,0.015448715233965515,0.2,1.0,-160.0,0,0,calibrating,0,0,0,0,0,0.0
3.532653362000019,355,972.89,93.0,8.8,-90.4,-1.51,-1.36,1.09,0.04,0.99,-0.09,-87.8,289.1,-532.0,-2.17,-7.17,0.16,0.0,0.9948869282486327,2.3060355591360686,0.0,0.0,2.0,0.6,1.2,100.0,1.0,0.18,0.003944554132135125,0.2,1.0,-160.0,0,0,calibrating,0,0,0,0,0,0.0
3.540582751000102,356,972.9,92.9,8.8,-90.3,-1.65,-1.51,1.05,0.11,0.97,-0.11,-85.2,248.3,-411.0,-2.24,-6.29,0.21,0.0,0.9823950325607311,2.470850056154764,0.0,0.0,2.0,0.6,1.2,100.0,1.0,0.18,0.016107720823635985,0.2,1.0,-160.0,0,0,calibrating,0,0,0,0,0,0.0
3.552590271000099,357,972.91,92.8,8.9,-90.1,-1.65,-1.37,0.99,0.13,0.96,-0.12,-82.9,219.4,-322.0,-2.29,-5.55,0.26,0.0,0.9761659694949419,2.3620965263934495,0.0,0.0,2.0,0.6,1.2,100.0,1.0,0.18,0.021890048211636648,0.2,1.0,-160.0,0,0,calibrating,0,0,0,0,0,0.0
3.56059085600009,358,972.92,92.7,9.0,-90.0,-1.63,-1.29,0.97,0.09,0.92,-0.13,-80.9,191.7,-297.0,-2.34,-4.79,0.1,0.0,0.9334880824091971,2.2938831705211142,0.0,0.0,2.0,0.6,1.2,100.0,1.0,0.18,0.06327657659143382,0.2,1.0,-160.0,0,0,calibrating,0,0,0,0,0,0.0
3.5725878850000754,359,972.93,92.6,9.1,-89.8,-1.43,-1.23,1.0,0.05,0.89,-0.11,-79.2,164.5,-269.0,-2.39,-4.11,0.09,0.0,0.8981647955692763,2.1349004660639332,0.0,0.0,2.0,0.6,1.2,100.0,1.0,0.18,0.09662786616272756,0.2,1.0,-160.0,0,0,calibrating,0,0,0,0,0,0.0
3.580463990999988,360,972.94,92.5,9.2,-89.7,-0.91,-1.3,0.99,0.05,0.87,-0.1,-77.7,141.5,-228.0,-2.42,-3.55,0.0,0.0,0.8771544903835355,1.8703475612837313,0.0,0.0,2.0,0.6,1.2,100.0,1.0,0.18,0.115285407921499,0.2,1.0,-160.0,0,0,calibrating,0,0,0,0,0,0.0
3.5925384419999773,361,972.95,92.4,9.3,-89.6,-0.39,-1.51,0.91,0.03,0.9,-0.09,-76.4,122.0,-207.0,-2.46,-3.02,0.03,0.0,0.9049861877399014,1.8056300839319221,0.0,0.0,2.0,0.6,1.2,100.0,1.0,0.18,0.08570463635383052,0.2,1.0,-160.0,0,0,calibrating,0,0,0,0,0,0.0
3.600434286000109,362,972.96,92.4,9.4,-89.4,-0.24,-1.79,0.83,0.02,0.93,-0.1,-75.3,103.8,-186.0,-2.48,-2.56,-0.1,0.0,0.9355746896961248,1.9876116320851012,0.0,0.0,2.0,0.6,1.2,100.0,1.0,0.18,0.05401381170965491,0.2,1.0,-160.0,0,0,calibrating,0,0,0,0,0,0.0
3.6125644809999358,363,972.97,92.4,9.4,-89.2,-0.32,-2.0,0.73,0.01,0.95,-0.11,-74.4,88.7,-149.0,-2.51,-2.23,0.18,0.0,0.9563994981178106,2.1529746863351646,0.0,0.0,2.0,0.6,1.2,100.0,1.0,0.18,0.03252522322220974,0.2,1.0,-160.0,0,0,calibrating,0,0,0,0,0,0.0
3.6206585879999693,364,972.98,92.4,9.5,-89.0,-0.34,-2.11,0.63,0.01,0.96,-0.11,-73.6,75.8,-134.0,-2.53,-1.86,0.0,0.0,0.9663332758422427,2.22813823628607,0.0,0.0,2.0,0.6,1.2,100.0,1.0,0.18,0.022139616587822042,0.2,1.0,-160.0,0,0,calibrating,0,0,0,0,0,0.0
3.632500102999984,365,972.99,92.4,9.5,-88.8,-0.25,-2.19,0.58,0.0,0.95,-0.11,-72.9,62.2,-141.0,-2.54,-1.48,0.04,0.0,0.9563472172804185,2.2792542640082964,0.0,0.0,2.0,0.6,1.2,100.0,1.0,0.18,0.031483161646653324,0.2,1.0,-160.0,0,0,calibrating,0,0,0,0,0,0.0
3.640595593999933,366,973.0,92.5,9.6,-88.5,-0.11,-2.27,0.6,0.0,0.95,-0.11,-72.5,50.7,-186.0,-2.55,-0.97,0.12,0.0,0.9563472172804185,2.3505318547086316,0.0,0.0,2.0,0.6,1.2,100.0,1.0,0.18,0.030853498413720204,0.2,1.0,-160.0,0,0,calibrating,0,0,0,0,0,0.0
3.6525256600000375,367,973.01,92.5,9.6,-88.3,0.02,-2.38,0.66,-0.01,0.95,-0.11,-72.1,22.7,-235.0,-2.56,-0.33,0.19,0.0,0.9563994981178106,2.469898783351253,0.0,0.0,2.0,0.6,1.2,100.0,1.0,0.18,0.03018519322480162,0.2,1.0,-160.0,0,0,calibrating,0,0,0,0,0,0.0
3.6605832770001143,368,973.02,92.6,9.7,-88.0,0.08,-2.51,0.75,-0.02,0.95,-0.12,-72.0,-0.4,-209.0,-2.56,0.18,-0.17,0.0,0.9577577981932592,2.620877715575452,0.0,0.0,2.0,0.6,1.2,100.0,1.0,0.18,0.02825035528636577,0.2,1.0,-160.0,0,0,calibrating,0,0,0,0,0,0.0
3.6726579109999875,369,973.03,92.6,9.8,-87.8,0.14,-2.66,0.81,-0.02,0.95,-0.14,-72.1,-7.3,-80.0,-2.56,0.19,0.05,0.0,0.9604686356149272,2.784115658517081,0.0,0.0,2.0,0.6,1.2,100.0,1.0,0.18,0.025028727507403814,0.2,1.0,-160.0,0,0,calibrating,0,0,0,0,0,0.0
3.680454671999996,370,973.04,92.7,9.8,-87.5,0.13,-2.81,0.89,-0.04,0.96,-0.15,-72.2,-8.2,-48.0,-2.55,0.28,0.11,0.0,0.9724710792614863,2.95044064505626,0.0,0.0,2.0,0.6,1.2,100.0,1.0,0.18,0.012765758183627907,0.2,1.0,-160.0,0,0,calibrating,0,0,0,0,0,0.0
3.6926362199999403,371,973.05,92.7,9.9,-87.2,0.21,-2.99,0.95,-0.05,0.96,-0.17,-72.3,-15.2,-71.0,-2.55,0.52,0.13,0.0,0.9762171889492625,3.1443123254536913,0.0,0.0,2.0,0.6,1.2,100.0,1.0,0.18,0.008839255525934786,0.2,1.0,-160.0,0,0,calibrating,0,0,0,0,0,0.0
3.7026312180000787,372,973.06,92.8,10.0,-86.9,0.27,-3.18,1.0,-0.05,0.97,-0.17,-72.5,-26.8,-107.0,-2.54,0.87,-0.02,0.0,0.9860527369263775,3.344443152454531,0.0,0.0,2.0,0.6,1.2,100.0,1.0,0.18,0.0009763666021566086,0.2,1.0,-160.0,0,0,calibrating,0,0,0,0,0,0.0
3.7126074000000244,373,973.07,92.9,10.1,-86.5,0.47,-3.44,0.97,-0.04,0.96,-0.14,-72.9,-38.0,-109.0,-2.53,1.17,0.09,0.0,0.9709788875150684,3.6049133137982663,0.0,0.0,2.0,0.6,1.2,100.0,1.0,0.18,0.013815533152969461,0.2,1.0,-160.0,0,0,calibrating,0,0,0,0,0,0.0
3.7206262380000226,374,973.08,93.0,10.2,-86.2,0.68,-3.71,0.9,-0.01,0.99,-0.15,-73.3,-49.0,-109.0,-2.52,1.47,-0.04,0.0,1.0013490899781154,3.8776926128820475,0.0,0.0,2.0,0.6,1.2,100.0,1.0,0.18,0.01622357592387602,0.2,1.0,-160.0,0,0,calibrating,0,0,0,0,0,0.0
3.732503643999962,375,973.09,93.2,10.2,-85.8,0.91,-3.84,0.76,0.02,1.0,-0.16,-73.9,-62.8,-142.0,-2.5,1.92,0.01,0.0,1.012916580968048,4.018867999822835,0.0,0.0,2.0,0.6,1.2,100.0,1.0,0.18,0.027235245575532474,0.2,1.0,-160.0,0,0,calibrating,0,0,0,0,0,0.0
3.740553648000059,376,973.1,93.4,10.3,-85.4,1.21,-3.85,0.52,0.04,1.01,-0.15,-74.7,-81.1,-175.0,-2.48,2.44,0.33,0.0,1.0218610473053564,4.069029368289199,0.0,0.0,2.0,0.6,1.2,100.0,1.0,0.18,0.03545611767458401,0.2,1.0,-160.0,0,0,calibrating,0,0,0,0,0,0.0
3.752721314999917,377,973.11,93.6,10.3,-85.0,1.36,-3.79,0.31,0.06,1.02,-0.14,-75.6,-104.2,-226.0,-2.45,3.15,0.19,0.0,1.031309846748299,4.038539339909914,0.0,0.0,2.0,0.6,1.2,100.0,1.0,0.18,0.04400681877517609,0.2,1.0,-160.0,0,0,calibrating,0,0,0,0,0,0.0
3.760452747000045,378,973.12,93.8,10.3,-84.6,1.33,-3.8,0.16,0.11,1.02,-0.12,-76.9,-129.7,-245.0,-2.41,3.83,0.15,0.0,1.0329085148259742,4.029205877092904,0.0,0.0,2.0,0.6,1.2,100.0,1.0,0.18,0.04469337711579424,0.2,1.0,-160.0,0,0,calibrating,0,0,0,0,0,0.0
3.772650990000102,379,973.13,94.0,10.2,-84.2,1.4,-3.81,0.06,0.16,1.0,-0.11,-78.3,-152.2,-217.0,-2.37,4.36,0.11,0.0,1.0186756107809787,4.059519676020797,0.0,0.0,2.0,0.6,1.2,100.0,1.0,0.18,0.029851263609382728,0.2,1.0,-160.0,0,0,calibrating,0,0,0,0,0,0.0
3.780435131000104,380,973.14,94.3,10.2,-83.8,1.68,-3.69,-0.16,0.21,0.99,-0.11,-80.0,-169.6,-177.0,-2.32,4.78,-0.03,0.0,1.017988212112498,4.057597811513605,0.0,0.0,2.0,0.6,1.2,100.0,1.0,0.18,0.028580587642083932,0.2,1.0,-160.0,0,0,calibrating,0,0,0,0,0,0.0
3.792533813000091,381,973.15,94.5,10.2,-83.5,2.13,-3.41,-0.54,0.24,1.01,-0.09,-81.7,-180.8,-119.0,-2.27,5.0,0.06,0.0,1.0420172743289815,4.056673514099945,0.0,0.0,2.0,0.6,1.2,100.0,1.0,0.18,0.051557456861396234,0.2,1.0,-160.0,0,0,calibrating,0,0,0,0,0,0.0
3.804463295000005,382,973.16,94.8,10.1,-83.1,2.5,-2.95,-1.09,0.28,1.05,-0.09,-83.6,-185.2,-45.0,-2.22,5.01,0.0,0.0,1.0904127658827183,4.017536558638888,0.0,0.0,2.0,0.6,1.2,100.0,1.0,0.18,0.09795388944683037,0.2,1.0,-160.0,0,0,calibrating,0,0,0,0,0,0.0
3.8125233030000345,383,973.17,95.1,10.0,-82.9,2.51,-2.17,-1.83,0.33,1.11,-0.08,-85.4,-181.3,31.0,-2.17,4.82,-0.14,0.0,1.160775602776006,3.789181969766034,0.0,0.0,2.0,0.6,1.2,100.0,1.0,0.18,0.16495039181331583,0.2,1.0,-160.0,0,0,calibrating,0,0,0,0,0,0.0
3.820521408000104,384,973.18,95.4,9.8,-82.7,2.35,-1.28,-2.57,0.33,1.14,-0.09,-87.2,-170.3,91.0,-2.13,4.47,-0.09,0.0,1.1902100654926422,3.710229103438223,0.0,0.0,2.0,0.6,1.2,100.0,1.0,0.18,0.19049715743935292,0.2,1.0,-160.0,0,0,calibrating,0,0,0,0,0,0.0
3.832593397999972,385,973.19,95.6,9.6,-82.7,2.24,-0.3,-3.32,0.32,1.17,-0.11,-88.8,-156.1,130.0,-2.08,4.05,-0.21,0.0,1.2179490958164056,4.016217125604641,0.0,0.0,2.0,0.6,1.2,100.0,1.0,0.18,0.21387146400785406,0.2,1.0,-160.0,0,0,calibrating,0,0,0,0,0,0.0
3.840408284999967,386,973.2,95.8,9.3,-82.8,1.94,0.69,-3.76,0.29,1.22,-0.09,-90.2,-141.0,138.0,-2.05,3.66,0.13,0.0,1.2572191535289303,4.28687531892403,0.0,0.0,2.0,0.6,1.2,100.0,1.0,0.18,0.24807869128597115,0.2,1.0,-160.0,0,0,calibrating,0,0,0,0,0,0.0
3.8527160959999946,387,973.21,95.9,8.9,-82.9,1.38,1.41,-3.77,0.2,1.23,-0.05,-91.6,-129.7,113.0,-2.01,3.41,-0.14,0.0,1.247156766409099,4.25504406557676,0.0,0.0,2.0,0.6,1.2,100.0,1.0,0.18,0.23325597808281695,0.2,1.0,-160.0,0,0,calibrating,0,0,0,0,0,0.0
3.8602806070000497,388,973.22,96.0,8.6,-83.1,0.87,1.69,-3.34,0.04,1.22,0.0,-92.8,-122.6,69.0,-1.98,3.29,-0.12,0.0,1.2206555615733703,3.842993624767025,0.0,0.0,2.0,0.6,1.2,100.0,1.0,0.18,0.2026196777821465,0.2,1.0,-160.0,0,0,calibrating,0,0,0,0,0,0.0
3.8726769350000723,389,973.23,96.0,8.3,-83.3,0.57,1.55,-2.62,-0.1,1.2,0.06,-94.0,-120.4,29.0,-1.95,3.27,0.01,0.0,1.2056533498481228,3.097063124962099,0.0,0.0,2.0,0.6,1.2,100.0,1.0,0.18,0.183865116735761,0.2,1.0,-160.0,0,0,calibrating,0,0,0,0,0,0.0
3.8805447839999943,390,973.24,96.1,8.1,-83.5,0.82,1.07,-1.82,-0.23,1.17,0.14,-95.2,-120.7,0.0,-1.91,3.31,0.11,0.0,1.200583191619806,2.2648841029951177,0.0,0.0,2.0,0.6,1.2,100.0,1.0,0.18,0.1752190593372953,0.2,1.0,-160.0,0,0,calibrating,0,0,0,0,0,0.0
3.8926024209999923,391,973.25,96.2,8.0,-83.6,1.39,0.29,-1.1,-0.3,1.16,0.16,-96.4,-121.3,3.0,-1.88,3.28,0.3,0.0,1.208801058900926,1.7961625761606324,0.0,0.0,2.0,0.6,1.2,100.0,1.0,0.18,0.1797681880860469,0.2,1.0,-160.0,0,0,calibrating,0,0,0,0,0,0.0
3.904685359000041,392,973.26,96.3,7.9,-83.5,1.61,-0.55,-0.54,-0.3,1.18,0.18,-97.6,-119.5,17.0,-1.85,3.21,-0.03,0.0,1.230772115381235,1.784992997185143,0.0,0.0,2.0,0.6,1.2,100.0,1.0,0.18,0.1977044596750288,0.2,1.0,-160.0,0,0,calibrating,0,0,0,0,0,0.0
3.912460712999973,393,973.27,96.5,7.8,-83.4,1.25,-1.43,-0.13,-0.26,1.18,0.18,-98.8,-115.3,37.0,-1.82,3.08,0.03,0.0,1.221638244326036,1.9037594385846128,0.0,0.0,2.0,0.6,1.2,100.0,1.0,0.18,0.1847991768474333,0.2,1.0,-160.0,0,0,calibrating,0,0,0,0,0,0.0
3.920365899999979,394,973.28,96.6,7.8,-83.3,0.54,-2.18,0.19,-0.21,1.14,0.16,-99.9,-110.1,48.0,-1.79,2.92,-0.05,0.0,1.1701709276853531,2.2539077177204927,0.0,0.0,2.0,0.6,1.2,100.0,1.0,0.18,0.1306652230026153,0.2,1.0,-160.0,0,0,calibrating,0,0,0,0,0,0.0
3.9325250720000895,395,973.29,96.7,7.8,-83.0,-0.06,-2.72,0.42,-0.15,1.05,0.16,-101.0,-104.1,67.0,-1.76,2.71,-0.12,0.0,1.0726602444390303,2.7528893911670336,0.0,0.0,2.0,0.6,1.2,100.0,1.0,0.18,0.032491448961166514,0.2,1.0,-160.0,0,0,calibrating,0,0,0,0,0,0.0
3.9406004469999516,396,973.3,96.7,7.8,-82.7,-0.35,-3.18,0.56,-0.06,0.96,0.18,-102.0,-95.6,81.0,-1.73,2.47,-0.05,0.0,0.9785703858180055,3.2478454396722762,0.0,0.0,2.0,0.6,1.2,100.0,1.0,0.18,0.06036644146666115,0.2,1.0,-160.0,0,0,calibrating,0,0,0,0,0,0.0
3.952481517000024,397,973.31,96.7,7.9,-82.3,-0.41,-3.54,0.67,0.02,0.9,0.18,-102.8,-84.5,103.0,-1.71,2.16,0.04,0.0,0.9180413934022801,3.6260998331540737,0.0,0.0,2.0,0.6,1.2,100.0,1.0,0.18,0.11847752520473886,0.2,1.0,-160.0,0,0,calibrating,0,0,0,0,0,0.0
3.960581159999947,398,973.32,96.7,7.9,-82.0,-0.5,-3.78,0.77,0.1,0.86,0.18,-103.6,-72.9,121.0,-1.69,1.8,-0.09,0.0,0.8843076387773657,3.8898971708773997,0.0,0.0,2.0,0.6,1.2,100.0,1.0,0.18,0.1491670542330602,0.2,1.0,-160.0,0,0,calibrating,0,0,0,0,0,0.0
3.9726540240001214,399,973.33,96.7,7.9,-81.6,-0.46,-3.86,0.77,0.17,0.81,0.16,-104.2,-57.5,145.0,-1.68,1.37,-0.22,0.0,0.842970936628304,3.962839890785395,0.0,0.0,2.0,0.6,1.2,100.0,1.0,0.18,0.1866936812544795,0.2,1.0,-160.0,0,0,calibrating,0,0,0,0,0,0.0
3.980450810000093,400,973.34,96.7,8.0,-81.2,-0.34,-3.75,0.65,0.2,0.79,0.15,-104.7,-41.2,166.0,-1.67,0.87,0.0,0.0,0.828613299434664,3.821073147690319,0.0,0.0,2.0,0.6,1.2,100.0,1.0,0.18,0.19703029207915712,0.2,1.0,-160.0,0,0,calibrating,0,0,0,0,0,0.0
3.992547978999937,401,973.35,96.7,8.0,-80.8,-0.2,-3.61,0.41,0.21,0.79,0.13,-105.0,-21.7,186.0,-1.66,0.35,-0.26,0.0,0.8277076778670113,3.6387085621137616,0.0,0.0,2.0,0.6,1.2,100.0,1.0,0.18,0.1939771953738737,0.2,1.0,-160.0,0,0,calibrating,0,0,0,0,0,0.0
4.00273147200005,402,973.36,96.8,8.0,-80.5,-0.15,-3.44,0.12,0.2,0.8,0.11,-105.1,-2.6,179.0,-1.66,-0.11,0.02,0.0,0.831925477431723,3.4453591975293376,0.0,0.0,2.0,0.6,1.2,100.0,1.0,0.18,0.18596420789297874,0.2,1.0,-160.0,0,0,calibrating,0,0,0,0,0,0.0
4.012472953000042,403,973.37,96.8,7.9,-80.1,-0.18,-3.25,-0.17,0.17,0.82,0.08,-105.0,4.5,66.0,-1.66,-0.09,-0.09,0.0,0.8412490713219242,3.259417125806392,0.0,0.0,2.0,0.6,1.2,100.0,1.0,0.18,0.173107801722722,0.2,1.0,-160.0,0,0,calibrating,0,0,0,0,0,0.0
4.020704081000076,404,973.38,96.8,7.8,-79.8,-0.18,-2.99,-0.41,0.16,0.85,0.05,-105.0,2.4,6.0,-1.66,-0.03,-0.15,0.0,0.8663717446916189,3.0233425211179767,0.0,0.0,2.0,0.6,1.2,100.0,1.0,0.18,0.14502542578596667,0.2,1.0,-160.0,0,0,calibrating,0,0,0,0,0,0.0
4.032500896000101,405,973.39,96.8,7.8,-79.5,-0.15,-2.68,-0.51,0.15,0.89,0.03,-105.0,-0.2,-8.0,-1.66,0.0,-0.05,0.0,0.9030503861911582,2.7322152184628505,0.0,0.0,2.0,0.6,1.2,100.0,1.0,0.18,0.10617984860069896,0.2,1.0,-160.0,0,0,calibrating,0,0,0,0,0,0.0
4.040585699000076,406,973.4,96.9,7.7,-79.3,-0.08,-2.39,-0.5,0.15,0.93,0.03,-105.0,0.4,0.0,-1.66,0.0,-0.02,0.0,0.9424966843443006,2.4430513707247337,0.0,0.0,2.0,0.6,1.2,100.0,1.0,0.18,0.06539887943860534,0.2,1.0,-160.0,0,0,calibrating,0,0,0,0,0,0.0
4.052606265000122,407,973.41,96.9,7.6,-79.1,0.02,-2.17,-0.4,0.14,0.96,0.02,-105.0,-0.4,0.0,-1.66,0.0,0.07,0.0,0.9703607576566562,2.2066490432327477,0.0,0.0,2.0,0.6,1.2,100.0,1.0,0.18,0.03678411000372461,0.2,1.0,-160.0,0,0,calibrating,0,0,0,0,0,0.0
4.060598277000054,408,973.42,96.9,7.5,-78.9,0.16,-1.96,-0.26,0.13,0.99,0.0,-105.0,0.0,0.0,-1.66,0.0,0.07,0.0,0.9984988733093293,1.9836330305779846,0.0,0.0,2.0,0.6,1.2,100.0,1.0,0.18,0.008473074464030561,0.2,1.0,-160.0,0,0,calibrating,0,0,0,0,0,0.0
4.072601591999955,409,973.43,96.9,7.5,-78.7,0.38,-1.74,-0.08,0.11,1.04,-0.02,-105.0,-0.5,-5.0,-1.66,0.01,-0.04,0.0,1.0459923517884824,1.7828067758453243,0.0,0.0,2.0,0.6,1.2,100.0,1.0,0.18,0.03823999593482008,0.2,1.0,-160.0,0,0,calibrating,0,0,0,0,0,0.0
4.082540389000087,410,973.44,96.9,7.5,-78.5,0.65,-1.53,0.14,0.1,1.1,-0.02,-105.0,-1.7,-13.0,-1.66,0.07,0.09,0.0,1.1047171583713182,1.668232597691341,0.0,0.0,2.0,0.6,1.2,100.0,1.0,0.18,0.0950255064673029,0.2,1.0,-160.0,0,0,calibrating,0,0,0,0,0,0.0
4.092672918000062,411,973.45,96.9,7.5,-78.4,0.76,-1.35,0.4,0.1,1.15,-0.02,-105.0,-4.8,-27.0,-1.66,0.17,0.12,0.0,1.1545128842936314,1.6000312496948303,0.0,0.0,2.0,0.6,1.2,100.0,1.0,0.18,0.1419248077418238,0.2,1.0,-160.0,0,0,calibrating,0,0,0,0,0,0.0
4.100338486000055,412,973.46,97.0,7.5,-78.3,0.63,-1.25,0.64,0.1,1.17,-0.03,-105.1,-8.5,-31.0,-1.66,0.26,0.22,0.0,1.1746488837095108,1.539155612665594,0.0,0.0,2.0,0.6,1.2,100.0,1.0,0.18,0.15881959101454912,0.2,1.0,-160.0,0,0,calibrating,0,0,0,0,0,0.0
4.112569723999968,413,973.47,97.0,7.5,-78.1,0.28,-1.22,0.78,0.09,1.15,-0.03,-105.2,-12.5,-49.0,-1.65,0.44,0.08,0.0,1.1539064086831305,1.4748559251669298,0.0,0.0,2.0,0.6,1.2,100.0,1.0,0.18,0.13531557366840552,0.2,1.0,-160.0,0,0,calibrating,0,0,0,0,0,0.0
4.1204665570001,414,973.48,97.0,7.5,-78.0,-0.04,-1.24,0.86,0.09,1.12,-0.03,-105.4,-22.5,-91.0,-1.65,0.76,0.18,0.0,1.1240106761058812,1.5095694750490949,0.0,0.0,2.0,0.6,1.2,100.0,1.0,0.18,0.10331144426933303,0.2,1.0,-160.0,0,0,calibrating,0,0,0,0,0,0.0
4.132678349000116,415,973.49,96.9,7.6,-77.9,-0.27,-1.31,0.91,0.09,1.07,-0.02,-105.7,-34.4,-113.0,-1.64,1.09,-0.01,0.0,1.0739646176667088,1.6177453446077352,0.0,0.0,2.0,0.6,1.2,100.0,1.0,0.18,0.052200078113557424,0.2,1.0,-160.0,0,0,calibrating,0,0,0,0,0,0.0
4.140624631000037,416,973.5,96.8,7.7,-77.7,-0.32,-1.34,0.95,0.11,1.04,-0.02,-106.1,-45.1,-99.0,-1.63,1.32,-0.06,0.0,1.0459923517884824,1.673469449975111,0.0,0.0,2.0,0.6,1.2,100.0,1.0,0.18,0.023743255990624323,0.2,1.0,-160.0,0,0,calibrating,0,0,0,0,0,0.0
4.152407573000119,417,973.51,96.8,7.7,-77.6,-0.37,-1.32,1.02,0.12,1.03,-0.03,-106.7,-53.1,-78.0,-1.61,1.51,-0.01,0.0,1.0374005976477938,1.708712965948348,0.0,0.0,2.0,0.6,1.2,100.0,1.0,0.18,0.014848471812937136,0.2,1.0,-160.0,0,0,calibrating,0,0,0,0,0,0.0
4.160618602000113,418,973.52,96.7,7.8,-77.5,-0.41,-1.23,1.09,0.13,1.02,-0.05,-107.2,-59.6,-69.0,-1.59,1.67,0.08,0.0,1.0294658809304948,1.6938417871808453,0.0,0.0,2.0,0.6,1.2,100.0,1.0,0.18,0.0067754799937254084,0.2,1.0,-160.0,0,0,calibrating,0,0,0,0,0,0.0
4.172649677999971,419,973.53,96.7,7.9,-77.3,-0.44,-1.05,1.15,0.14,1.0,-0.07,-107.9,-64.7,-52.0,-1.58,1.8,-0.13,0.0,1.0121758740456126,1.6182088863926065,0.0,0.0,2.0,0.6,1.2,100.0,1.0,0.18,0.010304236353333884,0.2,1.0,-160.0,0,0,calibrating,0,0,0,0,0,0.0
4.1801952800001345,420,973.54,96.6,8.0,-77.2,-0.49,-0.86,1.22,0.14,0.98,-0.08,-108.5,-67.2,-29.0,-1.56,1.84,-0.08,0.0,0.9931767214348108,1.5710187777362814,0.0,0.0,2.0,0.6,1.2,100.0,1.0,0.18,0.02871732118485304,0.2,1.0,-160.0,0,0,calibrating,0,0,0,0,0,0.0
4.1926602710000225,421,973.55,96.6,8.1,-77.1,-0.55,-0.65,1.29,0.15,0.97,-0.09,-109.2,-66.6,0.0,-1.54,1.79,-0.26,0.0,0.9856469956328178,1.5456713751635565,0.0,0.0,2.0,0.6,1.2,100.0,1.0,0.18,0.03552210604710915,0.2,1.0,-160.0,0,0,calibrating,0,0,0,0,0,0.0
4.202712342000041,422,973.56,96.5,8.3,-77.1,-0.66,-0.44,1.36,0.15,0.95,-0.09,-109.8,-63.8,21.0,-1.52,1.69,0.03,0.0,0.9659710140578753,1.574420528321452,0.0,0.0,2.0,0.6,1.2,100.0,1.0,0.18,0.05409412586961049,0.2,1.0,-160.0,0,0,calibrating,0,0,0,0,0,0.0
4.2124297330001355,423,973.57,96.4,8.4,-77.0,-0.75,-0.24,1.4,0.16,0.93,-0.09,-110.5,-61.4,21.0,-1.51,1.64,-0.14,0.0,0.9479451460923254,1.606268968759591,0.0,0.0,2.0,0.6,1.2,100.0,1.0,0.18,0.07067759395845719,0.2,1.0,-160.0,0,0,calibrating,0,0,0,0,0,0.0
4.220559133000052,424,973.58,96.3,8.6,-77.0,-0.84,-0.07,1.39,0.17,0.91,-0.09,-111.1,-58.2,38.0,-1.49,1.5,-0.01,0.0,0.9301075206662938,1.625607578722491,0.0,0.0,2.0,0.6,1.2,100.0,1.0,0.18,0.08674491499679904,0.2,1.0,-160.0,0,0,calibrating,0,0,0,0,0,0.0
4.23276193200013,425,973.59,96.2,8.7,-77.0,-0.96,0.07,1.31,0.17,0.89,-0.08,-111.6,-50.5,72.0,-1.48,1.25,-0.31,0.0,0.9096153033013462,1.625607578722491,0.0,0.0,2.0,0.6,1.2,100.0,1.0,0.18,0.10509238971451162,0.2,1.0,-160.0,0,0,calibrating,0,0,0,0,0,0.0
4.244442577999962,426,973.6,96.1,8.9,-77.0,-1.09,0.2,1.19,0.18,0.87,-0.08,-112.0,-42.0,80.0,-1.47,1.03,0.21,0.0,0.8920201791439474,1.6260996279441184,0.0,0.0,2.0,0.6,1.2,100.0,1.0,0.18,0.12023376359447213,0.2,1.0,-160.0,0,0,calibrating,0,0,0,0,0,0.0
4.252385516000004,427,973.61,96.0,9.0,-77.0,-1.14,0.33,1.0,0.18,0.85,-0.09,-112.4,-35.6,66.0,-1.46,0.88,0.01,0.0,0.8734987120768982,1.5519342769589182,0.0,0.0,2.0,0.6,1.2,100.0,1.0,0.18,0.1359801260482909,0.2,1.0,-160.0,0,0,calibrating,0,0,0,0,0,0.0
4.260428681000121,428,973.62,95.9,9.2,-77.0,-1.2,0.47,0.78,0.18,0.84,-0.1,-112.7,-26.0,92.0,-1.45,0.58,0.05,0.0,0.864869932417586,1.5064195962612807,0.0,0.0,2.0,0.6,1.2,100.0,1.0,0.18,0.1417167275934511,0.2,1.0,-160.0,0,0,calibrating,0,0,0,0,0,0.0
4.2728056549999565,429,973.63,95.8,9.3,-77.1,-1.22,0.6,0.54,0.17,0.83,-0.1,-112.9,-14.9,106.0,-1.45,0.27,-0.19,0.0,0.8531119504496465,1.4628738838327793,0.0,0.0,2.0,0.6,1.2,100.0,1.0,0.18,0.15040521537016294,0.2,1.0,-160.0,0,0,calibrating,0,0,0,0,0,0.0
4.2825292009999885,430,973.64,95.7,9.3,-77.1,-1.2,0.73,0.28,0.17,0.84,-0.09,-113.0,-4.1,103.0,-1.45,0.0,0.04,0.0,0.8617424209124208,1.4322360140703068,0.0,0.0,2.0,0.6,1.2,100.0,1.0,0.18,0.1389392500092409,0.2,1.0,-160.0,0,0,calibrating,0,0,0,0,0,0.0
4.292630637000002,431,973.65,95.5,9.4,-77.2,-1.14,0.83,0.04,0.16,0.84,-0.1,-113.0,2.6,57.0,-1.45,-0.07,-0.12,0.0,0.8609297300012353,1.4107090415815728,0.0,0.0,2.0,0.6,1.2,100.0,1.0,0.18,0.13695690210201794,0.2,1.0,-160.0,0,0,calibrating,0,0,0,0,0,0.0
4.30273609599999,432,973.66,95.4,9.4,-77.3,-1.09,0.94,-0.19,0.16,0.84,-0.11,-112.9,1.4,-3.0,-1.45,0.03,-0.1,0.0,0.8621484790916236,1.4518264359075432,0.0,0.0,2.0,0.6,1.2,100.0,1.0,0.18,0.13302338995139706,0.2,1.0,-160.0,0,0,calibrating,0,0,0,0,0,0.0
4.312284179000017,433,973.67,95.3,9.4,-77.4,-1.03,1.04,-0.42,0.15,0.85,-0.12,-112.9,-1.1,-9.0,-1.45,0.04,-0.11,0.0,0.8714355971613736,1.5227934856703322,0.0,0.0,2.0,0.6,1.2,100.0,1.0,0.18,0.1212615464440141,0.2,1.0,-160.0,0,0,calibrating,0,0,0,0,0,0.0
4.320304753000073,434,973.68,95.3,9.3,-77.5,-0.97,1.16,-0.61,0.14,0.87,-0.13,-113.0,-0.5,11.0,-1.45,-0.02,0.19,0.0,0.890730037665734,1.630521389004143,0.0,0.0,2.0,0.6,1.2,100.0,1.0,0.18,0.09992776382086066,0.2,1.0,-160.0,0,0,calibrating,0,0,0,0,0,0.0
4.332639079000046,435,973.69,95.2,9.3,-77.6,-0.94,1.28,-0.69,0.12,0.9,-0.14,-112.9,1.2,3.0,-1.45,-0.02,0.18,0.0,0.9186947262284682,1.7315022379425329,0.0,0.0,2.0,0.6,1.2,100.0,1.0,0.18,0.07052381375296402,0.2,1.0,-160.0,0,0,calibrating,0,0,0,0,0,0.0
4.342625905999967,436,973.7,95.1,9.2,-77.8,-0.89,1.34,-0.7,0.11,0.92,-0.14,-112.9,-0.5,-6.0,-1.45,0.01,0.04,0.0,0.9370699013414101,1.7543374817862156,0.0,0.0,2.0,0.6,1.2,100.0,1.0,0.18,0.05110566586722165,0.2,1.0,-160.0,0,0,calibrating,0,0,0,0,0,0.0
4.352632135000022,437,973.71,95.0,9.1,-77.9,-0.79,1.35,-0.7,0.09,0.94,-0.14,-112.9,0.0,3.0,-1.45,0.0,0.02,0.0,0.9546203433826455,1.7136510730017356,0.0,0.0,2.0,0.6,1.2,100.0,1.0,0.18,0.032884119349466556,0.2,1.0,-160.0,0,0,calibrating,0,0,0,0,0,0.0
4.360463669999945,438,973.72,95.0,9.0,-78.1,-0.77,1.3,-0.72,0.08,0.95,-0.14,-112.9,-0.5,-10.0,-1.45,0.04,0.13,0.0,0.9635870484808313,1.6737084572887837,0.0,0.0,2.0,0.6,1.2,100.0,1.0,0.18,0.023439065966255113,0.2,1.0,-160.0,0,0,calibrating,0,0,0,0,0,0.0
4.372785342000043,439,973.73,94.9,8.9,-78.2,-0.78,1.23,-0.8,0.07,0.94,-0.15,-113.0,-1.1,-3.0,-1.45,0.03,0.12,0.0,0.9544631999192006,1.661715980545412,0.0,0.0,2.0,0.6,1.2,100.0,1.0,0.18,0.03191165623732817,0.2,1.0,-160.0,0,0,calibrating,0,0,0,0,0,0.0
4.384587361000058,440,973.74,94.8,8.9,-78.3,-0.8,1.19,-0.87,0.07,0.93,-0.16,-113.0,-2.0,-8.0,-1.45,0.06,0.12,0.0,0.946255779374689,1.6772000476985445,0.0,0.0,2.0,0.6,1.2,100.0,1.0,0.18,0.03931669524620296,0.2,1.0,-160.0,0,0,calibrating,0,0,0,0,0,0.0
4.396421351000072,441,973.75,94.7,8.8,-78.4,-0.69,1.19,-0.91,0.07,0.93,-0.16,-113.0,-3.4,-16.0,-1.44,0.12,0.13,0.0,0.946255779374689,1.649333198598755,0.0,0.0,2.0,0.6,1.2,100.0,1.0,0.18,0.03853036134127885,0.2,1.0,-160.0,0,0,calibrating,0,0,0,0,0,0.0
4.404301711000016,442,973.76,94.6,8.7,-78.6,-0.49,1.22,-0.87,0.09,0.94,-0.15,-113.1,-6.0,-26.0,-1.44,0.22,0.31,0.0,0.9561380653441217,1.5765151442342695,0.0,0.0,2.0,0.6,1.2,100.0,1.0,0.18,0.028075113864409196,0.2,1.0,-160.0,0,0,calibrating,0,0,0,0,0,0.0
4.412356553000109,443,973.77,94.6,8.6,-78.7,-0.31,1.22,-0.77,0.1,0.95,-0.13,-113.2,-13.2,-79.0,-1.44,0.51,0.09,0.0,0.9640539403996023,1.4756015722409623,0.0,0.0,2.0,0.6,1.2,100.0,1.0,0.18,0.019756054032749937,0.2,1.0,-160.0,0,0,calibrating,0,0,0,0,0,0.0
4.422771596000075,444,973.78,94.6,8.5,-78.8,-0.11,1.2,-0.68,0.11,0.95,-0.12,-113.4,-27.1,-115.0,-1.43,0.88,0.04,0.0,0.9638464608017192,1.3836545811726277,0.0,0.0,2.0,0.6,1.2,100.0,1.0,0.18,0.019564262958020384,0.2,1.0,-160.0,0,0,calibrating,0,0,0,0,0,0.0
4.432519450999962,445,973.79,94.6,8.5,-78.9,0.02,1.14,-0.6,0.11,0.95,-0.12,-113.7,-40.9,-140.0,-1.42,1.3,0.04,0.0,0.9638464608017192,1.2884098726725124,0.0,0.0,2.0,0.6,1.2,100.0,1.0,0.18,0.01917297769885995,0.2,1.0,-160.0,0,0,calibrating,0,0,0,0,0,0.0
4.44051695600001,446,973.8,94.6,8.4,-79.1,0.16,0.99,-0.48,0.11,0.95,-0.11,-114.3,-53.9,-121.0,-1.4,1.6,-0.14,0.0,0.9626525853079084,1.1118003417880389,0.0,0.0,2.0,0.6,1.2,100.0,1.0,0.18,0.0199595161288173,0.2,1.0,-160.0,0,0,calibrating,0,0,0,0,0,0.0
4.45262528000012,447,973.81,94.6,8.3,-79.1,0.31,0.81,-0.34,0.11,0.95,-0.12,-114.9,-67.3,-139.0,-1.38,2.01,0.09,0.0,0.9638464608017192,0.9315578350268974,0.0,0.0,2.0,0.6,1.2,100.0,1.0,0.18,0.01839032782230643,0.2,1.0,-160.0,0,0,calibrating,0,0,0,0,0,0.0
4.462616202999925,448,973.82,94.7,8.3,-79.2,0.47,0.65,-0.21,0.12,0.95,-0.13,-115.7,-82.5,-144.0,-1.36,2.43,0.03,0.0,0.9663332758422427,0.82915619758885,0.0,0.0,2.0,0.6,1.2,100.0,1.0,0.18,0.015585442526147242,0.2,1.0,-160.0,0,0,calibrating,0,0,0,0,0,0.0
4.472696644000052,449,973.83,94.7,8.3,-79.3,0.51,0.56,-0.15,0.14,0.94,-0.15,-116.6,-98.2,-150.0,-1.33,2.83,0.13,0.0,0.9621330469326993,0.7721398836998384,0.0,0.0,2.0,0.6,1.2,100.0,1.0,0.18,0.019389958006976737,0.2,1.0,-160.0,0,0,calibrating,0,0,0,0,0,0.0
4.480367788999956,450,973.84,94.8,8.3,-79.3,0.55,0.61,-0.12,0.17,0.96,-0.18,-117.7,-112.6,-144.0,-1.3,3.22,-0.1,0.0,0.9914131328563285,0.8300602387778854,0.0,0.0,2.0,0.6,1.2,100.0,1.0,0.18,0.00969232535831932,0.2,1.0,-160.0,0,0,calibrating,0,0,0,0,0,0.0
4.492665257999988,451,973.85,94.9,8.3,-79.4,0.71,0.85,0.0,0.18,0.99,-0.2,-118.9,-125.3,-127.0,-1.27,3.54,-0.11,0.0,1.0259142264341596,1.1075197515168747,0.0,0.0,2.0,0.6,1.2,100.0,1.0,0.18,0.04330955055742747,0.2,1.0,-160.0,0,0,calibrating,0,0,0,0,0,0.0
4.502738777000104,452,973.86,95.0,8.3,-79.5,1.05,1.16,0.18,0.19,1.01,-0.21,-120.2,-137.1,-122.0,-1.23,3.88,0.04,0.0,1.048951857808546,1.574960316960399,0.0,0.0,2.0,0.6,1.2,100.0,1.0,0.18,0.06502023829317749,0.2,1.0,-160.0,0,0,calibrating,0,0,0,0,0,0.0
4.512496454000029,453,973.87,95.1,8.4,-79.6,1.49,1.44,0.41,0.21,1.07,-0.21,-121.7,-150.8,-133.0,-1.19,4.26,0.09,0.0,1.1104503590885997,2.112297327555948,0.0,0.0,2.0,0.6,1.2,100.0,1.0,0.18,0.12398836478176656,0.2,1.0,-160.0,0,0,calibrating,0,0,0,0,0,0.0
4.520508376999942,454,973.88,95.3,8.4,-79.8,1.65,1.75,0.69,0.2,1.08,-0.19,-123.3,-164.8,-142.0,-1.14,4.67,0.07,0.0,1.1146748404803977,2.5022190151943136,0.0,0.0,2.0,0.6,1.2,100.0,1.0,0.18,0.12564858925009326,0.2,1.0,-160.0,0,0,calibrating,0,0,0,0,0,0.0
4.5325442040000326,455,973.89,95.4,8.6,-80.0,1.66,1.95,0.86,0.18,1.06,-0.17,-125.1,-180.9,-158.0,-1.09,5.12,0.08,0.0,1.0885311203635843,2.70142554959414,0.0,0.0,2.0,0.6,1.2,100.0,1.0,0.18,0.09751477175061429,0.2,1.0,-160.0,0,0,calibrating,0,0,0,0,0,0.0
4.540512886999977,456,973.9,95.6,8.7,-80.1,1.61,2.06,0.9,0.17,1.01,-0.16,-127.0,-195.3,-142.0,-1.04,5.47,0.13,0.0,1.0366291525902598,2.76508589378341,0.0,0.0,2.0,0.6,1.2,100.0,1.0,0.18,0.044700547897743914,0.2,1.0,-160.0,0,0,calibrating,0,0,0,0,0,0.0
4.552504865999936,457,973.91,95.8,8.8,-80.3,1.71,2.17,0.83,0.16,1.0,-0.14,-129.0,-208.3,-130.0,-0.98,5.81,-0.04,0.0,1.0223502335305648,2.884770354811627,0.0,0.0,2.0,0.6,1.2,100.0,1.0,0.18,0.029813196261287644,0.2,1.0,-160.0,0,0,calibrating,0,0,0,0,0,0.0
4.560344360000045,458,973.92,95.9,8.9,-80.6,1.86,2.3,0.86,0.15,1.06,-0.11,-131.2,-222.3,-148.0,-0.92,6.25,-0.02,0.0,1.0761970079869205,3.080454511918655,0.0,0.0,2.0,0.6,1.2,100.0,1.0,0.18,0.0819867713032908,0.2,1.0,-160.0,0,0,calibrating,0,0,0,0,0,0.0
4.572658130000036,459,973.93,96.1,9.0,-80.8,1.95,2.36,1.07,0.12,1.12,-0.06,-133.5,-238.3,-149.0,-0.86,6.64,0.04,0.0,1.128007092176286,3.242992445257929,0.0,0.0,2.0,0.6,1.2,100.0,1.0,0.18,0.13112091838280304,0.2,1.0,-160.0,0,0,calibrating,0,0,0,0,0,0.0
4.582796446999964,460,973.94,96.2,9.1,-81.0,2.06,2.4,1.34,0.08,1.18,-0.04,-136.0,-250.1,-114.0,-0.79,6.91,0.0,0.0,1.1833849753989611,3.434996360987883,0.0,0.0,2.0,0.6,1.2,100.0,1.0,0.18,0.1827688255733686,0.2,1.0,-160.0,0,0,calibrating,0,0,0,0,0,0.0
4.592371838999952,461,973.95,96.4,9.3,-81.2,1.97,2.33,1.67,0.06,1.28,-0.01,-138.6,-257.2,-79.0,-0.72,7.06,0.1,0.0,1.2814444974324875,3.4783185593041934,0.0,0.0,2.0,0.6,1.2,100.0,1.0,0.18,0.27521178065475693,0.2,1.0,-160.0,0,0,calibrating,0,0,0,0,0,0.0
4.604544159999932,462,973.96,96.5,9.5,-81.4,1.51,2.2,2.21,0.06,1.36,0.01,-141.2,-264.1,-81.0,-0.65,7.29,-0.13,0.0,1.3613596145030895,3.4647077798856287,0.0,0.0,2.0,0.6,1.2,100.0,1.0,0.18,0.3480243597708519,0.2,1.0,-160.0,0,0,calibrating,0,0,0,0,0,0.0
4.612282538000045,463,973.97,96.6,9.8,-81.6,1.04,1.96,2.66,0.03,1.33,0.03,-143.9,-272.0,-67.0,-0.57,7.44,0.01,0.0,1.3306765196696002,3.463928405726654,0.0,0.0,2.0,0.6,1.2,100.0,1.0,0.18,0.3109944396386153,0.2,1.0,-160.0,0,0,calibrating,0,0,0,0,0,0.0
4.6204078729999765,464,973.98,96.7,10.1,-81.8,0.67,1.59,2.85,0.01,1.24,0.03,-146.6,-273.8,-16.0,-0.5,7.42,-0.03,0.0,1.2404031602668546,3.3315912114183517,0.0,0.0,2.0,0.6,1.2,100.0,1.0,0.18,0.21630665863115217,0.2,1.0,-160.0,0,0,calibrating,0,0,0,0,0,0.0
4.632707914000093,465,973.99,96.7,10.4,-81.9,0.29,1.29,2.73,0.05,1.16,0.02,-149.3,-272.1,0.0,-0.42,7.38,-0.09,0.0,1.1612493272333895,3.033331501830949,0.0,0.0,2.0,0.6,1.2,100.0,1.0,0.18,0.13440976908573332,0.2,1.0,-160.0,0,0,calibrating,0,0,0,0,0,0.0
4.6404881820001265,466,974.0,96.7,10.7,-82.0,0.14,1.11,2.45,0.12,1.08,0.02,-151.1,-272.0,3.0,-0.35,7.36,-0.01,0.0,1.086830253535482,2.69336221106631,0.0,0.0,2.0,0.6,1.2,100.0,1.0,0.18,0.05879088148006928,0.2,1.0,-160.0,0,0,calibrating,0,0,0,0,0,0.0
4.652722180999945,467,974.01,96.7,10.9,-82.1,0.21,1.03,2.05,0.19,1.01,0.02,-154.8,-270.4,9.0,-0.28,7.34,0.06,0.0,1.0279105019407089,2.3038012067016544,0.0,0.0,2.0,0.6,1.2,100.0,1.0,0.18,0.00012629271240971462,0.2,1.0,-160.0,0,0,calibrating,0,0,0,0,0,0.0
4.66034469300007,468,974.02,96.7,11.1,-82.1,0.54,1.17,1.61,0.27,0.98,0.01,-157.5,-270.3,0.0,-0.2,7.36,0.0,0.0,1.0165628362280414,2.062183309019836,0.0,0.0,2.0,0.6,1.2,100.0,1.0,0.18,0.011244479256575568,0.2,1.0,-160.0,0,0,calibrating,0,0,0,0,0,0.0
4.6727095129999725,469,974.03,96.8,11.2,-82.3,0.87,1.48,1.16,0.31,0.98,0.0,-160.2,-272.4,-16.0,-0.13,7.43,-0.06,0.0,1.027861858422619,2.071931466048045,0.0,0.0,2.0,0.6,1.2,100.0,1.0,0.18,5.345207924190021e-05,0.2,1.0,-160.0,0,0,calibrating,0,0,0,0,0,0.0
4.680374599000061,470,974.04,96.8,11.4,-82.4,1.01,1.93,0.7,0.32,0.98,0.0,-162.9,-272.5,6.0,-0.05,7.36,-0.01,0.0,1.0309219175087898,2.28801223772951,0.0,0.0,2.0,0.6,1.2,100.0,1.0,0.18,0.003051240942104627,0.2,1.0,-160.0,0,0,calibrating,0,0,0,0,0,0.0
4.692646163000063,471,974.05,96.9,11.4,-82.6,0.89,2.45,0.21,0.31,0.98,0.0,-165.6,-267.4,46.0,0.01,7.18,-0.12,0.0,1.027861858422619,2.615090820602604,0.0,0.0,2.0,0.6,1.2,100.0,1.0,0.18,8.641781184870467e-06,0.2,1.0,-160.0,0,0,calibrating,0,0,0,0,0,0.0
