host_time_s,seq,device_time_s,roll,pitch,yaw,gyro_x,gyro_y,gyro_z,accel_x,accel_y,accel_z,belt_length,belt_velocity,belt_acceleration,motor_pos,motor_vel,motor_iq_meas,motor_iq_set,acc_mag,gyro_mag,acc_residual,threshold,heel_strike,hs_count,torque_cmd_nm
2.0681169769995904,1,5874.25,-88.4,3.6,-123.3,0.33,3.62,-0.32,-0.16,-0.85,0.16,-178.9,-19.2,113.0,0.34,0.42,0.04,0.0,0.8796021828076598,3.64906837425664,0.0,0.35,0,0,0.0
2.076449934000266,2,5874.26,-88.3,3.6,-122.7,-0.19,2.39,0.46,-0.11,-0.9,0.1,-179.2,-17.3,24.0,0.35,0.52,-0.08,0.0,0.9121951545584969,2.4412701612070715,0.03194111231582031,0.35,0,0,0.0
2.0840799659999902,3,5874.27,-88.3,3.5,-122.5,-0.36,2.09,0.81,-0.09,-0.95,0.08,-179.4,-24.6,-53.0,0.35,0.8,0.05,0.0,0.957601169589929,2.270198229230214,0.07580018480030737,0.35,0,0,0.0
2.0924102869994385,4,5874.28,-88.4,3.4,-122.3,-0.11,2.04,0.98,-0.06,-0.98,0.05,-179.7,-34.3,-81.0,0.36,1.06,-0.07,0.0,0.9831073186585481,2.265855246921127,0.09928020719154784,0.35,0,0,0.0
2.104131027999756,5,5874.29,-88.4,3.4,-122.3,-0.11,2.04,0.98,-0.06,-0.98,0.05,-180.1,-45.0,-110.0,0.37,1.38,0.05,0.0,0.9831073186585481,2.265855246921127,0.09729460304771687,0.35,0,0,0.0
2.1124967169998854,6,5874.3,-88.3,3.3,-122.1,0.57,2.08,1.03,-0.02,-0.97,0.04,-180.6,-58.4,-133.0,0.39,1.78,0.01,0.0,0.9710303805751909,2.3900209204105307,0.08351331166507248,0.35,0,0,0.0
2.1238632209997377,7,5874.31,-88.2,3.1,-121.9,1.2,2.22,0.98,0.0,-0.94,0.01,-181.3,-72.4,-129.0,0.41,2.12,0.07,0.0,0.9400531899844816,2.707175650008695,0.051485398652875936,0.35,0,0,0.0
2.132531069999459,8,5874.32,-88.1,3.0,-121.7,1.39,2.35,0.8,0.0,-0.93,0.0,-182.1,-83.7,-113.0,0.43,2.39,0.0,0.0,0.93,2.8451010526868816,0.040603564495026445,0.35,0,0,0.0
2.143823462999535,9,5874.33,-87.9,2.9,-121.4,1.23,2.41,0.56,-0.01,-0.92,0.01,-183.0,-92.5,-99.0,0.46,2.64,0.09,0.0,0.9201086892318755,2.763077993832241,0.030098008652363895,0.35,0,0,0.0
2.1523566329997266,10,5874.34,-87.8,2.8,-121.2,1.03,2.26,0.32,-0.02,-0.93,0.03,-184.0,-100.8,-79.0,0.49,2.8,-0.08,0.0,0.9306986622962343,2.5041765113505874,0.03987422208238822,0.35,0,0,0.0
2.163958141999501,11,5874.35,-87.7,2.7,-121.0,0.7,1.98,0.28,-0.03,-0.9,0.02,-185.1,-106.0,-48.0,0.52,2.89,0.14,0.0,0.9007219326740079,2.118678833613061,0.009699542610958622,0.35,0,0,0.0
2.172271147000174,12,5874.36,-87.7,2.6,-120.8,0.2,1.67,0.28,-0.04,-0.91,0.01,-186.1,-108.6,-32.0,0.55,2.97,0.16,0.0,0.9109335870413386,1.705080643254154,0.01951297303872357,0.35,0,0,0.0
2.183695542999885,13,5874.37,-87.7,2.5,-120.7,-0.09,1.36,0.34,-0.05,-0.92,0.0,-187.2,-108.5,-3.0,0.57,2.93,-0.09,0.0,0.9213576938409967,1.404741969188648,0.029338338241614026,0.35,0,0,0.0
2.1924988419996225,14,5874.38,-87.7,2.4,-120.5,0.01,1.08,0.38,-0.05,-0.95,0.0,-188.3,-105.4,21.0,0.6,2.83,0.0,0.0,0.9513148795220223,1.1449454135459909,0.05810961344418675,0.35,0,0,0.0
2.2038391229998524,15,5874.39,-87.7,2.4,-120.4,0.29,0.85,0.39,-0.04,-0.94,-0.02,-189.3,-103.3,24.0,0.63,2.76,0.12,0.0,0.9410632284814873,0.9791322688993556,0.04690080315557865,0.35,0,0,0.0
2.2124786039994433,16,5874.4,-87.6,2.3,-120.4,0.62,0.69,0.38,-0.04,-0.94,-0.04,-190.3,-99.8,35.0,0.66,2.65,-0.04,0.0,0.9417005893594843,1.0024470060806208,0.04658740075290413,0.35,0,0,0.0
2.2236991150002723,17,5874.41,-87.6,2.3,-120.3,0.96,0.54,0.49,-0.06,-0.9,-0.04,-191.3,-96.4,29.0,0.68,2.58,0.02,0.0,0.902884267223657,1.2055289295574785,0.0076156570447353245,0.35,0,0,0.0
2.2324950629999876,18,5874.42,-87.5,2.2,-120.3,1.13,0.38,0.58,-0.06,-0.89,-0.04,-192.3,-92.9,38.0,0.71,2.47,-0.1,0.0,0.8929165694509202,1.325782787639061,0.0023049999134414634,0.35,0,0,0.0
2.243780490000063,19,5874.43,-87.3,2.2,-120.2,1.07,0.27,0.69,-0.07,-0.89,-0.06,-193.1,-86.6,62.0,0.73,2.25,-0.24,0.0,0.8947625383307015,1.3014991356124674,0.00044985041298695183,0.35,0,0,0.0
2.2523353420001513,20,5874.44,-87.2,2.1,-120.2,0.82,0.14,0.77,-0.08,-0.9,-0.07,-194.0,-80.2,57.0,0.75,2.11,0.06,0.0,0.9062560344626678,1.1335342959081565,0.010822772804599756,0.35,0,0,0.0
2.2639440319999267,21,5874.45,-87.2,2.0,-120.2,0.92,0.02,0.58,-0.09,-0.92,-0.08,-194.7,-74.8,55.0,0.77,1.96,0.13,0.0,0.9278469701410896,1.0877499712709717,0.03176543431336121,0.35,0,0,0.0
2.272252601999753,22,5874.46,-87.0,2.0,-120.2,1.66,-0.16,0.23,-0.12,-0.9,-0.09,-195.4,-68.8,61.0,0.79,1.8,-0.01,0.0,0.9124143795447329,1.683478541591784,0.016006186842664416,0.35,0,0,0.0
2.2836970309999742,23,5874.47,-86.8,2.0,-120.3,2.39,-0.44,-0.04,-0.14,-0.83,-0.09,-196.1,-62.6,60.0,0.81,1.63,0.06,0.0,0.8465222974027323,2.4304937769926505,0.0488881773933495,0.35,0,0,0.0
2.292467483999644,24,5874.48,-86.6,2.0,-120.3,2.47,-0.98,-0.25,-0.19,-0.79,-0.07,-196.7,-59.6,27.0,0.83,1.62,-0.05,0.0,0.8155366331440913,2.6690447729478053,0.07827636481895073,0.35,0,0,0.0
2.3038226749995374,25,5874.49,-86.4,2.0,-120.5,1.87,-1.53,-0.51,-0.14,-0.76,-0.07,-197.3,-59.9,1.0,0.84,1.66,0.25,0.0,0.7759510293826537,2.469392637876772,0.11550472920878052,0.35,0,0,0.0
2.312338947999706,26,5874.5,-86.2,2.1,-120.6,0.6,-1.94,-0.61,-0.15,-0.75,-0.08,-197.9,-63.6,-34.0,0.86,1.8,-0.03,0.0,0.7690253571892152,2.120306581605594,0.1199817933741747,0.35,0,0,0.0
2.3239619529995252,27,5874.51,-86.3,2.2,-120.9,-0.6,-2.5,-0.61,-0.12,-0.78,-0.07,-198.6,-70.5,-63.0,0.88,2.02,0.0,0.0,0.7922752047110903,2.64236636369751,0.09479730693525357,0.35,0,0,0.0
2.332455001999733,28,5874.52,-86.4,2.3,-121.1,-1.61,-2.98,-0.61,-0.07,-0.82,-0.09,-199.4,-80.6,-93.0,0.9,2.33,0.15,0.0,0.8278888814327681,3.4415984658295047,0.05799995760930421,0.35,0,0,0.0
2.3437478489995556,29,5874.53,-86.6,2.3,-121.4,-2.39,-3.29,-0.58,-0.03,-0.84,-0.12,-200.2,-93.9,-130.0,0.93,2.74,0.07,0.0,0.8490583018850942,4.107627052204228,0.03609392641383846,0.35,0,0,0.0
2.3524764969997705,30,5874.54,-86.9,2.4,-121.8,-2.94,-3.25,-0.56,0.0,-0.87,-0.13,-201.3,-109.1,-147.0,0.96,3.17,-0.06,0.0,0.8796590248499699,4.418110455839691,0.005383339379983476,0.35,0,0,0.0
2.363860253999519,31,5874.55,-87.2,2.5,-122.1,-3.16,-2.97,-0.49,0.03,-0.92,-0.09,-202.5,-126.1,-165.0,0.99,3.65,0.06,0.0,0.9248783703817492,4.364241056587045,0.039039286028759945,0.35,0,0,0.0
2.3721382490002725,32,5874.56,-87.6,2.5,-122.4,-3.1,-2.48,-0.37,0.06,-0.98,-0.1,-203.9,-143.5,-168.0,1.03,4.1,0.0,0.0,0.9869143833180262,3.987141833444103,0.09905379298573613,0.35,0,0,0.0
2.383900807999453,33,5874.57,-87.9,2.6,-122.6,-2.63,-1.83,-0.22,0.08,-1.02,-0.12,-205.4,-161.1,-176.0,1.08,4.6,0.18,0.0,1.030145620774073,3.2115728233997745,0.13943932983294716,0.35,0,0,0.0
2.39238024199949,34,5874.58,-88.1,2.6,-122.7,-1.7,-1.16,-0.08,0.07,-1.06,-0.18,-207.2,-176.1,-144.0,1.13,4.91,-0.01,0.0,1.0774506949276148,2.059611613872868,0.1830095159067593,0.35,0,0,0.0
2.4038422590001574,35,5874.59,-88.2,2.6,-122.8,-0.91,-0.6,-0.05,0.06,-1.09,-0.18,-209.0,-186.7,-111.0,1.18,5.18,-0.09,0.0,1.1063905277974861,1.091146186356347,0.20771036180109803,0.35,0,0,0.0
2.4120784489996367,36,5874.6,-88.3,2.6,-122.8,-0.64,-0.23,0.06,0.07,-1.08,-0.18,-210.9,-194.4,-77.0,1.23,5.34,0.03,0.0,1.0971326264403953,0.6827151675479314,0.19448341123512702,0.35,0,0,0.0
2.4240455700000894,37,5874.61,-88.4,2.6,-122.9,-0.57,-0.12,0.06,0.07,-1.17,-0.15,-212.9,-199.5,-65.0,1.28,5.51,0.0,0.0,1.1816513868311582,0.585576638878294,0.2734221281933721,0.35,0,0,0.0
2.4324444550002227,38,5874.62,-88.5,2.6,-122.9,-0.78,-0.36,0.0,0.05,-1.21,-0.05,-214.9,-207.2,-82.0,1.34,5.76,-0.14,0.0,1.212064354727091,0.8590692637965812,0.2977583941675188,0.35,0,0,0.0
2.4437817319994792,39,5874.63,-88.6,2.6,-122.9,-1.4,-0.82,0.23,0.06,-1.17,0.0,-217.1,-217.1,-96.0,1.4,6.03,0.16,0.0,1.1715374513859982,1.6386884999901596,0.2520868610098974,0.35,0,0,0.0
2.452457544999561,40,5874.64,-88.8,2.5,-123.0,-2.2,-1.26,0.69,0.07,-1.21,-0.02,-219.3,-228.9,-106.0,1.46,6.34,0.01,0.0,1.2121881042148532,2.6274892958868548,0.2868827635619774,0.35,0,0,0.0
2.463881427999695,41,5874.65,-89.1,2.5,-123.2,-2.77,-1.28,1.01,0.1,-1.38,0.01,-221.7,-239.1,-106.0,1.53,6.63,0.13,0.0,1.3836545811726277,3.2142495236057824,0.4491822557093569,0.35,1,1,3.0
2.472140822000256,42,5874.66,-89.3,2.4,-123.3,-1.74,-1.19,1.16,0.12,-1.45,0.11,-224.2,-252.6,-139.0,1.6,7.08,0.12,0.0,1.459109317357682,2.406096423670506,0.5141442520565228,0.35,0,1,3.0
2.483958953000183,43,5874.67,-89.4,2.3,-123.4,-0.45,-1.07,1.65,0.19,-1.45,0.16,-226.8,-260.7,94.0,1.67,6.28,2.75,3.49,1.4711220207719005,2.017399315951108,0.5156338163613265,0.35,0,1,3.0
2.4925262179995116,44,5874.68,-89.4,2.1,-123.5,-0.3,-1.22,2.28,0.23,-1.43,0.2,-228.7,-144.7,1001.0,1.7,2.12,3.09,3.49,1.4621217459568816,2.6032287644385,0.4965008707153815,0.35,0,1,3.0
2.5037430069996844,45,5874.69,-89.3,1.8,-123.6,1.1,-0.39,3.1,0.24,-1.42,0.15,-229.2,-26.2,1078.0,1.7,-0.68,3.36,3.49,1.447929556297543,3.3124160366717224,0.472662507434922,0.35,0,1,3.0
2.51250116600022,46,5874.7,-89.2,1.4,-123.6,2.17,-0.21,3.67,0.24,-1.34,0.22,-229.0,35.7,535.0,1.69,-0.95,3.68,3.49,1.378985134075056,4.268711749462594,0.39564372350818644,0.35,0,1,3.0
2.523860589999458,47,5874.71,-88.9,1.1,-123.7,2.64,-0.13,3.63,0.14,-1.2,0.15,-228.6,26.0,66.0,1.69,-0.38,3.78,3.49,1.2174152947946728,4.49036746825914,0.2293924065432471,0.35,0,1,3.0
2.532220989999587,48,5874.72,-88.7,0.7,-123.7,1.98,-0.16,2.96,-0.08,-1.09,0.24,-228.5,5.4,-99.0,1.68,0.06,3.62,3.49,1.1189727431890377,3.564772082475961,0.12833085783885978,0.35,0,1,3.0
2.543819345999509,49,5874.73,-88.5,0.5,-123.7,0.84,-0.88,2.01,-0.26,-1.06,0.32,-228.5,-1.1,-26.0,1.68,0.0,3.56,3.49,1.1373653766490346,2.3494893062110327,0.14378902147287953,0.35,0,1,3.0
2.5524826310002027,50,5874.74,-88.5,0.3,-123.9,0.16,-1.98,1.25,-0.34,-1.04,0.35,-228.5,-0.7,-14.0,1.69,0.02,3.47,3.49,1.148781963646714,2.347019386370722,0.15210149630114778,0.35,0,1,3.0
2.563685795999845,51,5874.75,-88.5,0.3,-124.1,0.24,-3.12,0.86,-0.34,-1.01,0.38,-228.6,-0.9,-7.0,1.69,0.03,3.75,3.49,1.1314150432091665,3.245242671973854,0.1320398843463283,0.35,0,1,3.0
2.57227880299979,52,5874.76,-88.4,0.2,-124.5,1.07,-4.31,1.02,-0.27,-0.97,0.39,-228.6,-0.5,1.0,1.69,0.0,3.41,3.49,1.0797684937059426,4.5564679303162,0.07878546814624232,0.35,0,1,3.0
2.583909812999991,53,5874.77,-88.3,0.1,-125.0,2.08,-5.2,1.4,-0.15,-0.97,0.33,-228.6,0.0,2.0,1.69,0.0,3.53,3.49,1.035519193448388,5.772902216389951,0.03384544453091398,0.35,0,1,3.0
2.5924349440001606,54,5874.78,-88.0,0.0,-125.6,2.82,-5.6,1.63,-0.02,-0.98,0.24,-228.6,1.0,10.0,1.69,-0.04,3.37,3.49,1.009158064923429,6.478371709002193,0.0073346296858358695,0.35,0,1,3.0
2.6038943869998548,55,5874.79,-87.7,-0.1,-126.1,3.06,-5.59,1.59,0.02,-1.0,0.23,-228.5,2.5,15.0,1.68,-0.09,3.55,3.49,1.0263040485158381,6.568089524359424,0.023991001012680035,0.35,0,1,3.0
2.6124287739994543,56,5874.8,-87.4,-0.2,-126.7,2.79,-5.51,1.15,0.01,-1.04,0.25,-228.5,8.9,70.0,1.68,-0.38,3.54,3.49,1.0696728471827264,6.282252780651221,0.06601260368597694,0.35,0,1,3.0
2.623964194999644,57,5874.81,-87.1,-0.3,-127.3,2.52,-5.51,0.72,0.06,-1.0,0.24,-228.3,24.9,157.0,1.67,-0.96,3.53,3.49,1.030145620774073,6.1015489836598045,0.025955669731777098,0.35,0,1,3.0
2.6324474249995546,58,5874.82,-86.9,-0.3,-127.8,2.17,-5.34,0.32,0.1,-1.0,0.19,-227.8,52.5,248.0,1.66,-1.79,3.6,3.49,1.0227903010881556,5.772945522001745,0.018228343044942585,0.35,0,1,3.0
2.643802304000019,59,5874.83,-86.7,-0.3,-128.3,1.69,-5.08,-0.12,0.12,-0.95,0.16,-227.1,87.4,374.0,1.63,-3.02,3.41,3.49,0.9708243919473799,5.355081698723185,0.03306281477391637,0.35,0,1,3.0
2.6524420589994406,60,5874.84,-86.6,-0.2,-128.8,1.19,-4.73,-0.46,0.13,-0.89,0.13,-225.9,139.8,474.0,1.59,-4.45,3.36,3.49,0.9087904048789248,4.899040722427198,0.09319486580552394,0.35,0,1,0.0
2.6638084309997794,61,5874.85,-86.5,-0.2,-129.2,0.77,-4.33,-0.72,0.12,-0.86,0.13,-224.1,194.9,552.0,1.54,-6.05,3.19,3.49,0.8780091115700337,4.456478430330388,0.12149663593212678,0.35,0,1,0.0
2.6722393889995146,62,5874.86,-86.4,0.0,-129.7,0.6,-4.1,-0.96,0.12,-0.82,0.12,-221.8,230.3,97.0,1.48,-5.49,0.31,0.0,0.8373768566183327,4.25342215163273,0.1588863130661512,0.35,0,1,0.0
2.6837012509995475,63,5874.87,-86.4,0.0,-130.1,0.45,-3.78,-1.12,0.12,-0.81,0.1,-220.0,153.3,-505.0,1.44,-3.25,0.22,0.0,0.8249242389456137,3.968034778073398,0.16791215212409283,0.35,0,1,0.0
2.6924097669998446,64,5874.88,-86.3,0.2,-130.4,0.0,-3.42,-1.38,0.05,-0.86,0.06,-218.9,93.2,-474.0,1.41,-2.06,0.1,0.0,0.8635392289873112,3.687926246551034,0.12671121884074743,0.35,0,1,0.0
2.70393589699961,65,5874.89,-86.3,0.4,-130.7,-0.24,-3.17,-1.68,0.03,-0.87,0.04,-218.2,63.9,-303.0,1.4,-1.54,0.0,0.0,0.8714355971613738,3.5956779611083083,0.1164385536533511,0.35,0,1,0.0
2.712427985999966,66,5874.9,-86.4,0.6,-131.0,-0.14,-2.93,-1.74,0.06,-0.84,0.0,-217.7,53.2,-131.0,1.38,-1.44,0.13,0.0,0.8421401308570919,3.410586459833558,0.14281933955848025,0.35,0,1,0.0
2.7239059940002335,67,5874.91,-86.4,0.8,-131.3,-0.01,-2.7,-1.61,0.1,-0.85,0.0,-217.1,55.7,-2.0,1.37,-1.63,-0.01,0.0,0.8558621384311844,3.143596666240757,0.12651538534469997,0.35,0,1,0.0
2.732401430000209,68,5874.92,-86.4,0.9,-131.5,0.2,-2.5,-1.37,0.14,-0.87,-0.01,-216.5,67.3,91.0,1.35,-2.02,-0.07,0.0,0.8812491134747313,2.857778857784486,0.09910584209512996,0.35,0,1,0.0
2.7439909639997495,69,5874.93,-86.4,1.1,-131.8,0.52,-2.28,-1.14,0.18,-0.88,-0.01,-215.7,84.7,155.0,1.32,-2.55,-0.08,0.0,0.8982761268117949,2.60161488310626,0.0804372521829051,0.35,0,1,0.0
2.7521609870000248,70,5874.94,-86.3,1.2,-132.0,0.81,-1.99,-0.94,0.2,-0.9,-0.02,-214.7,106.0,197.0,1.29,-3.15,-0.01,0.0,0.9221713506718803,2.345165239380799,0.055411187756363334,0.35,0,1,0.0
2.7639740439999514,71,5874.95,-86.2,1.3,-132.1,0.97,-1.63,-0.81,0.21,-0.92,-0.02,-213.5,129.5,229.0,1.26,-3.83,-0.14,0.0,0.9438749917229505,2.062498484847928,0.033033395771187246,0.35,0,1,0.0
2.772272831999544,72,5874.96,-86.1,1.4,-132.3,1.19,-1.23,-0.73,0.21,-0.91,-0.02,-212.0,154.0,236.0,1.22,-4.48,-0.06,0.0,0.9341306118525396,1.8606181768433845,0.04192222012876612,0.35,0,1,0.0
2.7836909679999735,73,5874.97,-86.0,1.5,-132.4,1.31,-0.83,-0.65,0.22,-0.88,-0.02,-210.3,178.3,236.0,1.17,-5.12,-0.11,0.0,0.9073036977771004,1.6815171720800237,0.06737415152012127,0.35,0,1,0.0
2.7924016899996786,74,5874.98,-85.8,1.5,-132.4,1.32,-0.48,-0.58,0.2,-0.87,-0.02,-208.4,202.7,246.0,1.11,-5.81,-0.13,0.0,0.8929165694509202,1.51960521188893,0.08012605424937536,0.35,0,1,0.0
2.804123249999975,75,5874.99,-85.7,1.6,-132.5,1.17,-0.1,-0.62,0.19,-0.87,-0.04,-206.2,225.9,227.0,1.05,-6.4,-0.25,0.0,0.8914033879226622,1.327893067984015,0.08000645106208082,0.35,0,1,0.0
2.815269065999928,76,5875.0,-85.6,1.6,-132.4,1.04,0.2,-0.71,0.17,-0.89,-0.05,-204.4,242.2,269.0,0.97,-7.14,-0.15,0.0,0.9074690077352504,1.2750294114254777,0.06266201462450272,0.35,0,1,0.0
2.824459489000219,77,5875.01,-85.4,1.8,-132.4,1.01,0.44,-0.55,0.15,-0.88,-0.06,-200.6,277.0,298.0,0.89,-7.87,-0.1,0.0,0.8947066558375432,1.2313407326974934,0.07391587919176579,0.35,0,1,0.0
2.8352957679999236,78,5875.02,-85.3,1.8,-132.3,1.15,0.51,-0.28,0.15,-0.88,-0.08,-197.6,302.7,256.0,0.81,-8.49,-0.08,0.0,0.8962700485902672,1.2887978895078933,0.07090543671026095,0.35,0,1,0.0
2.844325144999857,79,5875.03,-85.2,1.8,-132.3,1.24,0.6,0.01,0.14,-0.88,-0.08,-194.8,321.0,222.0,0.73,-8.97,-0.25,0.0,0.8946507698538017,1.3775703248836337,0.07107422113779194,0.35,0,1,0.0
2.855033077999906,80,5875.04,-85.0,1.8,-132.2,1.21,0.71,0.29,0.13,-0.86,-0.11,-191.4,342.7,226.0,0.63,-9.6,-0.02,0.0,0.8766983517721474,1.4325850760077043,0.08724610643505726,0.35,0,1,0.0
2.864482592999593,81,5875.05,-84.9,1.7,-132.1,0.97,0.92,0.58,0.12,-0.85,-0.13,-187.8,366.1,232.0,0.53,-10.24,0.07,0.0,0.8682165628459295,1.4572920091731787,0.09381333745404963,0.35,0,1,0.0
2.875232915000197,82,5875.06,-84.9,1.7,-132.0,0.64,1.16,0.81,0.1,-0.86,-0.14,-184.0,392.3,269.0,0.42,-11.04,0.03,0.0,0.8770404779712279,1.5528361149844498,0.08328963388217625,0.35,0,1,0.0
2.8843292479996308,83,5875.07,-84.8,1.6,-131.9,0.28,1.31,0.98,0.11,-0.86,-0.11,-179.8,421.6,254.0,0.31,-11.7,-0.49,0.0,0.8739565206576354,1.6597891432347665,0.08464611937185329,0.35,0,1,0.0
2.8952432309997675,84,5875.08,-84.8,1.4,-131.8,-0.11,1.35,1.04,0.11,-0.89,-0.1,-175.5,440.9,230.0,0.19,-12.3,0.08,0.0,0.9023303164584464,1.7076884961842427,0.055146877099621405,0.35,0,1,0.0
2.9044320610000796,85,5875.09,-84.8,1.3,-131.6,-0.36,1.38,1.0,0.09,-0.89,-0.09,-170.9,467.2,234.0,0.06,-12.93,0.14,0.0,0.8990550594930212,1.7418381095842403,0.0572536913837457,0.35,0,1,0.0
2.9152583439999944,86,5875.1,-84.9,1.2,-131.5,-0.6,1.37,0.98,0.08,-0.87,-0.08,-166.1,484.1,205.0,-0.06,-13.46,-0.06,0.0,0.8773254812211941,1.7880995498014087,0.07740360426246129,0.35,0,1,0.0
2.9244311200000084,87,5875.11,-84.9,1.1,-131.4,-0.78,1.33,0.93,0.09,-0.89,-0.07,-161.1,511.2,228.0,-0.2,-14.11,-0.09,0.0,0.8972736483370054,1.8006110074083186,0.056306328403717076,0.35,0,1,0.0
2.935184013000253,88,5875.12,-85.0,1.0,-131.3,-0.86,1.34,0.78,0.11,-0.91,-0.06,-155.9,521.8,123.0,-0.34,-14.27,0.05,0.0,0.9185858696931932,1.7730200224475752,0.03429422490657863,0.35,0,1,0.0
2.9444294140002967,89,5875.13,-85.1,0.9,-131.1,-0.92,1.32,0.6,0.13,-0.91,-0.04,-150.6,528.0,69.0,-0.49,-14.36,-0.05,0.0,0.9201086892318755,1.7172070346932544,0.032115977260538386,0.35,0,1,0.0
2.955212617000143,90,5875.14,-85.2,0.9,-131.0,-1.16,1.29,0.38,0.15,-0.93,-0.04,-145.3,528.6,-10.0,-0.63,-14.19,0.07,0.0,0.9428679653058535,1.7759786034747154,0.00916956716282924,0.35,0,1,0.0
2.964394249999714,91,5875.15,-85.3,0.8,-130.9,-1.26,1.25,0.26,0.23,-0.89,-0.05,-140.3,477.8,-541.0,-0.76,-11.8,0.66,0.0,0.9205976319760985,1.793794860066223,0.030811102482732555,0.35,0,1,0.0
2.9750752059999286,92,5875.16,-85.5,0.8,-130.8,-1.28,1.47,0.34,0.25,-0.9,-0.12,-136.2,371.6,-946.0,-0.86,-8.59,0.47,0.0,0.9417536832951597,1.9786106236447838,0.009461950140397857,0.35,0,1,0.0
2.984408092999729,93,5875.17,-85.6,0.8,-130.6,-1.46,1.76,0.18,0.15,-0.98,-0.13,-133.2,232.7,-1266.0,-0.92,-4.61,0.55,0.0,0.9998999949994999,2.2938177782901588,0.047710674332663405,0.35,0,1,0.0
2.9953163029995267,94,5875.18,-85.7,0.7,-130.4,-1.62,1.93,-0.02,0.07,-0.99,-0.16,-131.8,100.3,-1275.0,-0.94,-1.06,0.39,0.0,1.0052860289489753,2.5198611072834947,0.05203477411649604,0.35,0,1,0.0
3.0042428790002305,95,5875.19,-85.9,0.7,-130.2,-1.48,2.06,-0.02,0.08,-0.98,-0.2,-131.7,-14.9,-1093.0,-0.93,1.45,0.25,0.0,1.0033942395688744,2.5366119135571368,0.049140125041667204,0.35,0,1,0.0
3.015258931000062,96,5875.2,-86.0,0.7,-130.0,-1.32,2.13,0.1,0.12,-0.99,-0.17,-132.3,-82.6,-754.0,-0.91,2.94,0.23,0.0,1.011632344283238,2.5078476827750125,0.05623066516091013,0.35,0,1,0.0
3.0244437249994007,97,5875.21,-86.2,0.7,-129.8,-1.65,1.99,0.09,0.14,-1.1,-0.12,-133.5,-138.2,-619.0,-0.87,4.49,0.16,0.0,1.115347479487895,2.5866387455537736,0.1567468843582558,0.35,0,1,0.0
3.0351264270002503,98,5875.22,-86.4,0.7,-129.6,-2.43,1.71,-0.43,0.08,-1.24,-0.08,-135.3,-196.8,-616.0,-0.81,6.14,0.14,0.0,1.2451505933018705,3.0023157728660057,0.28081899820878664,0.35,0,1,0.0
3.044441227999414,99,5875.23,-86.7,0.8,-129.5,-3.18,1.12,-1.07,0.07,-1.27,-0.05,-137.8,-260.9,-647.0,-0.74,7.92,0.11,0.0,1.2729100518104175,3.537188148798421,0.30240688758298695,0.35,0,1,0.0
3.055012603999785,100,5875.24,-87.1,0.9,-129.4,-3.63,0.69,-1.52,0.04,-1.28,-0.06,-140.7,-327.5,-672.0,-0.65,9.85,0.18,0.0,1.2820296408429877,3.9954223806751648,0.3052959470832459,0.35,0,1,0.0
3.064212628999485,101,5875.25,-87.5,1.1,-129.3,-3.73,0.35,-1.7,-0.01,-1.25,-0.03,-144.6,-392.4,-592.0,-0.54,11.23,0.14,0.0,1.2503999360204718,4.114049100338984,0.26819291741551554,0.35,0,1,0.0
3.07531001299958,102,5875.26,-87.9,1.2,-129.3,-3.75,0.02,-1.71,-0.06,-1.26,0.0,-148.8,-426.0,-358.0,-0.42,11.8,0.04,0.0,1.2614277624977184,4.121528842553452,0.27363632901490686,0.35,0,1,0.0
3.0844490159997804,103,5875.27,-88.3,1.3,-129.3,-3.73,-0.18,-1.77,-0.11,-1.3,0.06,-153.1,-438.2,-158.0,-0.3,11.9,-0.05,0.0,1.306024502067247,4.132577887953233,0.3118684072127468,0.35,0,1,0.0
3.0951736990000427,104,5875.28,-88.7,1.5,-129.3,-3.77,-0.6,-1.97,-0.09,-1.39,0.19,-157.5,-431.1,28.0,-0.18,11.52,-0.32,0.0,1.4058093754133238,4.295788635396299,0.4034202149476471,0.35,0,2,0.0
3.104490820999672,105,5875.29,-89.1,1.7,-129.4,-4.04,-1.22,-2.57,-0.12,-1.57,0.29,-161.7,-411.3,180.0,-0.07,10.79,0.06,0.0,1.6010621474508728,4.94114359232759,0.5866995272454922,0.35,0,2,0.0
3.1152269579997665,106,5875.3,-89.5,2.0,-129.6,-4.3,-1.84,-3.41,-0.18,-1.63,0.34,-165.6,-372.0,357.0,0.02,9.54,-0.24,0.0,1.6747835681066374,5.788238073887425,0.6472125289432318,0.35,0,2,0.0
3.1243236700001944,107,5875.31,-89.9,2.4,-129.8,-3.52,-2.24,-3.7,-0.12,-1.48,0.32,-169.0,-331.6,360.0,0.11,8.59,-0.15,0.0,1.518947003683802,5.576558078241453,0.4815484452299885,0.35,0,2,0.0
3.1352387199995064,108,5875.32,-90.2,2.7,-130.0,-1.7,-2.25,-2.93,0.08,-1.2,0.19,-172.1,-294.1,399.0,0.18,7.43,-0.16,0.0,1.217579566188592,4.066620218313975,0.1765773875800829,0.35,0,2,0.0
3.1441612720000194,109,5875.33,-90.3,3.0,-130.2,-0.41,-1.14,-1.5,0.35,-1.02,0.01,-174.7,-248.1,435.0,0.25,6.2,-0.28,0.0,1.078424777163433,1.9281338127837497,0.036674146583825395,0.35,0,2,0.0
3.1548823339999217,110,5875.34,-90.3,3.0,-130.2,-0.28,0.85,-0.37,0.5,-0.96,-0.02,-176.9,-205.9,410.0,0.3,5.12,-0.08,0.0,1.0825894882179485,0.9684007434941384,0.04002208048557421,0.35,0,2,0.0
3.1649082969997835,111,5875.35,-90.3,3.1,-130.0,-0.72,3.03,-0.07,0.62,-0.96,0.03,-178.7,-168.1,390.0,0.35,4.09,-0.31,0.0,1.1431972708154967,3.1151564968713847,0.09861726582145991,0.35,0,2,0.0
3.174982094999905,112,5875.36,-90.4,3.1,-129.6,-0.6,4.67,-0.15,0.61,-0.89,0.01,-180.1,-130.9,384.0,0.38,3.07,-0.07,0.0,1.0790273397833812,4.710774883180048,0.03375838809355747,0.35,0,2,0.0
3.1841175859999566,113,5875.37,-90.4,3.1,-129.0,-0.73,6.2,-0.18,0.55,-0.93,0.16,-181.1,-92.9,370.0,0.41,2.09,-0.24,0.0,1.092245393673052,6.2454223235902955,0.04603691314356384,0.35,0,2,0.0
3.196406676999686,114,5875.38,-90.5,3.1,-128.4,-0.39,6.81,-0.52,0.44,-0.96,0.17,-181.8,-61.0,323.0,0.42,1.31,0.0,0.0,1.0696261028976433,6.840950226393991,0.022949269920791826,0.35,0,2,0.0
3.2044359869996697,115,5875.39,-90.4,3.2,-127.7,-0.12,7.22,-1.01,0.28,-0.99,0.16,-182.3,-36.9,252.0,0.43,0.74,-0.05,0.0,1.0412012293500235,7.291289323569598,0.005366091554291463,0.35,0,2,0.0
3.2165416679999908,116,5875.4,-90.4,3.4,-126.9,0.09,7.26,-1.58,0.1,-0.98,0.18,-182.5,-18.6,198.0,0.43,0.28,0.0,0.0,1.0013990213696036,7.430484506410063,0.04426493354401706,0.35,0,2,0.0
3.224339213999883,117,5875.41,-90.4,3.5,-126.2,0.04,6.89,-1.84,-0.06,-0.95,0.19,-182.6,-0.5,178.0,0.43,-0.15,0.0,0.0,0.9706698717895802,7.131570654491197,0.07349420146155972,0.35,0,2,0.0
3.2351829219996944,118,5875.42,-90.3,3.7,-125.6,-0.18,6.39,-1.85,-0.17,-0.98,0.21,-182.5,6.8,69.0,0.43,-0.16,0.05,0.0,1.0165628362280414,6.654847857013713,0.02704921228263646,0.35,0,2,0.0
3.244415637000202,119,5875.43,-90.3,3.9,-125.0,0.03,5.51,-1.5,-0.26,-0.97,0.25,-182.5,2.5,-15.0,0.43,0.01,-0.04,0.0,1.0348912986396204,5.710604171188895,0.008546334873636319,0.35,0,2,0.0
3.255086639000183,120,5875.44,-90.2,4.0,-124.5,0.64,4.46,-0.96,-0.27,-0.96,0.22,-182.5,-1.9,-19.0,0.43,0.06,0.05,0.0,1.0212247548899311,4.606821029734062,0.02176862105085897,0.35,0,2,0.0
3.264452651999818,121,5875.45,-90.1,4.1,-124.1,1.36,3.42,-0.2,-0.21,-0.91,0.17,-182.5,-1.5,4.0,0.43,0.01,-0.01,0.0,0.9492628719169417,3.6859191526673505,0.09185589394337146,0.35,0,2,0.0
3.275214223999683,122,5875.46,-89.9,4.1,-123.8,1.45,2.71,0.54,-0.15,-0.89,0.11,-182.5,-1.4,-6.0,0.43,0.06,0.05,0.0,0.9092304438369846,3.1206089149395186,0.12925055558286191,0.35,0,2,0.0
3.2842756589998316,123,5875.47,-89.8,4.0,-123.6,1.13,2.23,0.98,-0.09,-0.89,0.06,-182.5,-5.2,-35.0,0.44,0.19,0.13,0.0,0.8965489389877164,2.6851815581073843,0.1390934192234876,0.35,0,2,0.0
3.295194512999842,124,5875.48,-89.7,3.9,-123.3,0.86,2.02,1.19,-0.04,-0.89,0.03,-182.6,-12.8,-80.0,0.44,0.51,0.16,0.0,0.8914033879226622,2.497218452598811,0.1413541908827709,0.35,0,2,0.0
3.304485079999722,125,5875.49,-89.5,3.7,-123.1,0.87,1.98,1.16,0.0,-0.9,0.01,-182.9,-29.3,-163.0,0.45,1.09,0.17,0.0,0.9000555538409838,2.4541597340026584,0.1300479844651603,0.35,0,2,0.0
3.3149897160001274,126,5875.5,-89.4,3.6,-122.9,1.04,2.08,1.04,0.02,-0.89,0.0,-183.3,-52.4,-204.0,0.46,1.7,0.15,0.0,0.8902246907382427,2.5474693324945052,0.1370812706165434,0.35,0,2,0.0
3.324456542999542,127,5875.51,-89.3,3.5,-122.7,1.08,2.16,0.89,0.03,-0.87,0.01,-184.0,-74.2,-211.0,0.48,2.28,0.0,0.0,0.8705745229444749,2.5737326978534503,0.1535968096421051,0.35,0,2,0.0
3.3350999710000906,128,5875.52,-89.2,3.3,-122.5,0.92,2.19,0.82,0.02,-0.88,0.02,-184.9,-94.7,-195.0,0.51,2.77,0.08,0.0,0.8804544281222054,2.512946477742811,0.14084256637508707,0.35,0,2,0.0
3.3442793309995977,129,5875.53,-89.1,3.2,-122.3,0.83,2.16,0.75,0.01,-0.9,0.02,-186.0,-109.8,-160.0,0.54,3.15,0.01,0.0,0.9002777349240622,2.432488437793693,0.11859887438176575,0.35,0,2,0.0
3.354955812999833,130,5875.54,-89.0,3.1,-122.1,0.8,2.08,0.73,-0.02,-0.91,0.01,-187.1,-122.4,-127.0,0.57,3.44,0.05,0.0,0.910274683818022,2.3450586346614024,0.10642988697804978,0.35,0,2,0.0
3.364440155000011,131,5875.55,-88.9,3.0,-121.9,0.77,1.92,0.8,-0.04,-0.88,0.0,-188.4,-129.0,-68.0,0.61,3.54,-0.09,0.0,0.8809086218218096,2.2179495034828904,0.13308002999477697,0.35,0,2,0.0
3.375256155999523,132,5875.56,-88.8,2.8,-121.7,0.79,1.77,0.83,-0.05,-0.92,-0.01,-189.7,-132.0,-43.0,0.65,3.62,-0.02,0.0,0.9214119599831554,2.1085302938302783,0.0907251579967625,0.35,0,2,0.0
3.3844244450001497,133,5875.57,-88.7,2.8,-121.5,0.96,1.66,0.91,-0.05,-0.9,-0.03,-191.1,-131.9,-5.0,0.68,3.56,-0.11,0.0,0.9018869108707588,2.1225691979297165,0.10804520296697584,0.35,0,2,0.0
3.39524934200017,134,5875.58,-88.6,2.6,-121.4,1.16,1.47,0.98,-0.06,-0.91,-0.03,-192.4,-128.5,30.0,0.72,3.41,-0.04,0.0,0.9124691775616315,2.1135041991914756,0.09551367755058104,0.35,0,2,0.0
3.4043885740002224,135,5875.59,-88.5,2.5,-121.2,1.3,1.29,0.98,-0.07,-0.92,-0.07,-193.6,-120.6,67.0,0.75,3.16,-0.09,0.0,0.9253107586103169,2.0771374533236844,0.08101865457185786,0.35,0,2,0.0
3.415118123999491,136,5875.6,-88.3,2.5,-121.1,1.24,1.13,0.84,-0.09,-0.93,-0.08,-194.7,-111.8,79.0,0.78,2.94,0.1,0.0,0.9377632963600143,1.8761929538296427,0.0671947944857173,0.35,0,2,0.0
3.424444002999735,137,5875.61,-88.2,2.4,-121.0,1.11,0.93,0.58,-0.1,-0.95,-0.09,-195.8,-101.5,101.0,0.81,2.62,0.17,0.0,0.9594790253048786,1.5599358961188117,0.04456948423003593,0.35,0,2,0.0
3.434940925999399,138,5875.62,-88.1,2.3,-121.0,1.42,0.61,0.34,-0.12,-0.95,-0.09,-196.7,-89.2,117.0,0.83,2.26,-0.02,0.0,0.9617692030835672,1.5824348327814326,0.04143372032232051,0.35,0,2,0.0
3.4442349370001466,139,5875.63,-87.9,2.3,-120.9,2.16,0.27,-0.02,-0.13,-0.93,-0.09,-197.5,-76.2,120.0,0.85,1.94,-0.13,0.0,0.9433451118228154,2.1769014676829084,0.05866065535141074,0.35,0,2,0.0
3.4551622680000946,140,5875.64,-87.7,2.3,-120.9,2.89,-0.15,-0.32,-0.17,-0.88,-0.1,-198.2,-64.4,121.0,0.87,1.6,-0.07,0.0,0.9018314698434514,2.9115288080319592,0.09817081138415917,0.35,0,2,0.0
3.464419858999463,141,5875.65,-87.3,2.4,-120.9,3.17,-0.66,-0.65,-0.21,-0.84,-0.1,-198.8,-52.8,115.0,0.88,1.29,-0.15,0.0,0.8716077099245967,3.3025747531282317,0.12582667987695362,0.35,0,2,0.0
3.4752201209994382,142,5875.66,-87.0,2.5,-121.0,3.01,-1.24,-0.95,-0.21,-0.78,-0.04,-199.2,-44.5,81.0,0.89,1.13,0.03,0.0,0.8087644898238301,3.3911944798256553,0.18489650197816576,0.35,0,2,0.0
3.484415856999476,143,5875.67,-86.8,2.6,-121.2,2.16,-2.22,-0.97,-0.21,-0.72,-0.01,-199.6,-40.1,43.0,0.9,1.11,-0.09,0.0,0.750066663703967,3.245751068705054,0.23872244153606825,0.35,0,2,0.0
3.4951104330002636,144,5875.68,-86.7,2.7,-121.5,0.92,-2.89,-0.64,-0.15,-0.69,-0.03,-200.0,-42.4,-13.0,0.92,1.21,0.15,0.0,0.7067531393633848,3.099693533238407,0.2763952465591175,0.35,0,2,0.0
3.504529480999736,145,5875.69,-86.6,2.8,-121.8,-0.13,-3.35,-0.46,-0.07,-0.75,-0.09,-200.5,-50.6,-70.0,0.93,1.51,0.03,0.0,0.7586171630012071,3.3839326234427305,0.22004059846286939,0.35,0,2,0.0
3.5151271340000676,146,5875.7,-86.7,2.8,-122.1,-1.21,-3.48,-0.48,-0.01,-0.81,-0.13,-201.1,-61.3,-99.0,0.95,1.83,0.13,0.0,0.8204267182387469,3.7154945834975996,0.1550664223608229,0.35,0,2,0.0
3.5244749129997217,147,5875.71,-86.9,2.9,-122.5,-2.3,-3.3,-0.54,0.01,-0.83,-0.12,-201.8,-74.0,-110.0,0.97,2.13,0.03,0.0,0.8386894538504701,4.058521898425583,0.13406761301411774,0.35,0,2,0.0
3.5350505389997124,148,5875.72,-87.2,3.0,-122.8,-3.01,-2.97,-0.48,0.04,-0.89,-0.07,-202.6,-86.2,-135.0,0.99,2.57,0.02,0.0,0.8936442245099557,4.255749052752053,0.07753058550753944,0.35,0,2,0.0
3.544383005999407,149,5875.73,-87.6,3.0,-123.0,-2.97,-2.53,-0.37,0.08,-0.96,-0.06,-203.6,-103.5,-157.0,1.02,3.01,0.12,0.0,0.9651942809610923,3.9190177340757213,0.005860918475274812,0.35,0,2,0.0
3.5551648129994646,150,5875.74,-87.9,3.1,-123.3,-2.05,-1.89,-0.27,0.1,-1.02,-0.11,-204.8,-120.9,-173.0,1.05,3.5,0.37,0.0,1.0307764064044151,2.8013389655662877,0.05852678282868706,0.35,0,2,0.0
3.5643591010002638,151,5875.75,-88.0,3.1,-123.4,-0.72,-1.1,-0.22,0.1,-1.06,-0.18,-206.1,-138.6,-165.0,1.09,3.94,-0.03,0.0,1.0798147989354472,1.3329666162361307,0.10541387185252471,0.35,0,2,0.0
3.575190075000137,152,5875.76,-88.1,3.1,-123.5,0.08,-0.45,-0.17,0.05,-1.05,-0.19,-207.6,-152.5,-138.0,1.13,4.28,-0.14,0.0,1.0682228231974826,0.48764741360946434,0.09194545819226896,0.35,0,2,0.0
3.584425992999968,153,5875.77,-88.1,3.1,-123.5,-0.13,0.02,0.03,0.06,-1.06,-0.15,-209.2,-163.2,-109.0,1.18,4.53,0.04,0.0,1.072240644631605,0.13490737563232044,0.09404401403386353,0.35,0,2,0.0
3.5952240699998583,154,5875.78,-88.1,3.1,-123.5,-0.47,-0.16,0.2,0.07,-1.19,-0.05,-210.9,-171.9,-97.0,1.23,4.78,-0.02,0.0,1.1931051923447487,0.5352569476429054,0.21061039051206698,0.35,0,2,0.0
3.604439044999708,155,5875.79,-88.2,3.1,-123.5,-0.72,-0.61,0.25,0.07,-1.28,0.0,-212.7,-180.4,-84.0,1.28,4.99,0.24,0.0,1.28191263352851,0.9762171889492625,0.29342947506191175,0.35,0,2,0.0
3.615373915999953,156,5875.8,-88.3,3.1,-123.6,-1.09,-1.03,0.43,0.11,-1.26,-0.02,-214.5,-190.0,-105.0,1.33,5.32,-0.02,0.0,1.2649505919204909,1.5600961508830153,0.27093808478481474,0.35,0,2,0.0
3.6243684040000517,157,5875.81,-88.5,3.0,-123.8,-1.2,-1.25,0.81,0.14,-1.25,-0.05,-216.5,-203.3,-121.0,1.38,5.68,0.0,0.0,1.2588089608832629,1.9127467161127214,0.25950052467263507,0.35,0,2,0.0
3.6352058539996506,158,5875.82,-88.6,3.0,-123.9,-0.78,-1.39,1.04,0.11,-1.33,0.01,-218.6,-216.9,-131.0,1.44,6.05,0.16,0.0,1.3345785851721135,1.9031815467789719,0.32856474598225605,0.35,0,2,0.0
3.6445507649996216,159,5875.83,-88.7,2.9,-124.0,-0.37,-1.5,1.04,0.09,-1.35,0.14,-220.9,-228.7,-119.0,1.51,6.36,0.08,0.0,1.3602205703487946,1.8623909364040623,0.3471225965357585,0.35,0,2,0.0
3.6550720159993944,160,5875.84,-88.7,2.8,-124.2,-0.32,-1.37,1.16,0.14,-1.44,0.11,-223.3,-241.3,-132.0,1.57,6.73,0.05,0.0,1.4509651959988563,1.82343083225002,0.42910987774210385,0.35,1,3,3.0
3.6642224509996595,161,5875.85,-88.7,2.7,-124.3,-0.2,-0.95,1.4,0.19,-1.52,0.15,-225.8,-257.0,-153.0,1.64,7.2,0.04,0.0,1.5391556126655939,1.703672503740082,0.5069542885206646,0.35,0,3,3.0
3.675060513000062,162,5875.86,-88.7,2.5,-124.4,0.38,-0.75,1.88,0.24,-1.52,0.24,-228.4,-260.6,163.0,1.71,6.11,2.82,3.49,1.5574337867145427,2.059441671910132,0.5147278133182212,0.35,0,3,3.0
3.684394951000286,163,5875.87,-88.6,2.3,-124.5,1.79,-0.64,2.54,0.31,-1.45,0.22,-230.3,-137.0,1035.0,1.74,1.92,2.93,3.49,1.498999666444259,3.1725856962421046,0.4471678191869788,0.35,0,3,3.0
3.6950694959996326,164,5875.88,-88.3,2.0,-124.5,2.98,-0.32,2.86,0.26,-1.36,0.19,-230.7,-3.0,1094.0,1.74,-1.05,3.5,3.49,1.3976050944383398,4.142752708043289,0.33885778223743834,0.35,0,3,3.0
3.7044602409996514,165,5875.89,-88.0,1.8,-124.6,3.23,-0.31,2.56,0.1,-1.15,0.29,-230.3,49.8,494.0,1.73,-1.36,3.61,3.49,1.1902100654926422,4.13311020903145,0.12883349822590584,0.35,0,3,3.0
3.7152646889999232,166,5875.9,-87.7,1.5,-124.6,2.59,-0.78,2.07,-0.06,-1.04,0.36,-229.8,50.0,180.0,1.71,-1.4,3.5,3.49,1.1021796586763883,3.4060827940612364,0.039987029581459055,0.35,0,3,3.0
3.724224114000208,167,5875.91,-87.5,1.4,-124.8,1.88,-1.69,1.45,-0.2,-1.0,0.41,-229.3,48.2,-7.0,1.7,-1.06,3.29,3.49,1.099136024339117,2.9142752100651026,0.036204527339303905,0.35,0,3,3.0
3.735233141000208,168,5875.92,-87.3,1.3,-125.0,1.41,-2.81,0.85,-0.29,-0.95,0.42,-229.0,18.4,-235.0,1.7,-0.06,3.56,3.49,1.0784247771634328,3.2567929009993866,0.01518341456034733,0.35,0,3,3.0
3.744378217999838,169,5875.93,-87.2,1.2,-125.3,1.27,-3.83,0.76,-0.26,-0.87,0.41,-228.9,-2.6,-111.0,1.7,0.0,3.22,3.49,0.9962931295557548,4.10601997072591,0.06560926838638415,0.35,0,3,3.0
3.7550436840001566,170,5875.94,-87.1,1.1,-125.8,1.53,-4.65,1.04,-0.19,-0.9,0.37,-228.9,1.1,-36.0,1.7,0.0,3.32,3.49,0.991463564635635,5.004497976820453,0.06903005664037376,0.35,0,3,3.0
3.7644922729996324,171,5875.95,-86.9,1.1,-126.3,1.97,-5.08,1.14,-0.14,-0.97,0.31,-228.9,2.8,24.0,1.69,-0.18,3.42,3.49,1.0279105019407089,5.566587823792956,0.031931456948593784,0.35,0,3,3.0
3.7750319360002322,172,5875.96,-86.7,1.0,-126.8,2.11,-5.2,0.99,-0.05,-1.0,0.28,-228.8,13.0,85.0,1.69,-0.5,3.29,3.49,1.0396634070698074,5.6984383825746505,0.019774980783105356,0.35,0,3,3.0
3.7844164339994677,173,5875.97,-86.5,0.9,-127.3,2.1,-5.2,0.73,0.05,-0.99,0.23,-228.6,36.3,263.0,1.68,-1.54,3.19,3.49,1.0175952043912155,5.655342606774589,0.041006319792463275,0.35,0,3,3.0
3.7953597919995445,174,5875.98,-86.3,0.9,-127.8,1.82,-5.07,0.37,0.13,-1.0,0.22,-227.9,85.9,420.0,1.65,-2.91,3.45,3.49,1.0321337122679406,5.399462936255791,0.025938455677423367,0.35,0,3,3.0
3.8045676029996685,175,5875.99,-86.2,0.9,-128.3,1.49,-4.85,-0.1,0.18,-0.95,0.18,-226.7,134.9,478.0,1.62,-4.28,3.19,3.49,0.9835141076771599,5.074701961691938,0.07306689906284003,0.35,0,3,3.0
3.8151061219996336,176,5876.0,-86.2,0.9,-128.3,1.49,-4.85,-0.1,0.18,-0.95,0.18,-225.6,167.4,557.0,1.56,-5.59,3.32,3.49,0.9835141076771599,5.074701961691938,0.07160556108158334,0.35,0,3,3.0
3.8243749539997225,177,5876.01,-86.0,1.1,-129.2,0.71,-4.26,-0.67,0.2,-0.84,0.15,-222.8,232.1,528.0,1.5,-6.79,3.34,3.49,0.8764131445842194,4.3704233204576415,0.1751323936910334,0.35,0,3,3.0
3.835236404999705,178,5876.02,-85.9,1.2,-129.6,0.56,-3.91,-0.76,0.17,-0.8,0.15,-220.2,277.8,475.0,1.42,-8.04,3.46,3.49,0.8315046602394963,4.0223500593558486,0.21564006047504136,0.35,0,3,0.0
3.844523337999817,179,5876.03,-85.9,1.3,-130.0,0.58,-3.63,-0.77,0.15,-0.77,0.14,-217.1,321.4,432.0,1.33,-9.22,3.23,3.49,0.7968688725254613,3.7558221470138866,0.24527033122529485,0.35,0,3,0.0
3.854896846999509,180,5876.04,-85.8,1.4,-130.3,0.58,-3.38,-0.68,0.13,-0.75,0.12,-213.7,337.5,-52.0,1.24,-8.17,0.58,0.0,0.7705841939723393,3.496169332283549,0.2661239095828486,0.35,0,3,0.0
3.8645560180002576,181,5876.05,-85.8,1.5,-130.7,0.22,-3.24,-0.68,0.08,-0.79,0.11,-211.0,233.4,-760.0,1.18,-5.05,0.31,0.0,0.8016233529532433,3.3178908963376124,0.2303830555899058,0.35,0,3,0.0
3.875190359000044,182,5876.06,-85.7,1.6,-131.0,0.04,-3.19,-0.87,0.01,-0.81,0.12,-209.3,143.3,-752.0,1.15,-3.08,0.19,0.0,0.8189017035029297,3.3067506709759655,0.20884261093941492,0.35,0,3,0.0
3.8842673740000464,183,5876.07,-85.7,1.7,-131.3,0.0,-3.27,-1.01,0.03,-0.78,0.11,-208.3,86.9,-569.0,1.12,-1.84,0.25,0.0,0.7882892870006544,3.4224260401066373,0.23466592689285637,0.35,0,3,0.0
3.895159421000244,184,5876.08,-85.7,1.9,-131.6,0.02,-3.27,-0.9,0.09,-0.77,0.05,-207.7,53.1,-361.0,1.11,-1.21,0.14,0.0,0.7768526243760782,3.391651515117672,0.24118053772708403,0.35,0,3,0.0
3.9044060770002034,185,5876.09,-85.7,2.0,-131.9,-0.05,-3.17,-0.72,0.15,-0.78,0.03,-207.2,37.7,-199.0,1.1,-0.92,-0.08,0.0,0.7948584779695063,3.251122882943676,0.21871119045098286,0.35,0,3,0.0
3.9148965100002897,186,5876.1,-85.7,2.1,-132.2,-0.21,-2.96,-0.52,0.19,-0.81,0.02,-206.9,35.8,-49.0,1.09,-1.03,0.07,0.0,0.8322259308625273,3.012656634932033,0.17771686280680266,0.35,0,3,0.0
3.9243775919994732,187,5876.11,-85.8,2.1,-132.5,-0.27,-2.62,-0.34,0.2,-0.85,0.0,-206.5,45.5,64.0,1.08,-1.39,-0.14,0.0,0.873212459828649,2.6557296549159517,0.1339957271638672,0.35,0,3,0.0
3.9351990670002124,188,5876.12,-85.8,2.2,-132.7,-0.2,-2.24,-0.2,0.21,-0.87,-0.01,-205.9,62.5,147.0,1.06,-1.93,-0.07,0.0,0.8950418984606252,2.2577865266672137,0.10992296276125324,0.35,0,3,0.0
3.944291626999984,189,5876.13,-85.8,2.2,-132.9,-0.07,-1.81,-0.08,0.21,-0.88,-0.01,-205.1,81.2,171.0,1.04,-2.44,-0.02,0.0,0.9047651629014017,1.8131188598655081,0.0981957043540671,0.35,0,3,0.0
3.9549759699993956,190,5876.14,-85.8,2.2,-133.1,0.08,-1.37,-0.03,0.22,-0.88,-0.03,-204.2,101.1,192.0,1.01,-3.0,-0.24,0.0,0.9075791976461338,1.3726616480400404,0.09347403621714823,0.35,0,3,0.0
3.9643289280002136,191,5876.15,-85.8,2.2,-133.2,0.19,-0.85,0.0,0.23,-0.87,-0.05,-203.0,122.8,214.0,0.98,-3.61,0.11,0.0,0.9012768719988326,0.870976463516667,0.09778083462716047,0.35,0,3,0.0
3.9752314380002645,192,5876.16,-85.8,2.2,-133.3,0.05,-0.4,0.02,0.23,-0.86,-0.06,-201.7,145.1,224.0,0.94,-4.24,-0.16,0.0,0.8922443611477744,0.4036087214122114,0.10467707856865427,0.35,0,3,0.0
3.984434527999838,193,5876.17,-85.8,2.2,-133.3,-0.23,0.0,0.04,0.22,-0.86,-0.07,-200.0,169.1,231.0,0.89,-4.87,0.21,0.0,0.8904493247793498,0.23345235059857505,0.1043426726383373,0.35,0,3,0.0
3.9953114399995684,194,5876.18,-85.8,2.2,-133.3,-0.61,0.27,0.04,0.21,-0.89,-0.07,-198.2,191.6,227.0,0.84,-5.49,-0.22,0.0,0.9171150418568,0.6682813778641449,0.07612341644966936,0.35,0,3,0.0
4.0042903590001515,195,5876.19,-85.9,2.2,-133.2,-0.86,0.46,0.09,0.19,-0.9,-0.08,-196.1,214.0,222.0,0.78,-6.08,-0.07,0.0,0.9233092656309694,0.979438614717635,0.06853060882199002,0.35,0,3,0.0
4.015167001999544,196,5876.2,-86.0,2.2,-133.2,-0.91,0.6,0.18,0.16,-0.92,-0.09,-193.8,235.1,212.0,0.71,-6.63,0.09,0.0,0.9381364506296512,1.1047624178980746,0.05262935534684199,0.35,0,3,0.0
4.024517267999727,197,5876.21,-86.1,2.2,-133.1,-0.72,0.74,0.28,0.15,-0.94,-0.1,-191.3,257.1,221.0,0.64,-7.26,-0.14,0.0,0.9571311299921239,1.0697663296253064,0.03296198246468196,0.35,0,3,0.0
4.0349426829998265,198,5876.22,-86.1,2.1,-133.0,-0.38,0.86,0.41,0.13,-0.94,-0.1,-188.6,280.0,228.0,0.56,-7.9,-0.16,0.0,0.95420123663722,1.0257192598367255,0.0351740383031941,0.35,0,3,0.0
4.044346886999847,199,5876.23,-86.2,2.1,-132.9,-0.09,1.03,0.61,0.11,-0.93,-0.1,-185.6,303.4,238.0,0.48,-8.56,-0.26,0.0,0.9418067742376883,1.2004582458378135,0.04661713068867124,0.35,0,3,0.0
4.055141752000054,200,5876.24,-86.2,2.0,-132.8,0.1,1.24,0.84,0.09,-0.92,-0.1,-182.4,330.5,262.0,0.39,-9.31,-0.08,0.0,0.9297849213662265,1.5010662876768635,0.05746620388893042,0.35,0,3,0.0
4.064378608999505,201,5876.25,-86.1,1.9,-132.7,0.28,1.4,1.02,0.1,-0.9,-0.1,-178.9,354.1,220.0,0.29,-9.84,-0.12,0.0,0.9110433579144299,1.7546509624423883,0.07468361199391249,0.35,0,3,0.0
4.075311232999411,202,5876.26,-86.1,1.8,-132.6,0.56,1.57,1.14,0.11,-0.88,-0.11,-175.3,372.7,208.0,0.19,-10.39,-0.26,0.0,0.8936442245099556,2.019430612821347,0.09024109049041906,0.35,0,3,0.0
4.084515515999556,203,5876.27,-86.0,1.6,-132.4,0.87,1.81,1.21,0.14,-0.85,-0.12,-171.4,396.4,224.0,0.08,-11.02,-0.07,0.0,0.8697700845625813,2.3445895163119705,0.11183292582903748,0.35,0,3,0.0
4.09519514800013,204,5876.28,-85.9,1.5,-132.2,0.88,1.96,1.22,0.16,-0.83,-0.11,-167.7,410.1,167.0,-0.02,-11.39,0.07,0.0,0.8524083528450433,2.470708400439032,0.1266107643956439,0.35,0,3,0.0
4.104478825999649,205,5876.29,-85.8,1.4,-132.0,0.57,2.0,1.17,0.19,-0.8,-0.11,-163.5,431.9,234.0,-0.14,-12.12,-0.04,0.0,0.8295782060782456,2.3861684768683036,0.1464520929391928,0.35,0,3,0.0
4.114955725000073,206,5876.3,-85.8,1.2,-131.8,-0.05,1.97,1.01,0.2,-0.82,-0.12,-159.0,451.0,159.0,-0.26,-12.38,-0.28,0.0,0.8525256594378845,2.214384790410194,0.12103454678796288,0.35,0,3,0.0
4.123839543999566,207,5876.31,-85.9,1.2,-131.7,-0.98,1.84,0.64,0.18,-0.85,-0.13,-154.4,458.1,92.0,-0.39,-12.55,0.11,0.0,0.878521485223896,2.1807338214463496,0.09313794658191243,0.35,0,3,0.0
4.135196114999417,208,5876.32,-86.0,1.1,-131.5,-2.02,1.69,0.27,0.15,-0.87,-0.12,-149.9,454.9,-57.0,-0.51,-12.02,0.08,0.0,0.8909545442950498,2.647527148113877,0.0790907897605434,0.35,0,3,0.0
4.1444023379999635,209,5876.33,-86.3,1.1,-131.3,-3.02,1.47,0.09,0.13,-0.88,-0.12,-145.5,422.8,-317.0,-0.62,-10.58,0.39,0.0,0.8976079322287654,3.359970237963426,0.07098865379029118,0.35,0,3,0.0
4.154977475000123,210,5876.34,-86.6,1.0,-131.2,-3.7,1.31,0.16,0.1,-0.94,-0.16,-141.8,347.3,-705.0,-0.71,-7.98,0.52,0.0,0.9587491851365507,3.9283202517106472,0.009650452864855774,0.35,0,3,0.0
4.1644495649998134,211,5876.35,-87.0,1.0,-131.1,-3.82,1.21,0.27,0.02,-1.08,-0.17,-139.0,246.8,-919.0,-0.77,-5.14,0.43,0.0,1.0934806811279292,4.0161424277532785,0.12257942226399221,0.35,0,3,0.0
4.176514711999516,212,5876.36,-87.3,1.0,-131.0,-3.0,1.07,0.33,0.0,-1.15,-0.18,-137.2,140.9,-1023.0,-0.8,-2.15,0.23,0.0,1.16400171821179,3.202155524018157,0.18923845016089602,0.35,0,3,0.0
4.184440356999403,213,5876.37,-87.5,0.9,-130.9,-1.57,1.09,0.57,0.01,-1.17,-0.22,-136.6,30.0,-1052.0,-0.8,0.59,0.0,0.0,1.1905460931858118,1.9944673474389096,0.21146716863221937,0.35,0,3,0.0
4.195150888999706,214,5876.38,-87.6,0.9,-130.7,-0.11,1.22,0.93,0.1,-1.08,-0.23,-136.9,-48.3,-771.0,-0.79,2.15,0.22,0.0,1.1087380213558116,1.537985695642193,0.1270659148661747,0.35,0,3,0.0
4.204463127999588,215,5876.39,-87.6,0.7,-130.6,0.38,1.48,1.4,0.21,-1.07,-0.2,-137.8,-105.7,-649.0,-0.75,3.75,0.23,0.0,1.108602724153247,2.072389924700465,0.1243920053103379,0.35,0,3,0.0
4.215104013999735,216,5876.4,-87.6,0.6,-130.4,-0.19,1.82,1.22,0.19,-1.21,-0.2,-139.2,-164.4,-607.0,-0.71,5.34,0.24,0.0,1.2410479442793498,2.1992953416946985,0.2517004809277119,0.35,0,3,0.0
4.224319470999944,217,5876.41,-87.7,0.5,-130.3,-1.44,1.99,0.38,0.12,-1.26,-0.11,-141.3,-224.9,-618.0,-0.64,7.07,0.19,0.0,1.2704723531033646,2.4855784035109414,0.2755023919566921,0.35,0,3,0.0
4.235223883999424,218,5876.42,-87.9,0.5,-130.1,-2.6,1.98,-0.4,0.12,-1.27,-0.11,-144.0,-288.4,-623.0,-0.56,8.74,0.24,0.0,1.2803905654135381,3.2924762717444147,0.27971219218152843,0.35,0,3,0.0
4.244469462999405,219,5876.43,-88.2,0.6,-129.8,-3.29,2.08,-1.13,0.1,-1.28,-0.13,-147.3,-341.9,-513.0,-0.46,9.86,0.13,0.0,1.2904650324592295,4.053072908300566,0.2839909260426754,0.35,0,3,0.0
4.254896134999399,220,5876.44,-88.5,0.7,-129.6,-3.68,2.26,-1.47,0.07,-1.23,-0.05,-150.9,-375.9,-364.0,-0.36,10.57,0.18,0.0,1.2330044606569759,4.561896535433481,0.22199974715561344,0.35,0,3,0.0
4.26447878899944,221,5876.45,-88.9,0.9,-129.4,-3.72,2.24,-1.62,0.04,-1.26,0.03,-154.8,-390.4,-155.0,-0.25,10.57,0.04,0.0,1.2609916732476865,4.63469524348689,0.24498722055139743,0.35,0,3,0.0
4.2750824969998575,222,5876.46,-89.3,1.1,-129.2,-3.74,2.08,-1.89,0.02,-1.34,0.11,-158.7,-385.2,1.0,-0.15,10.31,0.16,0.0,1.3446560898608984,4.678258222885949,0.3220786044213171,0.35,0,3,0.0
4.284514148999733,223,5876.47,-89.6,1.3,-129.0,-3.87,1.73,-2.35,0.0,-1.45,0.26,-162.4,-369.8,140.0,-0.05,9.64,-0.11,0.0,1.4731259280862583,4.8468855979897025,0.4415374737937434,0.35,0,4,0.0
4.2949242069998945,224,5876.48,-90.0,1.5,-128.8,-4.19,1.16,-3.19,-0.05,-1.63,0.35,-165.9,-337.3,289.0,0.03,8.6,-0.29,0.0,1.6679028748701166,5.392383517518019,0.6235881321660497,0.35,0,4,0.0
4.304431552000096,225,5876.49,-90.4,1.9,-128.8,-4.32,0.58,-4.13,-0.14,-1.68,0.4,-169.1,-301.4,324.0,0.11,7.66,-0.01,0.0,1.7326280616450835,6.00463987263183,0.6745470525621964,0.35,0,4,0.0
4.315218488999562,226,5876.5,-90.8,2.3,-128.7,-2.91,0.08,-4.32,-0.1,-1.48,0.4,-171.8,-265.5,362.0,0.18,6.59,0.01,0.0,1.5363593329686906,5.209308975286454,0.4687127574080874,0.35,0,4,0.0
4.324434606999603,227,5876.51,-91.0,2.7,-128.7,-0.65,-0.11,-3.45,0.08,-1.17,0.23,-174.2,-224.3,395.0,0.24,5.49,-0.17,0.0,1.195073219514185,3.5124208176128326,0.1248781110745103,0.35,0,4,0.0
4.334992051999507,228,5876.52,-91.0,3.0,-128.7,0.42,0.9,-2.08,0.27,-0.96,0.05,-176.2,-184.5,392.0,0.29,4.44,-0.12,0.0,0.9984988733093292,2.304951192541829,0.07026231042773867,0.35,0,4,0.0
4.344456283999534,229,5876.53,-90.9,3.2,-128.5,0.12,2.54,-1.03,0.38,-0.87,0.08,-177.7,-147.2,371.0,0.32,3.5,-0.19,0.0,0.952732911156112,2.7435196372543063,0.11370770712933664,0.35,0,4,0.0
4.354933619999429,230,5876.54,-90.9,3.2,-128.2,-0.74,3.92,-0.2,0.45,-0.8,0.17,-179.0,-113.8,335.0,0.35,2.66,-0.08,0.0,0.9334880824091972,3.994245861235885,0.1302934851587264,0.35,0,4,0.0
4.364445578999948,231,5876.55,-91.0,3.2,-127.8,-1.24,4.86,0.29,0.52,-0.85,0.2,-179.9,-86.8,270.0,0.37,2.03,-0.35,0.0,1.016316879718132,5.024072053623435,0.046515394092795814,0.35,0,4,0.0
4.374934192999717,232,5876.56,-91.1,3.2,-127.2,-1.04,5.93,0.27,0.48,-0.97,0.15,-180.7,-68.2,190.0,0.39,1.67,-0.11,0.0,1.0926115503691145,6.0265578898737875,0.029183691027023118,0.35,0,4,0.0
4.3844304080002985,233,5876.57,-91.1,3.2,-126.6,0.0,6.6,-0.26,0.35,-1.0,0.14,-181.3,-56.7,131.0,0.41,1.39,0.03,0.0,1.0686907878334126,6.605119226781603,0.005157669921494801,0.35,0,4,0.0
4.394945719000134,234,5876.58,-91.0,3.3,-125.9,0.77,6.88,-0.86,0.2,-0.9,0.14,-181.8,-48.5,92.0,0.42,1.22,-0.13,0.0,0.9325234581499814,6.976166569112294,0.1283894665666977,0.35,0,4,0.0
4.40442649400029,235,5876.59,-90.9,3.4,-125.2,0.73,6.82,-1.22,0.06,-0.87,0.15,-182.2,-41.0,88.0,0.43,0.94,0.01,0.0,0.8848728722251575,6.9666132374346725,0.1725192514416911,0.35,0,4,0.0
4.414894489999824,236,5876.6,-90.8,3.5,-124.5,0.43,6.29,-1.32,-0.06,-0.9,0.18,-182.5,-30.0,109.0,0.44,0.62,0.0,0.0,0.9197825830053535,6.441381839326094,0.13485734984826514,0.35,0,4,0.0
4.424455610000223,237,5876.61,-90.7,3.7,-124.0,0.17,5.58,-1.32,-0.16,-0.93,0.19,-182.8,-18.2,109.0,0.44,0.36,0.13,0.0,0.9626006440887104,5.7365233373533835,0.09019850298961007,0.35,0,4,0.0
4.434992665999744,238,5876.62,-90.7,3.8,-123.4,0.12,4.61,-0.97,-0.23,-0.91,0.18,-182.9,-11.6,59.0,0.45,0.29,-0.12,0.0,0.9557196241576292,4.712472811592657,0.09513793246227731,0.35,0,4,0.0
4.444402074000209,239,5876.63,-90.6,3.9,-123.0,0.28,3.41,-0.38,-0.26,-0.9,0.16,-183.0,-10.7,24.0,0.45,0.28,0.08,0.0,0.9503683496413378,3.442513616530805,0.09847942283899735,0.35,0,4,0.0
4.455292030000237,240,5876.64,-90.6,3.9,-122.8,0.3,2.39,0.15,-0.25,-0.92,0.13,-183.1,-9.6,8.0,0.45,0.26,-0.15,0.0,0.9621850133939939,2.413420808727728,0.0849295039046144,0.35,0,4,0.0
4.464337104000151,241,5876.65,-90.5,3.9,-122.6,0.43,1.58,0.57,-0.2,-0.93,0.09,-183.2,-12.6,-29.0,0.45,0.45,0.14,0.0,0.9555103348473004,1.7338396696349982,0.08977209880228165,0.35,0,4,0.0
4.475172079000004,242,5876.66,-90.5,3.8,-122.4,0.51,1.04,0.79,-0.16,-0.94,0.04,-183.4,-23.6,-104.0,0.46,0.88,-0.08,0.0,0.9543584232352119,1.402069898400219,0.0891055302060827,0.35,0,4,0.0
4.484417224999561,243,5876.67,-90.4,3.7,-122.3,0.58,0.83,0.83,-0.11,-0.94,0.0,-183.7,-39.3,-142.0,0.47,1.33,0.0,0.0,0.9464142856064673,1.30927460832325,0.09510867447813076,0.35,0,4,0.0
4.494986486999551,244,5876.68,-90.3,3.6,-122.3,0.68,0.69,0.79,-0.05,-0.93,0.0,-184.3,-56.4,-163.0,0.49,1.83,0.15,0.0,0.9313431161500041,1.2500399993600206,0.10797624705590203,0.35,0,4,0.0
4.5044306749996395,245,5876.69,-90.3,3.5,-122.2,0.76,0.65,0.67,-0.01,-0.92,0.0,-184.9,-75.0,-168.0,0.51,2.26,0.06,0.0,0.9200543462209175,1.2037441588643327,0.11687971664528873,0.35,0,4,0.0
4.5149268819996,246,5876.7,-90.2,3.4,-122.1,0.87,0.6,0.55,0.02,-0.93,0.0,-185.8,-90.3,-161.0,0.54,2.67,0.0,0.0,0.9302150289046076,1.191385747774414,0.10458465328236666,0.35,0,4,0.0
4.524433529999442,247,5876.71,-90.1,3.3,-122.1,0.8,0.52,0.43,0.03,-0.93,0.0,-186.8,-103.8,-132.0,0.57,2.99,0.09,0.0,0.9304837451562494,1.0465658125507444,0.10222961829011024,0.35,0,4,0.0
4.534962998999617,248,5876.72,-90.0,3.3,-122.0,0.7,0.45,0.38,0.03,-0.92,0.0,-187.9,-114.1,-100.0,0.6,3.18,0.13,0.0,0.9204890004774636,0.9148223871331527,0.10997987570951817,0.35,0,4,0.0
4.5443766259995755,249,5876.73,-89.9,3.2,-122.0,0.74,0.36,0.34,0.03,-0.92,0.0,-189.1,-119.0,-57.0,0.63,3.28,-0.01,0.0,0.9204890004774636,0.8903931715820826,0.10778027819532776,0.35,0,4,0.0
4.554698207000001,250,5876.74,-89.9,3.2,-122.0,0.74,0.29,0.5,0.01,-0.9,-0.01,-190.3,-121.8,-29.0,0.66,3.31,0.0,0.0,0.9001111042532471,0.9389888178247917,0.12559501093115333,0.35,0,4,0.0
4.5644235379995735,251,5876.75,-89.8,3.1,-121.9,0.63,0.17,0.7,0.0,-0.9,-0.01,-191.5,-120.1,14.0,0.7,3.18,0.12,0.0,0.9000555538409838,0.9569743988216194,0.12313755011654837,0.35,0,4,0.0
4.57484408900018,252,5876.76,-89.8,3.0,-121.9,0.54,0.11,0.94,-0.01,-0.89,-0.01,-192.7,-114.7,43.0,0.73,3.02,0.06,0.0,0.8901123524589466,1.0896329657274508,0.13041913646861392,0.35,0,4,0.0
4.585081022999475,253,5876.77,-89.7,2.8,-121.9,0.57,-0.01,1.02,-0.01,-0.95,-0.02,-193.8,-107.8,60.0,0.76,2.82,0.11,0.0,0.9502631214563679,1.168503316212667,0.06886300012176871,0.35,0,4,0.0
4.595267077000244,254,5876.78,-89.7,2.7,-121.9,1.01,-0.1,0.73,0.0,-1.01,-0.05,-194.8,-100.0,75.0,0.78,2.6,0.0,0.0,1.011236866416568,1.2501999840025595,0.0077314700583372975,0.35,0,4,0.0
4.6043377309997595,255,5876.79,-89.6,2.6,-121.9,1.45,-0.09,0.58,0.0,-0.95,-0.08,-195.7,-90.9,89.0,0.81,2.31,-0.32,0.0,0.953362470417207,1.5642889758609182,0.06429374873654448,0.35,0,4,0.0
4.615050524000253,256,5876.8,-89.4,2.6,-122.0,1.43,-0.11,0.63,-0.01,-0.92,-0.1,-196.6,-80.9,91.0,0.83,2.05,-0.09,0.0,0.9254728521139883,1.566492898164559,0.09033969969896782,0.35,0,4,0.0
4.624428660999911,257,5876.81,-89.3,2.5,-122.0,1.54,-0.03,0.64,0.0,-0.93,-0.12,-197.3,-71.4,90.0,0.85,1.83,0.15,0.0,0.937709976485267,1.6679628293220445,0.07654052382113541,0.35,0,4,0.0
4.634863149000012,258,5876.82,-89.1,2.4,-122.0,2.16,-0.02,0.51,-0.01,-0.91,-0.11,-198.0,-64.1,79.0,0.86,1.61,-0.15,0.0,0.9166787877986488,2.219481921530338,0.09562027825759867,0.35,0,4,0.0
4.645067387999916,259,5876.83,-88.8,2.4,-122.0,3.14,-0.17,0.29,-0.03,-0.86,-0.09,-198.6,-57.2,64.0,0.88,1.48,-0.31,0.0,0.8652167358529306,3.1579423680618364,0.14414068359925047,0.35,0,4,0.0
4.6550561009999,260,5876.84,-88.5,2.4,-122.0,3.78,-0.48,0.06,-0.07,-0.78,-0.07,-199.1,-53.9,35.0,0.89,1.44,-0.06,0.0,0.7862569554541314,3.8108266819681003,0.21863845471808863,0.35,0,4,0.0
4.664406418999533,261,5876.85,-88.1,2.4,-122.1,3.61,-0.95,-0.05,-0.11,-0.71,-0.06,-199.7,-52.2,18.0,0.91,1.41,0.0,0.0,0.7209715667070373,3.7332425584202267,0.27824536659587906,0.35,0,4,0.0
4.675093629999537,262,5876.86,-87.8,2.4,-122.2,2.58,-1.39,-0.12,-0.11,-0.69,-0.05,-200.2,-52.7,1.0,0.92,1.46,-0.09,0.0,0.7004998215560087,2.93307006394324,0.29274276951196954,0.35,0,4,0.0
4.684273406999637,263,5876.87,-87.6,2.4,-122.4,1.11,-1.8,-0.18,-0.12,-0.68,-0.08,-200.7,-54.0,-3.0,0.94,1.46,0.0,0.0,0.6951258878793107,2.122380738698879,0.2921543691248941,0.35,0,4,0.0
4.695169767999687,264,5876.88,-87.6,2.4,-122.6,-0.6,-2.25,-0.12,-0.08,-0.73,-0.1,-201.3,-55.0,-24.0,0.95,1.58,0.0,0.0,0.7411477585475111,2.3317161062187655,0.24120984848755989,0.35,0,4,0.0
4.704463838000265,265,5876.89,-87.8,2.5,-122.8,-2.08,-2.53,-0.13,-0.04,-0.79,-0.14,-201.9,-61.5,-57.0,0.97,1.79,-0.11,0.0,0.8033056703397531,3.2778346511073435,0.17547089796141158,0.35,0,4,0.0
4.714980091000143,266,5876.9,-88.0,2.5,-123.1,-2.84,-2.56,-0.2,0.0,-0.87,-0.16,-202.5,-70.2,-83.0,0.99,2.06,0.09,0.0,0.8845903006477066,3.8287334720505157,0.09230254230038892,0.35,0,4,0.0
4.72442172799947,267,5876.91,-88.4,2.5,-123.3,-3.05,-2.38,-0.23,0.02,-0.9,-0.14,-203.3,-81.7,-105.0,1.01,2.4,0.0,0.0,0.9110433579144299,3.8755386722364156,0.06453249533299232,0.35,0,4,0.0
4.734865608000291,268,5876.92,-88.7,2.5,-123.5,-3.07,-2.03,-0.1,0.05,-0.95,-0.11,-204.2,-94.9,-139.0,1.04,2.84,0.05,0.0,0.957653381970742,3.6818202020196473,0.017564021851146583,0.35,0,4,0.0
4.745075648000238,269,5876.93,-89.0,2.5,-123.7,-2.99,-1.55,0.07,0.1,-1.01,-0.1,-205.3,-112.8,-170.0,1.07,3.35,0.07,0.0,1.0198529305738155,3.3686050525402944,0.04374281621688836,0.35,0,4,0.0
4.755063284999778,270,5876.94,-89.3,2.5,-123.8,-2.46,-0.84,0.16,0.15,-1.11,-0.11,-206.5,-130.6,-170.0,1.11,3.79,0.13,0.0,1.125477676366795,2.6043809245192993,0.14638021076967056,0.35,0,4,0.0
4.764415833999919,271,5876.95,-89.4,2.5,-123.9,-0.83,-0.28,0.07,0.17,-1.16,-0.18,-208.0,-146.4,-155.0,1.15,4.19,0.11,0.0,1.1861281549647154,0.8787491109526085,0.20289007558023897,0.35,0,4,0.0
4.775283764999585,272,5876.96,-89.4,2.5,-123.9,0.9,0.33,0.0,0.15,-1.12,-0.22,-209.5,-158.0,-111.0,1.19,4.41,0.21,0.0,1.1512167476196653,0.9585927185202274,0.1646190948704851,0.35,0,4,0.0
4.784529427999587,273,5876.97,-89.3,2.5,-123.8,1.5,0.81,-0.06,0.12,-1.08,-0.23,-211.1,-165.5,-82.0,1.24,4.58,-0.22,0.0,1.110720486891279,1.70578427709954,0.12164037745925682,0.35,0,4,0.0
4.795186710000053,274,5876.98,-89.1,2.5,-123.7,1.19,1.03,0.03,0.09,-1.09,-0.14,-212.8,-172.6,-78.0,1.28,4.82,0.02,0.0,1.1026332119068427,1.5741346829290053,0.11128204042532408,0.35,0,4,0.0
4.804472245999932,275,5876.99,-89.1,2.5,-123.6,0.12,0.55,0.25,0.05,-1.12,0.0,-214.6,-181.1,-86.0,1.33,5.05,0.06,0.0,1.1211155159036914,0.6159545437773798,0.1271690575337293,0.35,0,4,0.0
4.815112925999529,276,5877.0,-89.1,2.5,-123.6,0.12,0.55,0.25,0.05,-1.12,0.0,-216.0,-188.0,-109.0,1.39,5.34,0.11,0.0,1.1211155159036914,0.6159545437773798,0.12462567638305477,0.35,0,4,0.0
4.824426715999834,277,5877.01,-89.3,2.4,-123.7,-1.28,-0.41,1.26,0.05,-1.2,-0.11,-218.7,-202.7,-125.0,1.44,5.65,-0.04,0.0,1.2060679914499015,1.8423083346714795,0.20538658889067962,0.35,0,4,0.0
4.8352593569998135,278,5877.02,-89.5,2.2,-123.7,-1.09,-0.42,1.51,0.0,-1.26,-0.06,-220.8,-214.0,-120.0,1.5,5.97,0.06,0.0,1.2614277624977184,1.9090835497693652,0.25553143273972645,0.35,0,4,0.0
4.844460209999852,279,5877.03,-89.6,2.0,-123.7,-0.58,-0.34,1.69,-0.02,-1.31,0.05,-223.0,-227.3,-126.0,1.56,6.33,0.04,0.0,1.3111064030047295,1.8188182976867149,0.2991058717818027,0.35,0,4,0.0
4.854853988999821,280,5877.04,-89.6,1.8,-123.8,-0.42,-0.58,2.02,0.04,-1.33,0.11,-225.4,-242.1,-147.0,1.63,6.77,0.09,0.0,1.3351404420509478,2.143175214489007,0.3166771126114607,0.35,0,4,0.0
4.864462448000268,281,5877.05,-89.6,1.6,-123.8,-0.5,-0.55,2.41,0.08,-1.44,0.1,-227.9,-258.1,-155.0,1.7,7.21,0.08,0.0,1.445683229480096,2.5220229975160815,0.41867550203979675,0.35,1,5,3.0
4.875022301000172,282,5877.06,-89.6,1.4,-123.9,0.25,-0.49,2.52,0.07,-1.51,0.18,-230.6,-274.8,-158.0,1.78,7.65,-0.04,0.0,1.5223008901002457,2.5793410011086166,0.4853872994067474,0.35,0,5,3.0
4.884460557999773,283,5877.07,-89.5,1.1,-124.0,1.03,-0.56,2.65,0.09,-1.4,0.22,-233.4,-274.7,225.0,1.85,6.31,2.74,3.49,1.4200352108310552,2.8977577538503803,0.3754591877348057,0.35,0,5,3.0
4.8950713539998105,284,5877.08,-89.4,0.9,-124.0,1.04,-1.26,2.84,0.13,-1.22,0.22,-235.4,-144.4,1084.0,1.88,2.05,3.04,3.49,1.2464750298341318,3.276400463923786,0.19786102660312466,0.35,0,5,3.0
4.904402924999886,285,5877.09,-89.2,0.6,-124.2,1.02,-1.22,2.63,0.0,-1.21,0.19,-235.8,-8.9,1120.0,1.88,-0.93,3.34,3.49,1.2248265183282079,3.0733857551566803,0.17268826479525679,0.35,0,5,3.0
4.9149059249994025,286,5877.1,-89.1,0.3,-124.3,0.99,-2.01,2.19,-0.17,-1.14,0.36,-235.4,50.3,569.0,1.87,-1.54,3.48,3.49,1.2075181158061354,3.1330975088560518,0.15227226502772062,0.35,0,5,3.0
4.924463040999399,287,5877.11,-89.1,0.2,-124.6,0.84,-3.45,1.86,-0.23,-1.1,0.41,-234.9,60.3,259.0,1.85,-1.75,3.71,3.49,1.1962441222426132,4.008453567150305,0.13817830603491443,0.35,0,5,3.0
4.935098312000264,288,5877.12,-88.9,0.0,-125.0,1.23,-4.66,1.62,-0.26,-1.13,0.4,-234.3,54.9,-47.0,1.83,-1.11,3.56,3.49,1.226580612923586,5.084574711812189,0.16514450078156928,0.35,0,5,3.0
4.944461221999518,289,5877.13,-88.8,-0.1,-125.5,2.17,-5.64,1.46,-0.27,-1.07,0.43,-233.9,23.8,-201.0,1.83,-0.35,3.48,3.49,1.184356365288759,6.216920459520131,0.12046184808380755,0.35,0,5,3.0
4.954954568000176,290,5877.14,-88.5,-0.2,-126.2,3.15,-6.37,1.67,-0.21,-0.99,0.34,-233.8,5.2,-153.0,1.83,-0.03,3.65,3.49,1.06761416251378,7.299883560715198,0.0036452524026520106,0.35,0,5,3.0
4.9644467039997835,291,5877.15,-88.1,-0.4,-126.8,3.77,-6.62,1.78,-0.12,-0.98,0.28,-233.8,3.6,-8.0,1.83,-0.25,3.6,3.49,1.0262553288533998,7.823407186130606,0.03695930963257377,0.35,0,5,3.0
4.974899963999633,292,5877.16,-87.8,-0.5,-127.5,3.69,-6.46,1.61,-0.07,-1.0,0.26,-233.6,28.0,229.0,1.82,-1.28,3.38,3.49,1.035615758860399,7.611819756142417,0.027046902033063036,0.35,0,5,3.0
4.984371718999682,293,5877.17,-87.4,-0.6,-128.1,2.91,-6.2,1.07,0.0,-1.03,0.26,-233.1,69.0,331.0,1.8,-2.31,3.27,3.49,1.0623088063270492,6.932027120547063,0.0003467774750844921,0.35,0,5,3.0
4.995089103000282,294,5877.18,-87.2,-0.7,-128.7,2.22,-5.95,0.35,0.08,-1.04,0.22,-232.1,111.6,450.0,1.77,-3.73,3.21,3.49,1.0660206376989143,6.3602987351224325,0.0032977528188451455,0.35,0,5,3.0
5.004419086999405,295,5877.19,-87.0,-0.6,-129.3,1.72,-5.6,-0.24,0.14,-0.98,0.18,-230.6,169.5,543.0,1.72,-5.34,3.07,3.49,1.0061808982484213,5.863104979445618,0.05541114689901483,0.35,0,5,3.0
5.014924340000107,296,5877.2,-86.8,-0.5,-129.8,1.17,-5.1,-0.61,0.18,-0.9,0.15,-228.4,232.8,606.0,1.65,-7.09,2.98,3.49,0.93,5.2679217913708625,0.1289602042444874,0.35,0,5,3.0
5.0244497739995495,297,5877.21,-86.7,-0.5,-130.3,0.66,-4.57,-0.77,0.2,-0.85,0.13,-225.7,293.1,574.0,1.57,-8.59,3.31,3.49,0.8828363381737296,4.681175066155933,0.17260138874934272,0.35,0,5,3.0
5.034986310999557,298,5877.22,-86.7,-0.3,-130.7,0.23,-4.09,-1.0,0.2,-0.85,0.12,-222.4,345.7,537.0,1.47,-10.06,3.6,3.49,0.8814193099768123,4.216752304795718,0.1705380486073348,0.35,0,5,3.0
5.044304390999969,299,5877.23,-86.7,-0.2,-131.1,0.09,-3.71,-1.21,0.18,-0.83,0.11,-218.6,398.2,525.0,1.36,-11.4,2.79,3.49,0.8563877626402656,3.9033703385664036,0.1916582040250039,0.35,0,5,3.0
5.055146546999822,300,5877.24,-86.6,-0.1,-131.5,0.23,-3.4,-1.32,0.15,-0.81,0.09,-214.3,436.5,390.0,1.24,-12.26,3.64,3.49,0.828673639015988,3.6544903885494073,0.21498488109629588,0.35,0,5,0.0
5.064459022999472,301,5877.25,-86.6,0.0,-131.8,0.35,-3.16,-1.37,0.11,-0.8,0.07,-209.7,470.4,367.0,1.11,-13.19,3.15,3.49,0.8105553651663778,3.4619358746227524,0.22844109184698802,0.35,0,5,0.0
5.07496730099956,302,5877.26,-86.6,0.2,-132.1,0.58,-3.0,-1.38,0.1,-0.79,0.05,-204.9,474.8,-202.0,0.99,-11.62,0.53,0.0,0.7978721702127478,3.352730230722418,0.23630180106460563,0.35,0,5,0.0
5.084435896999821,303,5877.27,-86.5,0.4,-132.4,0.69,-2.8,-1.44,0.06,-0.85,0.03,-201.0,348.7,-942.0,0.9,-7.96,0.4,0.0,0.8526429498916882,3.2233057565176777,0.177900400957952,0.35,0,5,0.0
5.096408921999682,304,5877.28,-86.4,0.6,-132.6,0.77,-2.8,-1.72,0.01,-0.9,0.04,-198.5,246.4,-994.0,0.84,-5.29,0.1,0.0,0.9009439494219382,3.375099998518562,0.1270074133991479,0.35,0,5,0.0
5.104363342999932,305,5877.29,-86.4,0.8,-132.9,1.04,-2.8,-1.86,0.06,-0.84,0.01,-196.5,155.8,-788.0,0.8,-3.48,0.35,0.0,0.8421995013059553,3.51869293914658,0.18203682428482826,0.35,0,5,0.0
5.11497916099961,306,5877.3,-86.3,1.0,-133.2,1.42,-2.75,-1.73,0.12,-0.82,-0.01,-195.3,103.5,-556.0,0.77,-2.34,0.5,0.0,0.8287943049997387,3.5456734198174544,0.19153318017922405,0.35,0,5,0.0
5.124383616999694,307,5877.31,-86.1,1.2,-133.4,1.51,-2.63,-1.51,0.18,-0.82,-0.03,-194.5,71.8,-353.0,0.75,-1.71,0.03,0.0,0.8400595217006946,3.387786888220686,0.17666260420870283,0.35,0,5,0.0
5.134982533999391,308,5877.32,-86.0,1.3,-133.7,1.5,-2.41,-1.25,0.21,-0.82,-0.05,-193.9,57.4,-186.0,0.74,-1.46,0.13,0.0,0.847938677028003,3.1017092062280756,0.16540777990376665,0.35,0,5,0.0
5.144397097999899,309,5877.33,-85.8,1.5,-133.9,1.48,-2.13,-1.0,0.23,-0.84,-0.05,-193.3,56.5,-38.0,0.72,-1.62,-0.12,0.0,0.8723531395025754,2.7798021512330693,0.1381734510806103,0.35,0,5,0.0
5.1549780859995735,310,5877.34,-85.7,1.6,-134.1,1.44,-1.76,-0.8,0.24,-0.85,-0.06,-192.7,66.3,67.0,0.7,-1.96,0.1,0.0,0.8852683209061533,2.410643067731098,0.12275310428349184,0.35,0,5,0.0
5.164414242000021,311,5877.35,-85.5,1.6,-134.2,1.45,-1.35,-0.61,0.25,-0.85,-0.07,-192.0,80.0,129.0,0.68,-2.45,-0.13,0.0,0.8887631855561975,2.0729447653036974,0.11687307484077869,0.35,0,5,0.0
5.174873089999892,312,5877.36,-85.4,1.7,-134.3,1.31,-0.83,-0.43,0.25,-0.84,-0.09,-191.0,102.4,193.0,0.65,-3.06,0.0,0.0,0.8810221336606703,1.6093166251549134,0.12212184420157968,0.35,0,5,0.0
5.184359529000176,313,5877.37,-85.3,1.7,-134.4,1.12,-0.3,-0.29,0.25,-0.83,-0.1,-189.8,125.4,211.0,0.62,-3.66,-0.09,0.0,0.8725823743349392,1.1951987282456422,0.12795037145676447,0.35,0,5,0.0
5.194713437000246,314,5877.38,-85.2,1.8,-134.4,0.88,0.2,-0.24,0.22,-0.83,-0.11,-188.4,148.1,221.0,0.57,-4.31,-0.12,0.0,0.8656789243131658,0.9338094023943002,0.13215674504896713,0.35,0,5,0.0
5.204751553999813,315,5877.39,-85.1,1.8,-134.3,0.61,0.62,-0.19,0.2,-0.83,-0.1,-186.8,170.6,224.0,0.53,-4.92,-0.1,0.0,0.8595929269136642,0.8902808545621994,0.1354778875994994,0.35,0,5,0.0
5.215053709999665,316,5877.4,-85.1,1.8,-134.2,0.25,0.97,-0.09,0.17,-0.84,-0.1,-184.9,194.1,239.0,0.47,-5.59,-0.08,0.0,0.8628441342444184,1.0057335631269348,0.1295821466633703,0.35,0,5,0.0
5.2283581120000235,317,5877.41,-85.0,1.8,-134.1,-0.14,1.28,0.06,0.15,-0.85,-0.12,-182.8,219.2,247.0,0.41,-6.27,0.02,0.0,0.8714355971613736,1.2890306435457615,0.11857087007148681,0.35,0,5,0.0
5.236376021999604,318,5877.42,-85.1,1.8,-134.0,-0.31,1.56,0.3,0.14,-0.88,-0.13,-180.4,244.9,246.0,0.35,-6.95,0.04,0.0,0.900499861188218,1.6185487326614543,0.0877164739237496,0.35,0,5,0.0
5.244247044999611,319,5877.43,-85.1,1.7,-133.8,-0.24,1.85,0.52,0.13,-0.92,-0.14,-177.8,267.4,227.0,0.27,-7.52,-0.08,0.0,0.9396275858019495,1.936620768245554,0.04761697432381773,0.35,0,5,0.0
5.255149925000296,320,5877.44,-85.1,1.6,-133.6,0.04,2.03,0.73,0.13,-0.92,-0.12,-175.0,290.9,246.0,0.19,-8.24,-0.3,0.0,0.9368564457802486,2.1576375970027954,0.049380352058608246,0.35,0,5,0.0
5.26433404799991,321,5877.45,-85.1,1.5,-133.4,0.24,2.03,0.93,0.13,-0.92,-0.1,-171.9,318.1,263.0,0.1,-8.99,0.0,0.0,0.9345052166788584,2.2457515445836833,0.050696949536798486,0.35,0,5,0.0
5.275084471999435,322,5877.46,-85.0,1.4,-133.2,0.32,1.93,1.02,0.11,-0.91,-0.09,-168.5,340.4,213.0,0.01,-9.46,-0.15,0.0,0.9210320298447824,2.206286472786342,0.0628867336434571,0.35,0,5,0.0
5.284392726999613,323,5877.47,-85.0,1.3,-133.1,0.16,1.83,1.12,0.1,-0.88,-0.09,-165.0,362.1,247.0,-0.08,-10.21,-0.07,0.0,0.8902246907382427,2.1514878572745886,0.09182019129499686,0.35,0,5,0.0
5.295006438999735,324,5877.48,-85.0,1.1,-132.9,-0.22,1.66,1.22,0.11,-0.86,-0.07,-161.6,386.6,242.0,-0.19,-10.81,0.1,0.0,0.8698275691193054,2.071810802172824,0.10997296665565548,0.35,0,5,0.0
5.304223043000093,325,5877.49,-85.1,1.0,-132.8,-0.67,1.44,1.25,0.13,-0.87,-0.06,-157.1,406.5,182.0,-0.3,-11.23,-0.28,0.0,0.8817028978062849,2.0211382931407735,0.09613568520930249,0.35,0,5,0.0
5.315024362000258,326,5877.5,-85.1,0.9,-132.6,-1.0,1.23,1.14,0.13,-0.9,-0.04,-153.0,420.8,151.0,-0.41,-11.58,-0.06,0.0,0.9102197536858888,1.9525624189766635,0.06626645274310461,0.35,0,5,0.0
5.324248676000025,327,5877.51,-85.3,0.8,-132.5,-1.21,0.96,0.96,0.12,-0.9,-0.02,-148.7,427.6,77.0,-0.53,-11.68,0.16,0.0,0.9081850031794183,1.818598361376145,0.06693517918458358,0.35,0,5,0.0
5.335056902999895,328,5877.52,-85.4,0.7,-132.5,-1.54,0.75,0.77,0.1,-0.91,-0.03,-144.4,427.8,-11.0,-0.64,-11.47,0.09,0.0,0.9159694318043589,1.8780308836651223,0.05796773554845014,0.35,0,5,0.0
5.34437359399999,329,5877.53,-85.6,0.6,-132.4,-1.86,0.55,0.63,0.11,-0.9,-0.06,-140.3,393.2,-372.0,-0.75,-9.82,0.23,0.0,0.9086803618434813,2.0393626455341387,0.0639516693991411,0.35,0,5,0.0
5.354988213999604,330,5877.54,-85.7,0.5,-132.3,-1.75,0.56,0.7,0.12,-0.88,-0.12,-137.0,310.2,-767.0,-0.83,-7.11,0.6,0.0,0.8962142600963231,1.9662400667263396,0.07488941572337338,0.35,0,5,0.0
5.364450258999568,331,5877.55,-85.9,0.4,-132.3,-1.51,0.89,0.88,0.1,-0.92,-0.19,-134.6,193.9,-1080.0,-0.88,-3.69,0.6,0.0,0.9447221813845592,1.9612750954417384,0.02585386454643457,0.35,0,5,0.0
5.375130745999741,332,5877.56,-86.0,0.3,-132.2,-1.33,1.26,0.93,0.07,-0.93,-0.21,-133.6,62.5,-1255.0,-0.89,-0.03,0.47,0.0,0.9559811713627001,2.054604584828916,0.014302977076927847,0.35,0,5,0.0
5.38440995000019,333,5877.57,-86.2,0.2,-132.0,-1.2,1.68,1.09,0.16,-0.92,-0.23,-133.8,-48.5,-1004.0,-0.87,2.21,0.4,0.0,0.9617172141539321,2.3346305917639305,0.008395595599981931,0.35,0,5,0.0
5.3949379559999215,334,5877.58,-86.3,0.1,-131.8,-1.77,2.16,1.19,0.2,-1.04,-0.18,-134.8,-119.9,-804.0,-0.84,4.09,0.4,0.0,1.074243920159663,3.035555962257985,0.10204848819763401,0.35,0,5,0.0
5.404433077999784,335,5877.59,-86.5,0.0,-131.6,-3.12,2.28,0.52,0.14,-1.24,-0.12,-136.5,-186.9,-717.0,-0.78,5.92,0.23,0.0,1.2536347155371856,3.8991281076671487,0.27581049790365353,0.35,0,5,0.0
5.414999298000112,336,5877.6,-86.9,0.0,-131.4,-4.08,2.15,-0.27,0.11,-1.3,-0.06,-138.8,-256.1,-704.0,-0.71,7.82,0.36,0.0,1.306024502067247,4.61971860614908,0.3216362787450405,0.35,0,5,0.0
5.424421789000007,337,5877.61,-87.4,0.0,-131.2,-4.52,1.93,-0.91,0.07,-1.37,-0.05,-141.9,-326.6,-698.0,-0.62,9.7,-0.07,0.0,1.3726980731391736,4.998339724348476,0.38054365282062785,0.35,0,6,0.0
5.434991864999574,338,5877.62,-87.9,0.2,-131.0,-4.48,1.82,-1.4,0.01,-1.36,0.0,-145.5,-384.4,-539.0,-0.51,10.87,0.22,0.0,1.3600367642089681,5.034163286982257,0.3605246970126139,0.35,0,6,0.0
5.444358330999421,339,5877.63,-88.3,0.3,-130.8,-4.31,1.76,-1.68,-0.06,-1.38,0.08,-149.6,-409.4,-287.0,-0.4,11.26,-0.06,0.0,1.383618444514238,4.949353493134229,0.3764242497715262,0.35,0,6,0.0
5.455068412999935,340,5877.64,-88.7,0.5,-130.7,-4.19,1.54,-1.98,-0.11,-1.38,0.22,-153.3,-413.9,-99.0,-0.29,11.13,-0.3,0.0,1.4017489076150549,4.8834516481685375,0.3866636186148962,0.35,0,6,0.0
5.4644201999999495,341,5877.65,-89.1,0.7,-130.5,-4.17,1.04,-2.39,-0.08,-1.51,0.33,-157.8,-400.3,87.0,-0.18,10.63,-0.24,0.0,1.54770798279262,4.917580705997615,0.521970239916612,0.35,0,6,0.0
5.474777087999428,342,5877.66,-89.6,1.0,-130.4,-4.71,0.47,-3.42,-0.14,-1.72,0.38,-161.6,-376.8,225.0,-0.08,9.81,-0.06,0.0,1.7670314088889307,5.83964039988765,0.7264677926926644,0.35,0,6,0.0
5.484955553999498,343,5877.67,-90.1,1.4,-130.4,-4.94,-0.14,-4.57,-0.23,-1.75,0.47,-165.1,-335.1,380.0,0.0,8.52,-0.14,0.0,1.8265541327866526,6.731129177188625,0.7702707062585785,0.35,0,6,0.0
5.494956993999949,344,5877.68,-90.5,1.9,-130.5,-3.13,-0.96,-4.73,-0.14,-1.51,0.45,-168.2,-291.4,396.0,0.08,7.44,-0.25,0.0,1.5818343781824948,5.7525124945540105,0.5150399326213324,0.35,0,6,0.0
5.50432743500005,345,5877.69,-90.6,2.3,-130.6,-0.57,-1.11,-3.52,0.11,-1.18,0.2,-170.8,-251.9,397.0,0.14,6.37,-0.12,0.0,1.2018735374406078,3.734621801467988,0.1323775100418565,0.35,0,6,0.0
5.515158444000008,346,5877.7,-90.6,2.5,-130.7,0.5,0.14,-1.98,0.36,-1.02,0.03,-173.0,-209.2,417.0,0.2,5.18,-0.15,0.0,1.0820813278122858,2.046948949045872,0.012333594405263826,0.35,0,6,0.0
5.5243438859997696,347,5877.71,-90.6,2.7,-130.6,0.65,1.92,-0.92,0.53,-1.0,0.0,-174.8,-167.1,420.0,0.24,4.03,-0.15,0.0,1.1317685275708986,2.2260503138967906,0.06078037828059912,0.35,0,6,0.0
5.535150511000211,348,5877.72,-90.5,2.7,-130.3,0.27,3.9,-0.42,0.59,-0.91,0.07,-176.2,-125.8,406.0,0.28,2.95,-0.12,0.0,1.0867842472174503,3.9318316342386788,0.015480175968607846,0.35,0,6,0.0
5.544338239999888,349,5877.73,-90.5,2.8,-129.8,-0.1,5.27,-0.05,0.61,-0.87,0.16,-177.2,-89.1,374.0,0.3,1.99,-0.03,0.0,1.074523150053083,5.271185824840555,0.003154697228155756,0.35,0,6,0.0
5.554910863000259,350,5877.74,-90.5,2.8,-129.2,-0.4,6.49,0.0,0.56,-0.97,0.12,-177.9,-58.4,304.0,0.31,1.29,-0.17,0.0,1.1264546151532249,6.502314972377145,0.05398443908173167,0.35,0,6,0.0
5.564380468999843,351,5877.75,-90.5,2.8,-128.5,0.14,7.37,-0.55,0.4,-1.04,0.14,-178.3,-38.3,220.0,0.32,0.83,-0.03,0.0,1.1230316113093166,7.391819802998447,0.049550206533066854,0.35,0,6,0.0
5.574818928000241,352,5877.76,-90.4,2.9,-127.7,0.66,7.53,-1.01,0.22,-0.95,0.17,-178.6,-25.0,147.0,0.33,0.55,-0.15,0.0,0.9898484732523458,7.626047469036631,0.08196027289342589,0.35,0,6,0.0
5.585090538999793,353,5877.77,-90.3,3.0,-127.0,0.52,7.35,-1.16,0.07,-0.92,0.18,-178.8,-15.9,122.0,0.33,0.27,0.0,0.0,0.9400531899844817,7.459121932238404,0.12912044503806408,0.35,0,6,0.0
5.595239268999649,354,5877.78,-90.2,3.1,-126.3,0.29,6.89,-1.2,-0.08,-0.96,0.17,-178.9,-6.1,80.0,0.34,0.12,-0.14,0.0,0.9782126558167197,6.9997285661659765,0.08914175962170967,0.35,0,6,0.0
5.604324293999525,355,5877.79,-90.1,3.2,-125.6,0.33,6.27,-0.98,-0.2,-0.94,0.17,-178.9,-2.1,54.0,0.34,0.0,-0.14,0.0,0.9759610647971567,6.35469904873551,0.08956548362844707,0.35,0,6,0.0
5.615192252999805,356,5877.8,-90.0,3.3,-125.0,0.63,5.43,-0.63,-0.27,-0.92,0.17,-178.9,0.0,18.0,0.34,0.01,-0.08,0.0,0.973755616158387,5.502608472351999,0.08993551362187235,0.35,0,6,0.0
5.624399446000098,357,5877.81,-89.9,3.4,-124.6,0.99,4.48,-0.3,-0.28,-0.9,0.15,-178.9,-2.3,-15.0,0.34,0.11,0.19,0.0,0.9544108130150245,4.597879946236091,0.10709471042993013,0.35,0,6,0.0
5.634776641999451,358,5877.82,-89.8,3.4,-124.1,1.33,3.65,0.28,-0.25,-0.84,0.12,-179.0,-8.9,-60.0,0.34,0.35,0.16,0.0,0.8845903006477065,3.894842743937167,0.1733769183413032,0.35,0,6,0.0
5.645046855000146,359,5877.83,-89.6,3.3,-123.8,1.41,2.94,0.78,-0.22,-0.83,0.11,-179.1,-19.5,-109.0,0.35,0.73,0.25,0.0,0.8656789243131658,3.3526258365645276,0.18844252878232692,0.35,0,6,0.0
5.655113527999674,360,5877.84,-89.5,3.2,-123.6,1.15,2.41,1.1,-0.16,-0.83,0.07,-179.5,-36.9,-156.0,0.36,1.22,0.09,0.0,0.848174510345601,2.888009695274585,0.20182800389489397,0.35,0,6,0.0
5.664335841000138,361,5877.85,-89.4,3.1,-123.3,0.81,2.06,1.17,-0.1,-0.85,0.05,-180.0,-56.0,-190.0,0.37,1.79,0.17,0.0,0.8573214099741122,2.503717236430664,0.18882748218105516,0.35,0,6,0.0
5.674889525000253,362,5877.86,-89.3,3.0,-123.1,0.51,1.93,1.05,-0.04,-0.86,0.05,-180.7,-78.1,-214.0,0.39,2.41,0.03,0.0,0.8623804264940154,2.2555487137279924,0.18009309634792903,0.35,0,6,0.0
5.68441794499995,363,5877.87,-89.2,2.8,-123.0,0.35,1.9,0.86,0.01,-0.86,0.05,-181.6,-100.0,-215.0,0.42,2.98,0.0,0.0,0.8615103017375938,2.1147340258292533,0.17734395668226366,0.35,0,6,0.0
5.6948110610001095,364,5877.88,-89.2,2.8,-122.8,0.29,1.93,0.69,0.04,-0.89,0.04,-182.8,-120.3,-189.0,0.46,3.46,0.04,0.0,0.8917959407846618,2.0700483086150427,0.1441171512824917,0.35,0,6,0.0
5.704792225999881,365,5877.89,-89.1,2.7,-122.6,0.32,1.95,0.54,0.06,-0.91,0.04,-184.1,-135.4,-158.0,0.49,3.84,0.18,0.0,0.9128526715741156,2.048536062655476,0.12059921208317714,0.35,0,6,0.0
5.715070627999921,366,5877.9,-89.0,2.7,-122.4,0.41,1.98,0.48,0.05,-0.92,0.02,-185.5,-145.9,-107.0,0.53,4.05,0.0,0.0,0.9215747392371386,2.078196333362178,0.10963960153175101,0.35,0,6,0.0
5.724347725999905,367,5877.91,-89.0,2.6,-122.2,0.5,1.92,0.56,0.03,-0.92,0.01,-187.0,-151.7,-70.0,0.57,4.18,0.04,0.0,0.9205433178292046,2.0615528128088303,0.1084576024808912,0.35,0,6,0.0
5.734627162999459,368,5877.92,-88.9,2.5,-122.0,0.58,1.86,0.62,0.0,-0.92,0.0,-188.5,-153.7,-27.0,0.62,4.19,-0.08,0.0,0.92,2.04460265088354,0.10682090190389382,0.35,0,6,0.0
5.745039460999578,369,5877.93,-88.9,2.4,-121.8,0.65,1.75,0.67,-0.01,-0.93,-0.01,-190.1,-151.2,18.0,0.66,4.04,0.0,0.0,0.9301075206662938,1.9834061611278715,0.09477911361284808,0.35,0,6,0.0
5.755054403000031,370,5877.94,-88.8,2.3,-121.6,0.76,1.56,0.72,-0.03,-0.91,-0.02,-191.5,-144.2,62.0,0.7,3.8,-0.05,0.0,0.9107140056021978,1.8787229705307806,0.1118891761034051,0.35,0,6,0.0
5.764319158000035,371,5877.95,-88.7,2.2,-121.5,0.83,1.36,0.7,-0.05,-0.94,-0.03,-192.9,-132.6,110.0,0.73,3.43,0.0,0.0,0.9418067742376882,1.7402586014727812,0.07918047931855632,0.35,0,6,0.0
5.774998132000292,372,5877.96,-88.7,2.1,-121.4,0.9,1.11,0.63,-0.06,-0.91,-0.04,-194.1,-117.2,149.0,0.76,2.96,-0.18,0.0,0.9128526715741156,1.5617298101784445,0.10597189034248622,0.35,0,6,0.0
5.784372807999716,373,5877.97,-88.6,2.1,-121.3,0.77,0.95,0.56,-0.06,-0.91,-0.05,-195.2,-102.0,141.0,0.79,2.6,-0.05,0.0,0.9133454987024352,1.3449907062875937,0.10336948194988338,0.35,0,6,0.0
5.7949454139998124,374,5877.98,-88.5,2.0,-121.2,0.52,0.8,0.49,-0.05,-0.91,-0.08,-196.1,-86.4,157.0,0.81,2.14,-0.19,0.0,0.9148770409186143,1.0726136303441236,0.09980118093903012,0.35,0,6,0.0
5.804364370999792,375,5877.99,-88.5,2.0,-121.1,0.47,0.69,0.42,-0.04,-0.9,-0.1,-196.9,-71.0,151.0,0.83,1.75,-0.08,0.0,0.9064215354899728,0.9345587193964859,0.10609155264031822,0.35,0,6,0.0
5.81478654700004,376,5878.0,-88.5,2.0,-121.1,0.47,0.69,0.42,-0.04,-0.9,-0.1,-197.3,-62.3,153.0,0.85,1.46,-0.14,0.0,0.9064215354899728,0.9345587193964859,0.10396972158751183,0.35,0,6,0.0
5.824897632999637,377,5878.01,-88.3,2.0,-121.0,1.52,0.52,-0.26,-0.05,-0.94,-0.11,-198.0,-48.5,131.0,0.86,1.18,-0.07,0.0,0.9477341399358787,1.6273905493150684,0.0614039747987738,0.35,0,6,0.0
5.834923753999647,378,5878.02,-88.1,2.0,-120.9,2.48,0.33,-0.58,-0.09,-0.85,-0.1,-198.4,-39.4,100.0,0.87,0.96,0.0,0.0,0.8605811989580064,2.568209493012593,0.14558577746111323,0.35,0,6,0.0
5.8444300080000176,379,5878.03,-87.8,2.1,-120.9,2.89,-0.05,-0.83,-0.16,-0.8,-0.09,-198.7,-30.7,87.0,0.88,0.74,0.07,0.0,0.8207923001588161,3.0072412606906016,0.1816671827350974,0.35,0,6,0.0
5.85491787599949,380,5878.04,-87.5,2.2,-121.0,2.4,-0.46,-1.01,-0.17,-0.77,-0.1,-199.0,-25.2,52.0,0.88,0.67,0.13,0.0,0.7948584779695063,2.644182293261945,0.2034489848259191,0.35,0,6,0.0
5.864382523999666,381,5878.05,-87.4,2.3,-121.0,1.07,-0.79,-1.03,-0.18,-0.75,-0.07,-199.3,-25.0,13.0,0.89,0.69,-0.01,0.0,0.7744675590365293,1.6822306619485927,0.2193631056837182,0.35,0,6,0.0
5.875050034000196,382,5878.06,-87.3,2.4,-121.1,-0.46,-1.33,-0.91,-0.15,-0.8,-0.01,-199.5,-25.2,-9.0,0.9,0.75,-0.09,0.0,0.814002456998749,1.6758878244083046,0.17623164356706855,0.35,0,6,0.0
5.884323792999567,383,5878.07,-87.5,2.5,-121.3,-1.71,-1.99,-0.75,-0.08,-0.88,-0.03,-199.8,-32.6,-61.0,0.91,0.99,0.05,0.0,0.8841379982785492,2.728864232606672,0.10397418024152294,0.35,0,6,0.0
5.894618577000074,384,5878.08,-87.7,2.5,-121.5,-1.96,-2.4,-0.64,0.0,-0.92,-0.09,-200.2,-42.8,-88.0,0.92,1.28,0.04,0.0,0.9243916918709298,3.164048040090415,0.06244607691615944,0.35,0,6,0.0
5.904889026999626,385,5878.09,-87.9,2.6,-121.7,-1.67,-2.23,-0.49,0.05,-0.92,-0.17,-200.7,-54.9,-117.0,0.94,1.66,0.15,0.0,0.9369098142297368,2.8287629805270003,0.04892939546620534,0.35,0,6,0.0
5.914783053000065,386,5878.1,-88.0,2.7,-121.9,-1.61,-1.82,-0.24,0.08,-0.89,-0.12,-201.4,-70.1,-152.0,0.96,2.12,-0.1,0.0,0.90160967164289,2.4417411820256465,0.08254494729199113,0.35,0,6,0.0
5.925210493999657,387,5878.11,-88.2,2.7,-122.1,-1.87,-1.45,-0.02,0.13,-0.93,-0.09,-202.2,-89.5,-179.0,0.98,2.66,-0.04,0.0,0.9433451118228154,2.3663896551498023,0.03999331696982433,0.35,0,6,0.0
5.935122423999928,388,5878.12,-88.4,2.7,-122.2,-1.75,-0.89,0.11,0.15,-1.02,-0.1,-203.2,-109.6,-196.0,1.01,3.23,0.0,0.0,1.0358088626768938,1.9663926362758786,0.05142102520656888,0.35,0,6,0.0
5.944318902999839,389,5878.13,-88.6,2.7,-122.3,-1.28,-0.29,0.04,0.15,-1.05,-0.14,-204.5,-129.6,-200.0,1.05,3.76,0.09,0.0,1.0698598038995577,1.3130498848101697,0.08376252710064813,0.35,0,6,0.0
5.954886243999681,390,5878.14,-88.7,2.7,-122.3,-0.81,0.25,0.01,0.12,-1.02,-0.2,-205.9,-150.6,-204.0,1.09,4.33,0.14,0.0,1.0463269087622664,0.8477617589865681,0.059025039324089756,0.35,0,6,0.0
5.964369991999774,391,5878.15,-88.7,2.7,-122.2,-0.38,0.58,-0.05,0.04,-1.01,-0.23,-207.5,-170.0,-186.0,1.14,4.82,0.0,0.0,1.0366291525902598,0.695197813575388,0.04834073748904144,0.35,0,6,0.0
5.97473697300029,392,5878.16,-88.7,2.7,-122.2,-0.2,0.56,-0.19,-0.07,-1.03,-0.11,-209.3,-184.1,-142.0,1.19,5.14,0.01,0.0,1.0382196299434912,0.6242595614005444,0.04893259054542731,0.35,0,6,0.0
5.985428705999766,393,5878.17,-88.8,2.7,-122.1,-0.78,-0.15,-0.29,-0.13,-1.01,-0.03,-211.3,-194.1,-104.0,1.24,5.36,0.08,0.0,1.0187737727287642,0.8455767262643882,0.02889699866408635,0.35,0,6,0.0
5.994896766999773,394,5878.18,-88.9,2.7,-122.2,-1.84,-0.98,0.11,-0.16,-1.03,-0.05,-213.3,-202.6,-95.0,1.29,5.62,-0.16,0.0,1.0435516278555652,2.0876062847194152,0.0526013567150696,0.35,0,6,0.0
6.004250214999956,395,5878.19,-89.2,2.7,-122.3,-2.82,-1.49,0.67,-0.12,-1.07,-0.1,-215.4,-212.8,-112.0,1.35,5.95,-0.09,0.0,1.0813417591122614,3.2590489410255867,0.0885836582123305,0.35,0,6,0.0
6.0151049260002765,396,5878.2,-89.5,2.6,-122.5,-3.41,-1.83,1.44,-0.05,-1.12,-0.16,-217.6,-227.0,-135.0,1.42,6.36,-0.16,0.0,1.1324751652906127,4.129237217695298,0.13692272310286813,0.35,0,6,0.0
6.024410193999756,397,5878.21,-89.8,2.4,-122.7,-3.11,-1.76,1.9,-0.03,-1.21,-0.17,-219.9,-241.0,-126.0,1.48,6.69,-0.1,0.0,1.2222520198387892,4.0471842063340775,0.22216558609802384,0.35,0,6,0.0
6.034812451999642,398,5878.22,-90.1,2.2,-122.9,-1.98,-1.71,2.16,-0.02,-1.3,-0.01,-222.4,-252.9,-126.0,1.55,7.04,0.28,0.0,1.3001922934704697,3.392653828494738,0.2941037425351103,0.35,0,6,0.0
6.045110371000192,399,5878.23,-90.2,1.9,-123.0,-0.99,-1.78,2.4,0.06,-1.32,0.04,-225.1,-267.1,-145.0,1.62,7.46,0.07,0.0,1.3219682295728594,3.1477769933716715,0.30956208506475,0.35,0,6,0.0
6.0551242740002635,400,5878.24,-90.3,1.7,-123.2,-0.96,-1.61,2.75,0.18,-1.39,0.04,-227.8,-283.2,-152.0,1.7,7.88,-0.06,0.0,1.4021768789992224,3.328092546790128,0.38197531980129074,0.35,1,7,3.0
6.064350982000178,401,5878.25,-90.4,1.4,-123.4,-0.84,-1.38,2.85,0.2,-1.51,0.09,-230.8,-300.2,-168.0,1.78,8.38,-0.07,0.0,1.5258440287263966,3.276049450176233,0.4955296201378956,0.35,0,7,3.0
6.0747805080000035,402,5878.26,-90.5,1.1,-123.5,-0.62,-1.16,3.0,0.22,-1.48,0.17,-233.9,-303.1,187.0,1.86,7.18,2.85,3.49,1.5058884420832772,3.27566787083184,0.46606255282488074,0.35,0,7,3.0
6.085395938000147,403,5878.27,-90.5,0.8,-123.6,-0.03,-1.16,3.46,0.27,-1.39,0.21,-236.1,-173.9,1105.0,1.91,2.73,3.24,3.49,1.4314677781913219,3.6493972104992904,0.3838090511542669,0.35,0,7,3.0
6.094892129000073,404,5878.28,-90.5,0.5,-123.7,0.67,-1.26,3.59,0.2,-1.4,0.16,-236.8,-31.6,1164.0,1.91,-0.39,3.14,3.49,1.4232357499725756,3.8632369847059604,0.36806548247681015,0.35,0,7,3.0
6.1041669309997815,405,5878.29,-90.4,0.1,-123.8,1.43,-1.34,3.1,0.0,-1.27,0.22,-236.6,34.6,616.0,1.9,-1.12,3.44,3.49,1.2889142717807107,3.667492331280326,0.2290691241992464,0.35,0,7,3.0
6.114832541999931,406,5878.3,-90.2,-0.1,-124.0,1.53,-1.95,2.53,-0.17,-1.13,0.34,-236.2,44.6,242.0,1.89,-1.21,3.53,3.49,1.1922248110151037,3.541793331068316,0.12973207016496668,0.35,0,7,3.0
6.12523427799988,407,5878.31,-90.1,-0.3,-124.3,1.54,-3.12,1.91,-0.29,-1.09,0.39,-235.8,34.3,-50.0,1.88,-0.61,3.54,3.49,1.193440404879942,3.9691434844308664,0.12832871074920904,0.35,0,7,3.0
6.13511623300019,408,5878.32,-89.9,-0.4,-124.6,1.73,-4.28,1.43,-0.35,-1.04,0.41,-235.6,5.7,-191.0,1.88,0.09,3.15,3.49,1.1714094075087498,4.832825260652406,0.10417175911045651,0.35,0,7,3.0
6.144432422999671,409,5878.33,-89.7,-0.6,-125.1,2.11,-5.01,1.22,-0.34,-0.93,0.38,-235.6,-0.3,-44.0,1.88,-0.03,3.48,3.49,1.0606130302801302,5.571409157475332,0.006492125755799716,0.35,0,7,3.0
6.154907643000115,410,5878.34,-89.5,-0.7,-125.6,2.38,-5.56,1.4,-0.2,-0.9,0.29,-235.6,0.0,-20.0,1.88,0.0,3.49,3.49,0.9664884893261793,6.207898195041539,0.09860433337555563,0.35,0,7,3.0
6.164247011999578,411,5878.35,-89.2,-0.8,-126.2,2.68,-5.6,1.47,-0.05,-0.93,0.23,-235.6,0.9,9.0,1.88,-0.07,3.33,3.49,0.9593226777263217,6.379913792521024,0.10365474207590486,0.35,0,7,3.0
6.175143114999628,412,5878.36,-88.9,-1.0,-126.7,2.6,-5.19,1.33,0.03,-0.99,0.22,-235.6,12.9,133.0,1.87,-0.65,3.42,3.49,1.0145935146648632,5.955249784853697,0.04741622703461612,0.35,0,7,3.0
6.184397342999546,413,5878.37,-88.7,-1.1,-127.2,1.96,-4.82,0.77,0.08,-1.05,0.23,-235.2,41.8,270.0,1.86,-1.6,3.21,3.49,1.0778682665335315,5.259933459655169,0.015541354337371027,0.35,0,7,3.0
6.194953112999428,414,5878.38,-88.5,-1.1,-127.7,1.58,-4.44,0.15,0.15,-1.02,0.16,-234.5,89.7,434.0,1.83,-3.05,3.22,3.49,1.0433120338613948,4.71513520484832,0.01863458076807034,0.35,0,7,3.0
6.204215361000024,415,5878.39,-88.4,-1.1,-128.1,1.04,-3.95,-0.37,0.2,-1.0,0.14,-233.2,142.3,517.0,1.79,-4.58,3.14,3.49,1.0293687385966217,4.10134124403225,0.031926318512186525,0.35,0,7,3.0
6.214980779999678,416,5878.4,-88.3,-1.0,-128.5,0.62,-3.55,-0.7,0.23,-0.92,0.11,-231.4,200.6,561.0,1.74,-6.19,3.33,3.49,0.9546727187890099,3.671089756461969,0.10448989155340238,0.35,0,7,3.0
6.224319009000283,417,5878.41,-88.2,-0.9,-128.8,0.37,-3.17,-0.94,0.23,-0.88,0.11,-229.0,257.7,562.0,1.66,-7.69,3.39,3.49,0.9161877536837086,3.327070783737551,0.14011535952552956,0.35,0,7,3.0
6.23501695899995,418,5878.42,-88.2,-0.8,-129.1,0.23,-2.94,-1.15,0.21,-0.85,0.11,-226.1,309.5,520.0,1.58,-9.0,3.2,3.49,0.8824397996464121,3.1652803983217663,0.1703860472915696,0.35,0,7,3.0
6.244419281999399,419,5878.43,-88.2,-0.7,-129.4,0.21,-2.75,-1.32,0.15,-0.82,0.11,-222.6,357.0,479.0,1.48,-10.28,3.56,3.49,0.8408329203831162,3.0576134484267303,0.20775306802376825,0.35,0,7,0.0
6.254867095000009,420,5878.44,-88.2,-0.5,-129.7,0.17,-2.58,-1.39,0.1,-0.8,0.09,-218.7,405.5,484.0,1.37,-11.58,3.16,3.49,0.8112336284942828,2.9355408360300492,0.2326053127143496,0.35,0,7,0.0
6.264571615000023,421,5878.45,-88.1,-0.4,-129.9,0.23,-2.46,-1.4,0.06,-0.8,0.07,-214.5,426.9,5.0,1.25,-10.69,0.58,0.0,0.8052949770115297,2.839806331424733,0.23377308491316062,0.35,0,7,0.0
6.2751671420001,422,5878.46,-88.1,-0.2,-130.2,0.26,-2.3,-1.44,0.01,-0.87,0.05,-210.8,323.5,-768.0,1.17,-7.43,0.32,0.0,0.8714929718592113,2.7260227438522957,0.1642235882641696,0.35,0,7,0.0
6.284335387000283,423,5878.47,-88.0,0.0,-130.4,0.48,-2.28,-1.58,-0.03,-0.89,0.07,-208.3,225.8,-821.0,1.11,-5.19,0.16,0.0,0.8932524839036273,2.8151731740694035,0.13961479469535854,0.35,0,7,0.0
6.2949226829996405,424,5878.48,-87.9,0.0,-130.6,0.85,-2.3,-1.61,-0.01,-0.85,0.05,-206.5,158.5,-667.0,1.07,-3.65,0.24,0.0,0.8515280382935138,2.933359848365011,0.17771245549936276,0.35,0,7,0.0
6.304413629999544,425,5878.49,-87.8,0.2,-130.8,1.19,-2.24,-1.37,0.05,-0.83,0.01,-205.3,113.4,-468.0,1.04,-2.71,0.16,0.0,0.8315647900193947,2.8828111280484543,0.19372218969801225,0.35,0,7,0.0
6.314841268999771,426,5878.5,-87.7,0.3,-131.0,1.16,-2.1,-1.16,0.11,-0.84,-0.01,-204.3,89.5,-279.0,1.02,-2.26,0.01,0.0,0.8472307831990052,2.6648076853686833,0.17449507258803354,0.35,0,7,0.0
6.3246857610001825,427,5878.51,-87.6,0.4,-131.2,1.03,-1.9,-1.01,0.16,-0.85,-0.02,-203.5,80.2,-124.0,0.99,-2.16,0.0,0.0,0.8651589449343975,2.385581690070579,0.1534355726355885,0.35,0,7,0.0
6.334898310999961,428,5878.52,-87.5,0.5,-131.4,0.89,-1.6,-0.87,0.21,-0.86,-0.04,-202.7,83.0,0.0,0.97,-2.37,0.14,0.0,0.886171540955813,2.0270668464557358,0.12977451708188947,0.35,0,7,0.0
6.344365564999862,429,5878.53,-87.4,0.6,-131.5,0.82,-1.25,-0.85,0.24,-0.89,-0.05,-201.8,95.0,94.0,0.95,-2.76,-0.26,0.0,0.9231467922275417,1.7197092777559815,0.0909432804939575,0.35,0,7,0.0
6.354810480999731,430,5878.54,-87.3,0.7,-131.6,0.78,-0.82,-0.84,0.28,-0.88,-0.07,-200.7,112.2,155.0,0.91,-3.29,-0.08,0.0,0.9261209424259879,1.4093970341958293,0.08620974768960121,0.35,0,7,0.0
6.364902731999791,431,5878.55,-87.3,0.8,-131.7,0.69,-0.26,-0.84,0.28,-0.9,-0.09,-199.5,132.6,195.0,0.88,-3.88,-0.16,0.0,0.9468368391650169,1.1177208953938367,0.06418397393156072,0.35,0,7,0.0
6.374882867999986,432,5878.56,-87.2,0.9,-131.7,0.65,0.24,-0.89,0.26,-0.88,-0.1,-198.0,154.4,204.0,0.83,-4.45,0.01,0.0,0.9230384607371461,1.127918436767482,0.08622270531224296,0.35,0,7,0.0
6.3843991769999775,433,5878.57,-87.1,1.0,-131.6,0.4,0.71,-0.8,0.23,-0.85,-0.11,-196.3,175.4,205.0,0.79,-5.01,-0.16,0.0,0.8874119674649423,1.1419719786404567,0.11941221461275786,0.35,0,7,0.0
6.3948464969998895,434,5878.58,-87.1,1.1,-131.5,0.04,0.98,-0.66,0.18,-0.85,-0.11,-194.4,196.3,210.0,0.73,-5.59,-0.32,0.0,0.8757853618324526,1.182201336490532,0.12841804384034272,0.35,0,7,0.0
6.404340872999455,435,5878.59,-87.1,1.1,-131.4,-0.24,1.24,-0.49,0.15,-0.86,-0.12,-192.3,217.6,212.0,0.67,-6.17,-0.2,0.0,0.8811923740024081,1.3547324459095236,0.12055081103697951,0.35,0,7,0.0
6.415165003999391,436,5878.6,-87.2,1.1,-131.3,-0.28,1.4,-0.4,0.12,-0.89,-0.1,-189.9,239.4,221.0,0.61,-6.8,-0.07,0.0,0.9036038955205982,1.482700239428051,0.09617650372841369,0.35,0,7,0.0
6.424329039999975,437,5878.61,-87.2,1.2,-131.1,-0.14,1.47,-0.22,0.12,-0.9,-0.1,-187.4,262.5,225.0,0.53,-7.4,0.0,0.0,0.913454979733539,1.4929500996349476,0.08459891112516349,0.35,0,7,0.0
6.434808463999616,438,5878.62,-87.2,1.2,-131.0,0.1,1.5,0.01,0.11,-0.9,-0.1,-184.6,286.1,244.0,0.45,-8.11,-0.25,0.0,0.9121951545584969,1.503362896974646,0.0841415615742015,0.35,0,7,0.0
6.444931545000145,439,5878.63,-87.2,1.1,-130.8,0.35,1.61,0.28,0.11,-0.91,-0.14,-181.6,313.3,255.0,0.37,-8.81,0.0,0.0,0.9272540105062905,1.6712270940838652,0.06770105151387973,0.35,0,7,0.0
6.4550228850002895,440,5878.64,-87.1,1.1,-130.7,0.5,1.83,0.55,0.1,-0.89,-0.17,-178.3,334.8,214.0,0.28,-9.33,-1.08,0.0,0.9115920140062659,1.9751961927869344,0.08169578705362623,0.35,0,7,0.0
6.464364430999922,441,5878.65,-87.0,1.0,-130.5,0.45,2.0,0.79,0.1,-0.88,-0.16,-174.8,356.5,235.0,0.18,-10.01,-0.11,0.0,0.9,2.196952434623927,0.09142204503869422,0.35,0,7,0.0
6.47474864600008,442,5878.66,-87.0,0.9,-130.3,0.31,2.08,0.86,0.1,-0.9,-0.16,-171.0,381.1,224.0,0.07,-10.58,-0.12,0.0,0.9195651146058119,2.2720255280255985,0.07041979182422464,0.35,0,7,0.0
6.48486815599972,443,5878.67,-87.0,0.8,-130.1,0.28,2.11,0.83,0.08,-0.89,-0.16,-167.1,395.7,164.0,-0.02,-10.94,-0.18,0.0,0.9077995373429092,2.2846006215529227,0.08054166170538479,0.35,0,7,0.0
6.49490677599988,444,5878.68,-86.9,0.7,-129.9,0.26,2.17,0.81,0.08,-0.86,-0.16,-163.0,415.3,200.0,-0.14,-11.54,-0.08,0.0,0.8784076502399099,2.3307938561786194,0.10773487783221647,0.35,0,7,0.0
6.504286076999961,445,5878.69,-86.9,0.6,-129.6,0.0,2.09,0.77,0.08,-0.84,-0.13,-158.8,427.2,99.0,-0.25,-11.63,-0.23,0.0,0.8537564055396597,2.2273302404448243,0.12973840008181725,0.35,0,7,0.0
6.512524087999736,446,5878.7,-86.9,0.6,-129.5,-0.39,1.86,0.71,0.09,-0.85,-0.09,-154.5,423.7,-24.0,-0.37,-11.35,0.15,0.0,0.8594765849050222,2.0287434534706454,0.12153785630212566,0.35,0,7,0.0
6.525232938999579,447,5878.71,-87.0,0.5,-129.3,-0.72,1.53,0.58,0.13,-0.87,-0.06,-150.4,405.2,-141.0,-0.48,-10.76,0.2,0.0,0.8817028978062849,1.7876520914316634,0.09732531253284571,0.35,0,7,0.0
6.53489095399982,448,5878.72,-87.1,0.4,-129.1,-1.17,1.27,0.3,0.1,-0.94,-0.05,-146.5,374.4,-314.0,-0.58,-9.6,0.08,0.0,0.9466255859631092,1.7526551286548075,0.03175457188850095,0.35,0,7,0.0
6.544233251999685,449,5878.73,-87.2,0.4,-129.0,-1.52,1.05,0.12,0.11,-0.92,-0.09,-143.2,318.2,-538.0,-0.66,-7.77,0.19,0.0,0.9309135298189624,1.85129684275645,0.04651729547199479,0.35,0,7,0.0
6.554962061999504,450,5878.74,-87.4,0.4,-128.9,-1.78,0.9,-0.12,0.03,-1.02,-0.09,-140.5,244.1,-681.0,-0.73,-5.7,0.17,0.0,1.0244022647378324,1.998199189270179,0.046032010657937716,0.35,0,7,0.0
6.564316473999497,451,5878.75,-87.6,0.4,-128.9,-1.59,0.65,-0.31,0.0,-1.0,-0.12,-138.6,164.8,-769.0,-0.77,-3.47,0.4,0.0,1.0071742649611337,1.745479876710127,0.028227930663614287,0.35,0,7,0.0
6.574950747999537,452,5878.76,-87.7,0.4,-128.8,-0.97,0.55,-0.16,0.02,-0.98,-0.18,-137.5,77.4,-865.0,-0.78,-0.94,0.46,0.0,0.9965942002640793,1.1264990013311154,0.017294908647228713,0.35,0,7,0.0
6.584383866999815,453,5878.77,-87.8,0.4,-128.7,-0.4,0.61,0.18,0.09,-0.96,-0.22,-137.4,-13.7,-814.0,-0.78,1.15,0.24,0.0,0.9889893831583836,0.7513321502504734,0.009496289710702377,0.35,0,7,0.0
6.592485168999701,454,5878.78,-87.8,0.4,-128.7,-0.43,0.74,0.47,0.16,-1.01,-0.19,-138.0,-71.1,-618.0,-0.76,2.53,0.25,0.0,1.040096149401583,0.9764220398987314,0.059390994834823796,0.35,0,7,0.0
6.605085037999743,455,5878.79,-87.9,0.4,-128.6,-1.11,0.86,0.21,0.12,-1.22,-0.19,-139.0,-120.2,-530.0,-0.72,3.86,0.1,0.0,1.2405240827972668,1.4197887166758298,0.25462254966589737,0.35,0,7,0.0
6.61486955700002,456,5878.8,-88.0,0.4,-128.5,-1.83,0.71,-0.57,0.07,-1.31,-0.1,-140.6,-172.1,-542.0,-0.67,5.37,0.17,0.0,1.3156747318391426,2.043991193718799,0.32317773473361777,0.35,0,7,0.0
6.624257710000165,457,5878.81,-88.2,0.5,-128.5,-2.32,0.44,-1.33,0.07,-1.36,-0.09,-142.7,-230.4,-577.0,-0.61,7.0,0.22,0.0,1.3647710430691298,2.7101475974566402,0.3648285650443328,0.35,0,8,0.0
6.635071456999867,458,5878.82,-88.5,0.7,-128.4,-2.68,0.23,-1.98,0.04,-1.36,-0.07,-145.4,-286.9,-530.0,-0.53,8.35,0.08,0.0,1.3623876100434855,3.340014970026332,0.35519622937831485,0.35,0,8,0.0
6.644400299999688,459,5878.83,-88.9,0.9,-128.4,-3.07,-0.03,-2.4,0.0,-1.33,-0.02,-148.5,-323.4,-374.0,-0.44,9.1,0.13,0.0,1.3301503674397117,3.896896200824446,0.3164998070390501,0.35,0,8,0.0
6.654946982999718,460,5878.84,-89.2,1.1,-128.4,-3.32,-0.29,-2.68,-0.05,-1.33,0.05,-151.9,-341.0,-199.0,-0.35,9.35,0.0,0.0,1.331878372825387,4.276552349732199,0.3118632561762309,0.35,0,8,0.0
6.664365535999423,461,5878.85,-89.5,1.4,-128.5,-3.44,-0.75,-2.93,-0.06,-1.39,0.16,-155.4,-341.7,-38.0,-0.25,9.2,-0.2,0.0,1.4004642087536545,4.580502155877672,0.3728401102624086,0.35,0,8,0.0
6.674903140999959,462,5878.86,-89.9,1.7,-128.6,-3.65,-1.36,-3.41,-0.06,-1.56,0.22,-158.7,-331.5,72.0,-0.16,8.83,0.08,0.0,1.5765785740013087,5.176890958867108,0.5379753859998615,0.35,0,8,0.0
6.68439652699999,463,5878.87,-90.3,2.1,-128.7,-3.66,-2.04,-4.02,-0.09,-1.63,0.33,-161.9,-311.4,192.0,-0.08,8.1,-0.12,0.0,1.6655029270463622,5.8066858017289,0.6143617442640166,0.35,0,8,0.0
6.694781670999873,464,5878.88,-90.6,2.5,-129.0,-2.71,-2.63,-3.84,-0.03,-1.53,0.4,-164.8,-277.8,314.0,-0.01,7.04,-0.01,0.0,1.5817079376420922,5.385777566888555,0.5199554197625516,0.35,0,8,0.0
6.704901844000233,465,5878.89,-90.8,2.8,-129.3,-0.98,-2.81,-2.74,0.13,-1.34,0.3,-167.3,-241.0,335.0,0.05,6.13,-0.03,0.0,1.3793114224133722,4.045256481361843,0.311207726443155,0.35,0,8,0.0
6.714936096000201,466,5878.9,-90.8,3.0,-129.5,0.52,-2.06,-0.99,0.42,-1.12,0.18,-169.5,-210.8,297.0,0.1,5.4,-0.23,0.0,1.2096280420029952,2.3439496581624786,0.1386938591121225,0.35,0,8,0.0
6.724348158999419,467,5878.91,-90.7,3.0,-129.6,0.87,-0.34,0.51,0.6,-1.07,0.0,-171.4,-183.9,276.0,0.15,4.68,-0.34,0.0,1.2267436570041845,1.0642368157510809,0.1526932846310456,0.35,0,8,0.0
6.734859565000079,468,5878.92,-90.7,2.9,-129.5,0.58,1.92,0.87,0.69,-1.04,-0.05,-173.1,-160.2,240.0,0.2,4.08,-0.13,0.0,1.2490796611905903,2.186252501427957,0.17152870304110235,0.35,0,8,0.0
6.744455090999509,469,5878.93,-90.6,2.8,-129.2,0.0,4.27,0.87,0.59,-0.92,0.03,-174.6,-141.0,198.0,0.23,3.63,-0.16,0.0,1.0933434958877288,4.357728766226737,0.015476686983475929,0.35,0,8,0.0
6.754909002999739,470,5878.94,-90.6,2.8,-128.7,-0.35,6.02,0.74,0.48,-0.85,0.16,-175.9,-126.1,162.0,0.27,3.25,-0.09,0.0,0.9891915891272023,6.075401221318638,0.0869017153815097,0.35,0,8,0.0
6.764391783999599,471,5878.95,-90.6,2.7,-128.0,-0.4,7.01,0.55,0.38,-0.89,0.19,-176.9,-114.5,134.0,0.3,2.95,-0.01,0.0,0.9862048468751308,7.042911329840806,0.08809068848090962,0.35,0,8,0.0
6.775135181999758,472,5878.96,-90.6,2.7,-127.3,-0.1,7.7,0.04,0.24,-0.96,0.16,-178.1,-102.2,118.0,0.33,2.63,0.0,0.0,1.0023971268913334,7.70075320991395,0.07046044029541276,0.35,0,8,0.0
6.784348875999967,473,5878.97,-90.5,2.7,-126.5,0.52,7.9,-0.6,0.09,-0.92,0.19,-179.0,-88.8,133.0,0.35,2.24,-0.14,0.0,0.9437160589923221,7.939798486107819,0.12655867803053567,0.35,0,8,0.0
6.792515369000284,474,5878.98,-90.4,2.8,-125.7,0.68,7.62,-1.02,-0.03,-0.88,0.19,-179.8,-74.0,149.0,0.37,1.82,-0.27,0.0,0.9007774419910837,7.717979010077703,0.16610734913113867,0.35,0,8,0.0
6.804965192999589,475,5878.99,-90.3,2.9,-125.0,0.58,7.07,-1.15,-0.14,-0.88,0.2,-180.4,-55.8,176.0,0.38,1.27,0.0,0.0,0.9132360045464699,7.1863620838363,0.15057581084423732,0.35,0,8,0.0
6.815044424000007,476,5879.0,-90.3,2.9,-125.0,0.58,7.07,-1.15,-0.14,-0.88,0.2,-180.7,-43.8,212.0,0.39,0.74,-0.17,0.0,0.9132360045464699,7.1863620838363,0.14756429462735265,0.35,0,8,0.0
6.8242554099997506,477,5879.01,-90.1,3.1,-123.8,0.88,5.08,-0.72,-0.22,-0.89,0.19,-181.1,-18.2,191.0,0.4,0.37,0.15,0.0,0.9362691920596341,5.2056891954860305,0.12204048497190467,0.35,0,8,0.0
6.835154413000055,478,5879.02,-90.0,3.2,-123.3,1.27,3.99,-0.34,-0.2,-0.89,0.16,-181.2,-9.4,110.0,0.4,0.19,0.0,0.0,0.9261209424259879,4.201023684770178,0.12954495991343984,0.35,0,8,0.0
6.844330226999773,479,5879.03,-89.9,3.2,-123.0,1.21,2.94,0.0,-0.16,-0.88,0.11,-181.3,-8.7,17.0,0.4,0.3,-0.07,0.0,0.9011659114724657,3.1792609204027276,0.15140999104962272,0.35,0,8,0.0
6.854998326999521,480,5879.04,-89.8,3.2,-122.7,0.61,2.24,0.3,-0.12,-0.87,0.04,-181.4,-13.8,-27.0,0.41,0.44,0.0,0.0,0.8791473141629905,2.3408759044426084,0.16996001659191606,0.35,0,8,0.0
6.86425959799999,481,5879.05,-89.7,3.1,-122.5,0.1,1.82,0.48,-0.11,-0.91,0.02,-181.6,-21.2,-79.0,0.41,0.73,0.41,0.0,0.9168424073961675,1.884887264533346,0.1296196248915643,0.35,0,8,0.0
6.872488910999891,482,5879.06,-89.7,3.1,-122.4,0.19,1.5,0.55,-0.09,-0.96,0.02,-181.9,-34.6,-120.0,0.42,1.12,0.02,0.0,0.9644169222903546,1.6089126763127948,0.08040420779742974,0.35,0,8,0.0
6.884835949000262,483,5879.07,-89.6,3.0,-122.2,0.84,1.21,0.52,-0.08,-0.96,0.02,-182.4,-50.4,-148.0,0.44,1.57,-0.01,0.0,0.9635351576356723,1.5620819440733573,0.07966025300306967,0.35,0,8,0.0
6.89246291299969,484,5879.08,-89.5,2.9,-122.1,1.5,1.02,0.5,-0.05,-0.93,0.01,-183.0,-66.8,-164.0,0.46,2.04,0.19,0.0,0.931396800509858,1.8815950680207472,0.10956263792630627,0.35,0,8,0.0
6.904951032999634,485,5879.09,-89.3,2.8,-122.0,1.92,0.93,0.51,-0.02,-0.91,0.0,-183.8,-85.4,-177.0,0.48,2.54,-0.23,0.0,0.9102197536858888,2.1934903692517094,0.1281248910552698,0.35,0,8,0.0
6.914840311000262,486,5879.1,-89.1,2.7,-121.9,2.14,0.92,0.39,0.0,-0.91,0.01,-184.8,-104.6,-182.0,0.51,3.05,0.15,0.0,0.9100549433962765,2.361800160894228,0.12572390731798444,0.35,0,8,0.0
6.924864179999531,487,5879.11,-88.9,2.7,-121.8,2.27,0.84,0.24,0.0,-0.89,0.0,-185.9,-120.4,-162.0,0.54,3.45,0.02,0.0,0.89,2.4323034350179253,0.14286327369997565,0.35,0,8,0.0
6.932444938000117,488,5879.12,-88.7,2.6,-121.8,1.9,0.82,0.11,-0.01,-0.88,0.0,-187.2,-134.2,-140.0,0.58,3.79,0.06,0.0,0.880056816347672,2.0723175432351097,0.14975032820525758,0.35,0,8,0.0
6.944756340999447,489,5879.13,-88.5,2.6,-121.7,1.32,0.79,0.14,-0.01,-0.86,0.0,-188.6,-143.0,-94.0,0.62,3.97,-0.08,0.0,0.8600581375697808,1.5447006182429008,0.16635402684348588,0.35,0,8,0.0
6.954905628000233,490,5879.14,-88.5,2.5,-121.6,0.87,0.71,0.24,-0.02,-0.89,0.0,-190.1,-147.3,-51.0,0.66,4.02,0.18,0.0,0.8902246907382427,1.1483030958766942,0.13346372420152353,0.35,0,8,0.0
6.964250008999443,491,5879.15,-88.4,2.4,-121.5,0.81,0.6,0.34,-0.01,-0.92,0.0,-191.6,-147.1,-1.0,0.7,3.95,0.08,0.0,0.9200543462209175,1.0638138934982944,0.10156138734447173,0.35,0,8,0.0
6.972428891000163,492,5879.16,-88.3,2.4,-121.5,0.95,0.54,0.41,-0.02,-0.95,-0.01,-193.0,-143.3,27.0,0.74,3.83,-0.14,0.0,0.9502631214563679,1.1671332400373147,0.0699255598668409,0.35,0,8,0.0
6.9848777279994465,493,5879.17,-88.2,2.3,-121.4,1.15,0.52,0.51,-0.02,-0.94,-0.03,-194.4,-136.8,55.0,0.77,3.63,0.12,0.0,0.9406912352095134,1.3612494260788504,0.07790749719142154,0.35,0,8,0.0
6.994931301000179,494,5879.18,-88.1,2.2,-121.4,1.29,0.52,0.5,-0.03,-0.96,-0.05,-195.7,-129.2,73.0,0.81,3.41,-0.07,0.0,0.9617692030835672,1.4780054127099804,0.055692938731020325,0.35,0,8,0.0
7.004337149000094,495,5879.19,-88.0,2.2,-121.3,1.61,0.58,0.51,-0.01,-0.93,-0.08,-197.0,-118.7,99.0,0.84,3.08,0.01,0.0,0.9334880824091971,1.7856651421809187,0.08229457821728259,0.35,0,8,0.0
7.012492511999881,496,5879.2,-87.8,2.1,-121.3,2.05,0.65,0.42,-0.01,-0.91,-0.1,-198.1,-108.7,99.0,0.87,2.83,-0.2,0.0,0.9155326318597279,2.191209711552046,0.09824502819141667,0.35,0,8,0.0
7.025124646000222,497,5879.21,-87.6,2.1,-121.2,2.51,0.65,0.25,-0.04,-0.87,-0.12,-199.1,-96.5,118.0,0.9,2.47,0.0,0.0,0.8791473141629905,2.604822450763199,0.13193773897039096,0.35,0,8,0.0
7.032462303000102,498,5879.22,-87.3,2.0,-121.1,2.5,0.52,0.14,-0.06,-0.8,-0.1,-200.0,-85.0,106.0,0.92,2.2,-0.01,0.0,0.8084553172563096,2.5573423705088842,0.1985771411595305,0.35,0,8,0.0
7.044820393000009,499,5879.23,-87.1,2.1,-121.1,2.36,0.26,-0.39,-0.08,-0.82,-0.07,-200.8,-76.9,91.0,0.94,1.98,-0.16,0.0,0.8268615361715648,2.406096423670506,0.1765675037993899,0.35,0,8,0.0
7.0524361130001125,500,5879.24,-86.8,2.1,-121.1,2.1,-0.15,-0.71,-0.12,-0.73,-0.05,-201.5,-68.3,83.0,0.96,1.77,0.04,0.0,0.741484996476665,2.2218460792773205,0.2567051626244039,0.35,0,8,0.0
7.064823730000171,501,5879.25,-86.7,2.2,-121.1,1.35,-0.63,-0.84,-0.12,-0.69,-0.04,-202.1,-62.9,53.0,0.97,1.68,-0.16,0.0,0.7014983962918233,1.710263137648707,0.2907579275530606,0.35,0,8,0.0
7.074653797999417,502,5879.26,-86.6,2.3,-121.2,-0.11,-1.04,-0.79,-0.1,-0.64,-0.07,-202.7,-62.6,1.0,0.99,1.77,0.17,0.0,0.651536645170477,1.3106486943494813,0.33390528510091877,0.35,0,8,0.0
7.084849445000145,503,5879.27,-86.7,2.4,-121.3,-1.74,-1.31,-0.66,-0.06,-0.7,-0.11,-203.4,-68.0,-37.0,1.01,1.92,0.07,0.0,0.7111258679024409,2.2758075489812404,0.26882974112157576,0.35,0,8,0.0
7.09465817399996,504,5879.28,-87.0,2.4,-121.5,-2.73,-1.42,-0.58,-0.03,-0.75,-0.11,-204.1,-77.0,-93.0,1.03,2.27,0.0,0.0,0.7586171630012071,3.131405435263853,0.21691167710235337,0.35,0,8,0.0
7.1048750559994005,505,5879.29,-87.3,2.5,-121.6,-3.15,-1.37,-0.54,-0.02,-0.8,-0.12,-205.0,-91.7,-130.0,1.06,2.68,-0.08,0.0,0.8091971329657563,3.477211526496483,0.16300507299504796,0.35,0,8,0.0
7.114958850000221,506,5879.3,-87.6,2.5,-121.7,-3.35,-1.24,-0.4,0.0,-0.84,-0.09,-206.0,-107.9,-150.0,1.09,3.12,0.32,0.0,0.8448076704197234,3.5944540614674714,0.12484664483025931,0.35,0,8,0.0
7.124281945999428,507,5879.31,-88.0,2.6,-121.8,-3.57,-1.05,-0.19,0.01,-0.93,-0.04,-207.2,-125.5,-175.0,1.12,3.63,0.28,0.0,0.9309135298189624,3.7260568970427705,0.03796596972239996,0.35,0,8,0.0
7.134851617000095,508,5879.32,-88.4,2.6,-121.9,-3.68,-0.74,-0.03,0.05,-1.03,-0.05,-208.6,-144.2,-180.0,1.16,4.13,-0.06,0.0,1.0324243313676793,3.7537847567488467,0.06227393518979063,0.35,0,8,0.0
7.14436978699996,509,5879.33,-88.8,2.6,-122.0,-3.47,-0.23,0.0,0.06,-1.11,-0.09,-210.2,-161.1,-162.0,1.21,4.55,0.08,0.0,1.1152578177264665,3.4776141246550054,0.14220527311760622,0.35,0,8,0.0
7.154958164999698,510,5879.34,-89.1,2.6,-122.0,-2.84,0.14,-0.12,0.09,-1.16,-0.13,-211.9,-173.6,-133.0,1.25,4.86,0.0,0.0,1.1707262703125783,2.8459796204470615,0.19372025118964364,0.35,0,8,0.0
7.164245852000022,511,5879.35,-89.4,2.6,-122.0,-1.51,0.42,-0.19,0.07,-1.15,-0.16,-213.7,-183.1,-96.0,1.3,5.05,-0.27,0.0,1.1631852818876276,1.5787970103848057,0.18245567750939917,0.35,0,8,0.0
7.175144158999501,512,5879.36,-89.5,2.6,-121.9,-1.0,0.42,-0.11,0.04,-1.13,-0.12,-215.6,-190.5,-84.0,1.36,5.28,-0.1,0.0,1.1370576062803501,1.0901834707974616,0.15320144186407925,0.35,0,8,0.0
7.184404054999504,513,5879.37,-89.6,2.6,-121.9,-0.96,-0.03,0.19,0.02,-1.15,-0.1,-217.5,-196.5,-57.0,1.41,5.37,0.13,0.0,1.1545128842936314,0.979081201943945,0.16724358547981333,0.35,0,8,0.0
7.1950055349998365,514,5879.38,-89.8,2.6,-121.9,-1.25,-0.39,0.48,0.01,-1.16,-0.15,-219.5,-199.5,-37.0,1.46,5.45,0.02,0.0,1.169700816448377,1.3946325680981353,0.17878288728186786,0.35,0,8,0.0
7.2040605510001114,515,5879.39,-89.9,2.5,-122.0,-1.64,-0.64,0.92,0.01,-1.14,-0.13,-221.5,-202.8,-44.0,1.52,5.59,0.17,0.0,1.1474319151914851,1.9863534428696217,0.1533837063044764,0.35,0,8,0.0
7.214363319999393,516,5879.4,-90.2,2.4,-122.1,-1.94,-1.0,1.28,0.02,-1.17,-0.13,-223.6,-209.6,-71.0,1.58,5.82,0.14,0.0,1.177369950355452,2.5302173819654312,0.17965530663907436,0.35,0,8,0.0
7.224354349999885,517,5879.41,-90.4,2.2,-122.2,-1.78,-0.89,1.4,0.03,-1.27,-0.12,-225.8,-221.0,-107.0,1.64,6.17,0.05,0.0,1.2760094043540589,2.433207759316906,0.2727288654249276,0.35,0,8,0.0
7.23245702999975,518,5879.42,-90.6,2.1,-122.2,-1.43,-0.52,1.52,0.05,-1.35,-0.03,-228.1,-234.1,-123.0,1.7,6.53,0.01,0.0,1.3512586724976088,2.150744057297381,0.34101857089710785,0.35,0,8,0.0
7.245179749000272,519,5879.43,-90.8,1.9,-122.3,-1.49,-0.36,1.82,0.11,-1.4,0.07,-230.5,-248.3,-139.0,1.77,6.93,0.1,0.0,1.4060583202698242,2.3795167576632026,0.38790185429593693,0.35,1,9,3.0
7.254861816999437,520,5879.44,-90.9,1.7,-122.3,-1.13,-0.43,2.44,0.14,-1.51,0.16,-233.1,-265.0,-160.0,1.84,7.4,-0.08,0.0,1.524893438899912,2.723123206907833,0.4966022334675042,0.35,0,9,3.0
7.264406964000045,521,5879.45,-90.9,1.5,-122.4,0.35,-0.51,3.12,0.13,-1.54,0.25,-235.8,-270.0,118.0,1.91,6.46,2.74,3.49,1.5655669899432603,3.180723188207361,0.5265302688206355,0.35,0,9,3.0
7.275135226999737,522,5879.46,-90.8,1.1,-122.4,2.11,-0.85,3.95,0.19,-1.4,0.28,-237.8,-145.0,1089.0,1.95,1.96,3.01,3.49,1.4403124660989364,4.5581904304230205,0.3932502300767853,0.35,0,9,3.0
7.284338585000114,523,5879.47,-90.5,0.7,-122.5,2.92,-0.96,4.59,0.17,-1.25,0.16,-238.2,-5.6,1115.0,1.94,-0.98,2.98,3.49,1.2716131487209466,5.524137941796892,0.22005989444481955,0.35,0,9,3.0
7.294833162000032,524,5879.48,-90.2,0.2,-122.6,2.78,-1.0,4.38,0.0,-1.12,0.25,-237.8,55.9,642.0,1.93,-1.9,3.42,3.49,1.1475626344561765,5.283256571471804,0.09408919257644843,0.35,0,9,3.0
7.304938520000178,525,5879.49,-90.0,-0.1,-122.7,1.99,-1.71,3.88,-0.15,-1.04,0.36,-237.0,79.0,298.0,1.91,-2.16,3.56,3.49,1.110720486891279,4.683865924639603,0.056102104111319884,0.35,0,9,3.0
7.315036750000218,526,5879.5,-89.8,-0.5,-123.0,1.21,-2.8,3.14,-0.26,-1.04,0.41,-236.2,76.0,85.0,1.89,-2.06,3.41,3.49,1.1477369036499612,4.377636348533304,0.09125615045260194,0.35,0,9,3.0
7.3243817149996175,527,5879.51,-89.7,-0.7,-123.3,1.01,-4.0,2.29,-0.31,-1.04,0.39,-235.5,67.5,-93.0,1.87,-1.51,3.46,3.49,1.15316954521007,4.718495522939489,0.09475501617245663,0.35,0,9,3.0
7.335140164999757,528,5879.52,-89.6,-0.9,-123.8,1.39,-4.94,1.81,-0.29,-0.99,0.41,-235.0,41.6,-173.0,1.86,-0.93,3.55,3.49,1.1100900864344299,5.441672537005512,0.050642046248880135,0.35,0,9,3.0
7.344350925999606,529,5879.53,-89.4,-1.1,-124.3,2.26,-5.8,1.77,-0.2,-0.95,0.35,-234.7,27.6,-144.0,1.85,-0.58,3.86,3.49,1.0319883720275147,6.471514505894273,0.026910474794874295,0.35,0,9,3.0
7.354915076999532,530,5879.54,-89.1,-1.3,-124.9,2.82,-6.17,1.76,-0.08,-0.95,0.28,-234.5,13.0,-152.0,1.85,-0.16,3.55,3.49,0.9936297097007516,7.008487711339729,0.06396375437920465,0.35,0,9,3.0
7.364406339999732,531,5879.55,-88.8,-1.4,-125.5,2.76,-6.16,1.61,0.0,-0.98,0.24,-234.5,6.8,-26.0,1.85,-0.32,3.52,3.49,1.0089598604503551,6.939401991526359,0.04766093155700912,0.35,0,9,3.0
7.374979676999828,532,5879.56,-88.6,-1.6,-126.1,2.27,-6.03,1.22,0.02,-1.04,0.26,-234.3,26.1,161.0,1.84,-1.07,3.4,3.49,1.072194012294417,6.557606270583802,0.015261755881311512,0.35,0,9,3.0
7.384390802999405,533,5879.57,-88.3,-1.6,-126.7,2.03,-5.98,0.67,0.06,-1.03,0.24,-233.8,62.1,350.0,1.82,-2.34,3.21,3.49,1.059292216529509,6.35060627027058,0.0023127609140753957,0.35,0,9,3.0
7.3949542700001984,534,5879.58,-88.1,-1.7,-127.3,1.88,-5.79,0.21,0.12,-0.98,0.21,-232.8,117.2,474.0,1.78,-3.82,3.24,3.49,1.0094057657849989,6.091190359855781,0.04662221603382588,0.35,0,9,3.0
7.404381288999502,535,5879.59,-87.9,-1.6,-127.9,1.37,-5.5,-0.17,0.16,-0.95,0.18,-231.2,174.8,558.0,1.73,-5.5,3.28,3.49,0.9800510190801293,5.670608432963785,0.07445742348392148,0.35,0,9,3.0
7.41488222299995,536,5879.6,-87.8,-1.6,-128.4,0.94,-5.07,-0.55,0.19,-0.89,0.15,-229.1,235.0,595.0,1.67,-7.16,3.26,3.49,0.92233399590387,5.1856532857490585,0.1295309577269771,0.35,0,9,3.0
7.424949051999647,537,5879.61,-87.7,-1.5,-128.9,0.7,-4.5,-0.82,0.18,-0.86,0.13,-226.3,295.9,592.0,1.58,-8.78,2.96,3.49,0.8882004278314664,4.627353455270085,0.16039123528339316,0.35,0,9,3.0
7.434908438999628,538,5879.62,-87.6,-1.4,-129.3,0.64,-4.08,-1.09,0.17,-0.83,0.14,-222.9,352.6,554.0,1.49,-10.2,3.91,3.49,0.8587199776411399,4.271311274070294,0.1860742517642452,0.35,0,9,0.0
7.444388168999467,539,5879.63,-87.6,-1.2,-129.7,0.58,-3.69,-1.21,0.15,-0.79,0.12,-219.0,408.2,566.0,1.37,-11.77,3.62,3.49,0.8130190649671138,3.9263978402602047,0.2271396611495058,0.35,0,9,0.0
7.454968700999416,540,5879.64,-87.5,-1.1,-130.1,0.52,-3.35,-1.22,0.15,-0.78,0.1,-214.7,435.5,53.0,1.26,-10.94,0.43,0.0,0.8005623023850174,3.602957118812268,0.23480449525697022,0.35,0,9,0.0
7.464271537999593,541,5879.65,-87.5,-1.0,-130.4,0.11,-2.99,-1.33,0.11,-0.85,0.07,-211.0,333.0,-746.0,1.17,-7.7,0.56,0.0,0.8599418584997476,3.274309087425926,0.17191644035939513,0.35,0,9,0.0
7.474761423999553,542,5879.66,-87.5,-0.8,-130.6,-0.15,-2.76,-1.62,0.05,-0.87,0.07,-208.3,236.5,-815.0,1.11,-5.46,0.28,0.0,0.8742425292789181,3.203825837963106,0.15446345418862018,0.35,0,9,0.0
7.484596069999498,543,5879.67,-87.5,-0.5,-130.9,-0.22,-2.62,-1.75,0.07,-0.83,0.05,-206.5,165.6,-688.0,1.07,-3.81,0.25,0.0,0.8344459239519358,3.158369832682677,0.19037485832529033,0.35,0,9,0.0
7.494810356000016,544,5879.68,-87.5,-0.3,-131.1,-0.21,-2.45,-1.56,0.12,-0.82,0.0,-205.2,114.6,-531.0,1.04,-2.61,0.03,0.0,0.8287339742040264,2.91207829565072,0.1921650719117357,0.35,0,9,0.0
7.504237502000251,545,5879.69,-87.5,-0.2,-131.4,-0.4,-2.28,-1.37,0.16,-0.84,-0.01,-204.3,83.9,-331.0,1.02,-2.05,-0.04,0.0,0.8551608035919326,2.6898512970050965,0.16242347767335297,0.35,0,9,0.0
7.512517809000201,546,5879.7,-87.6,0.0,-131.6,-0.63,-2.01,-1.27,0.18,-0.89,-0.04,-203.5,70.7,-173.0,1.0,-1.84,0.1,0.0,0.9089004345911603,2.4596544472750637,0.10651016974064265,0.35,0,9,0.0
7.524880793000193,547,5879.71,-87.6,0.0,-131.8,-0.71,-1.72,-1.22,0.19,-0.92,-0.05,-202.9,67.4,-66.0,0.98,-1.83,-0.12,0.0,0.9407443861113389,2.225061796894639,0.07317289385605474,0.35,0,9,0.0
7.534829686999728,548,5879.72,-87.7,0.1,-131.9,-0.66,-1.33,-1.19,0.19,-0.92,-0.07,-202.2,71.3,31.0,0.96,-2.08,0.03,0.0,0.942019108086455,1.902787429010398,0.07046020844332002,0.35,0,9,0.0
7.544655466999757,549,5879.73,-87.8,0.2,-132.0,-0.46,-0.96,-1.12,0.19,-0.91,-0.07,-201.4,85.3,116.0,0.93,-2.53,-0.07,0.0,0.9322553298319083,1.5451860729374958,0.07861950696390929,0.35,0,9,0.0
7.5549250559997745,550,5879.74,-87.8,0.3,-132.1,-0.22,-0.57,-1.01,0.18,-0.89,-0.08,-200.4,103.8,161.0,0.91,-3.04,0.0,0.0,0.9115371632577577,1.1804236527620073,0.09735092006729873,0.35,0,9,0.0
7.56424528000025,551,5879.75,-87.8,0.4,-132.1,0.0,-0.21,-0.91,0.18,-0.88,-0.08,-199.2,122.1,175.0,0.88,-3.52,0.01,0.0,0.9017760254076397,0.9339164844888435,0.10496981675906847,0.35,0,9,0.0
7.572467807000066,552,5879.76,-87.8,0.5,-132.1,0.15,0.15,-0.86,0.19,-0.88,-0.11,-197.9,144.0,210.0,0.83,-4.21,-0.16,0.0,0.9069729874698584,0.8857764955111419,0.09777739760291282,0.35,0,9,0.0
7.584852905999469,553,5879.77,-87.8,0.6,-132.1,0.22,0.54,-0.83,0.2,-0.89,-0.13,-196.2,167.7,227.0,0.78,-4.84,0.0,0.0,0.9214119599831555,1.014347080638575,0.08167165658782338,0.35,0,9,0.0
7.594950138999593,554,5879.78,-87.7,0.7,-132.0,0.2,0.93,-0.81,0.2,-0.89,-0.14,-194.4,189.2,211.0,0.74,-5.37,-0.02,0.0,0.9228759396581969,1.2493998559308386,0.07860352337452636,0.35,0,9,0.0
7.6042376719997264,555,5879.79,-87.7,0.8,-131.9,0.11,1.27,-0.68,0.18,-0.88,-0.14,-192.3,212.5,229.0,0.67,-6.06,-0.09,0.0,0.9090654541890809,1.4447837208385206,0.09056572866676948,0.35,0,9,0.0
7.612466182999924,556,5879.8,-87.7,0.8,-131.7,0.09,1.54,-0.45,0.18,-0.89,-0.14,-190.0,236.0,234.0,0.61,-6.71,-0.06,0.0,0.9187491496594704,1.6069225245792034,0.07926439253245243,0.35,0,9,0.0
7.624885647000156,557,5879.81,-87.7,0.8,-131.6,0.11,1.82,-0.24,0.18,-0.91,-0.15,-187.6,259.3,236.0,0.54,-7.36,0.01,0.0,0.9396807968666807,1.8390486671102535,0.057166090418737325,0.35,0,9,0.0
7.634788596999897,558,5879.82,-87.7,0.8,-131.4,0.48,2.02,-0.09,0.18,-0.91,-0.14,-184.8,284.0,245.0,0.47,-8.0,-0.02,0.0,0.9381364506296512,2.078196333362178,0.05753622792265145,0.35,0,9,0.0
7.644764752999436,559,5879.83,-87.6,0.8,-131.2,0.96,2.27,0.17,0.17,-0.9,-0.15,-181.8,312.4,269.0,0.37,-8.83,-0.23,0.0,0.9281163720137686,2.4705060210410337,0.06620518040776335,0.35,0,9,0.0
7.652441815999737,560,5879.84,-87.5,0.8,-130.9,1.0,2.51,0.45,0.15,-0.88,-0.15,-178.5,335.9,229.0,0.28,-9.37,0.03,0.0,0.9052071586106685,2.739087439276081,0.08733210593464624,0.35,0,9,0.0
7.6647764489998735,561,5879.85,-87.4,0.7,-130.7,0.9,2.65,0.64,0.14,-0.89,-0.13,-174.9,357.6,240.0,0.18,-10.05,-0.1,0.0,0.910274683818022,2.8709057804114715,0.08061928911274685,0.35,0,9,0.0
7.67242908299977,562,5879.86,-87.3,0.6,-130.4,0.95,2.69,0.7,0.12,-0.89,-0.1,-171.2,382.9,237.0,0.08,-10.67,-0.11,0.0,0.9036038955205982,2.9374478718778994,0.08554427586196733,0.35,0,9,0.0
7.684851099000298,563,5879.87,-87.2,0.6,-130.1,0.94,2.68,0.67,0.11,-0.86,-0.09,-167.3,399.0,171.0,-0.02,-11.02,-0.1,0.0,0.8716650732936361,2.918030157486382,0.11513343612715088,0.35,0,9,0.0
7.694952306999767,564,5879.88,-87.1,0.5,-129.9,0.74,2.6,0.66,0.1,-0.82,-0.09,-163.2,417.6,191.0,-0.13,-11.57,-0.09,0.0,0.8309632964216891,2.7826605973420477,0.15271850873911585,0.35,0,9,0.0
7.7041590999997425,565,5879.89,-87.0,0.4,-129.6,0.22,2.54,0.69,0.09,-0.8,-0.09,-158.9,429.4,94.0,-0.25,-11.67,0.0,0.0,0.8100617260431455,2.641230773711377,0.17014767753530624,0.35,0,9,0.0
7.716310318000069,566,5879.9,-87.1,0.3,-129.4,-0.45,2.47,0.58,0.09,-0.82,-0.1,-154.7,427.8,6.0,-0.36,-11.56,-0.09,0.0,0.8309632964216891,2.57678093752651,0.1462611850136274,0.35,0,9,0.0
7.728268408999611,567,5879.91,-87.1,0.3,-129.1,-1.17,2.33,0.34,0.09,-0.85,-0.1,-150.3,415.3,-104.0,-0.48,-11.05,0.0,0.0,0.8605811989580064,2.6293345165649806,0.11431041682776388,0.35,0,9,0.0
7.736340020000171,568,5879.92,-87.3,0.2,-128.9,-2.0,2.09,-0.03,0.05,-0.91,-0.09,-146.4,387.3,-290.0,-0.59,-9.96,0.12,0.0,0.9158056562393574,2.892922397853077,0.05790424035548469,0.35,0,9,0.0
7.74447088099987,569,5879.93,-87.5,0.2,-128.7,-2.56,1.81,-0.21,0.05,-0.94,-0.11,-142.9,329.9,-529.0,-0.66,-8.2,0.38,0.0,0.9477341399358787,3.1422603329450602,0.025456241525784074,0.35,0,9,0.0
7.75239661500018,570,5879.94,-87.8,0.3,-128.6,-2.77,1.46,-0.38,0.0,-1.06,-0.12,-140.1,246.9,-768.0,-0.74,-5.59,0.26,0.0,1.066770828247567,3.1541876925763312,0.09170883785018602,0.35,0,9,0.0
7.764742811999895,571,5879.95,-88.1,0.3,-128.4,-2.46,1.02,-0.47,-0.02,-1.08,-0.13,-138.3,155.3,-892.0,-0.77,-2.95,0.33,0.0,1.0879797792238604,2.7042374156127638,0.11065943304994985,0.35,0,9,0.0
7.772441903999606,572,5879.96,-88.3,0.3,-128.3,-1.54,0.75,-0.27,0.0,-1.09,-0.19,-137.5,52.4,-998.0,-0.78,-0.07,0.54,0.0,1.1064357188738982,1.7340703561274555,0.12653306524598795,0.35,0,9,0.0
7.784771349000039,573,5879.97,-88.4,0.3,-128.3,-0.45,0.7,0.07,0.1,-1.06,-0.2,-137.6,-38.8,-837.0,-0.77,1.85,0.21,0.0,1.0833282051160673,0.8351047838445185,0.10135704045839389,0.35,0,9,0.0
7.792383693999909,574,5879.98,-88.4,0.3,-128.2,-0.02,0.75,0.37,0.19,-1.1,-0.2,-138.4,-100.2,-679.0,-0.74,3.49,0.17,0.0,1.1340634902861482,0.8365404951345751,0.1490504791159053,0.35,0,9,0.0
7.805084759999772,575,5879.99,-88.4,0.3,-128.1,-0.88,0.96,-0.07,0.15,-1.28,-0.2,-139.8,-159.3,-610.0,-0.7,4.96,0.18,0.0,1.3041855696180662,1.3041855696180662,0.3127891072788669,0.35,0,9,0.0
7.812442082999951,576,5880.0,-88.4,0.3,-128.1,-0.88,0.96,-0.07,0.15,-1.28,-0.2,-141.1,-199.1,-737.0,-0.63,6.89,0.46,0.0,1.3041855696180662,1.3041855696180662,0.30653332513328957,0.35,0,9,0.0
7.824792716000047,577,5880.01,-88.8,0.4,-127.9,-2.87,0.77,-1.31,0.09,-1.29,-0.13,-144.6,-288.5,-747.0,-0.55,8.62,0.24,0.0,1.2996538000559996,3.247445149652262,0.2959615244597986,0.35,0,9,0.0
7.832476937999672,578,5880.02,-89.1,0.6,-127.9,-3.49,0.78,-1.65,0.05,-1.26,-0.13,-147.8,-340.9,-544.0,-0.45,9.77,0.19,0.0,1.267675037223657,3.938400690635731,0.2587031063949068,0.35,0,9,0.0
7.844863182000154,579,5880.03,-89.6,0.8,-127.8,-3.83,0.84,-1.68,0.0,-1.26,-0.09,-151.4,-374.1,-357.0,-0.36,10.4,0.16,0.0,1.263210196285638,4.265782460463731,0.24915350014775006,0.35,0,9,0.0
7.854818025999521,580,5880.04,-90.0,0.9,-127.7,-3.87,0.85,-1.66,-0.03,-1.31,0.0,-155.3,-387.7,-163.0,-0.25,10.55,0.0,0.0,1.3103434664239755,4.295928304802119,0.2903610348803658,0.35,0,9,0.0
7.86471693600015,581,5880.05,-90.3,1.1,-127.6,-3.63,0.51,-1.67,-0.01,-1.38,0.14,-159.1,-386.7,-36.0,-0.14,10.45,-0.04,0.0,1.3871193171461493,4.028138527905911,0.3597941478904889,0.35,0,10,0.0
7.874939516999802,582,5880.06,-90.7,1.2,-127.6,-3.68,-0.05,-1.98,-0.01,-1.55,0.23,-163.0,-376.7,99.0,-0.04,9.95,-0.09,0.0,1.5670035098875819,4.179150631408253,0.528884773819283,0.35,0,10,0.0
7.8843102279997765,583,5880.07,-91.0,1.5,-127.6,-3.89,-0.52,-2.61,-0.05,-1.66,0.29,-166.7,-346.2,252.0,0.04,9.01,-0.11,0.0,1.6858825581872539,4.71323667981993,0.634808545676576,0.35,0,10,0.0
7.892423618000066,584,5880.08,-91.4,1.8,-127.7,-3.35,-0.64,-2.95,-0.03,-1.58,0.28,-169.8,-316.2,289.0,0.13,8.17,-0.14,0.0,1.6048987507004921,4.509390202677076,0.542748243426018,0.35,0,10,0.0
7.9050712319995,585,5880.09,-91.7,2.0,-127.8,-1.93,-0.37,-2.62,0.07,-1.38,0.22,-172.7,-279.0,357.0,0.2,7.06,-0.23,0.0,1.3991783303067553,3.2750877850830196,0.33028726657163565,0.35,0,10,0.0
7.914631970999835,586,5880.1,-91.8,2.2,-127.8,-0.63,0.26,-1.69,0.3,-1.14,0.1,-175.2,-238.5,383.0,0.26,6.06,-0.31,0.0,1.1830469136936201,1.8222513547806733,0.11187273295933053,0.35,0,10,0.0
7.92486751999968,587,5880.11,-91.8,2.4,-127.7,-0.16,1.71,-0.76,0.38,-1.06,0.03,-177.4,-200.5,376.0,0.32,4.98,-0.19,0.0,1.1264546151532249,1.8781107528577752,0.05417482573055654,0.35,0,10,0.0
7.934935149999546,588,5880.12,-91.8,2.4,-127.4,-0.22,3.19,-0.52,0.39,-0.96,0.08,-179.1,-164.9,352.0,0.36,4.05,-0.09,0.0,1.0392785959500945,3.2395833065380493,0.03234116960312239,0.35,0,10,0.0
7.944422665999809,589,5880.13,-91.8,2.5,-127.0,-0.51,4.54,-0.19,0.39,-0.83,0.15,-180.5,-130.1,345.0,0.39,3.12,-0.18,0.0,0.9292470069900682,4.572504784032489,0.13952530339188574,0.35,0,10,0.0
7.954939348999687,590,5880.14,-91.9,2.5,-126.5,-0.63,5.33,-0.05,0.39,-0.83,0.21,-181.6,-98.5,309.0,0.42,2.35,-0.03,0.0,0.9407975340103736,5.367336397134057,0.12541528084414888,0.35,0,10,0.0
7.96434208699975,591,5880.15,-91.9,2.5,-126.0,-0.57,6.11,-0.2,0.34,-0.89,0.16,-182.4,-72.1,275.0,0.44,1.64,0.0,0.0,0.9660745312862771,6.139788269965016,0.09813551789688058,0.35,0,10,0.0
7.974895923000076,592,5880.16,-91.9,2.6,-125.3,0.09,6.61,-0.79,0.24,-0.92,0.14,-183.0,-47.7,245.0,0.45,1.03,-0.17,0.0,0.9610411021387171,6.657649735454697,0.10110556810355176,0.35,0,10,0.0
7.9843574019996595,593,5880.17,-91.8,2.7,-124.6,0.79,6.83,-1.29,0.14,-0.83,0.14,-183.3,-26.8,207.0,0.46,0.52,-0.22,0.0,0.8532877591996735,6.995505700090594,0.2046817328217434,0.35,0,10,0.0
7.994920053999522,594,5880.18,-91.7,2.9,-124.0,0.92,6.77,-1.44,0.04,-0.82,0.15,-183.5,-8.8,195.0,0.46,0.0,-0.09,0.0,0.8345657553482528,6.982327692109559,0.2189356619397007,0.35,0,10,0.0
8.004236194999976,595,5880.19,-91.6,3.1,-123.3,0.79,6.17,-1.4,-0.09,-0.87,0.18,-183.4,4.1,106.0,0.46,-0.11,-0.12,0.0,0.892972563968233,6.375970514360931,0.15731827625332617,0.35,0,10,0.0
8.012420424999618,596,5880.2,-91.5,3.2,-122.8,0.67,5.35,-1.21,-0.15,-0.9,0.18,-183.4,2.2,11.0,0.46,0.0,-0.09,0.0,0.93,5.525893592895179,0.11788502341712792,0.35,0,10,0.0
8.024831875000018,597,5880.21,-91.4,3.3,-122.3,0.72,4.4,-0.78,-0.22,-0.88,0.18,-183.4,-1.6,-13.0,0.46,0.06,-0.09,0.0,0.9247702417357513,4.526234638195418,0.12065248604774914,0.35,0,10,0.0
8.034783747999427,598,5880.22,-91.3,3.4,-121.9,0.82,3.4,-0.23,-0.23,-0.87,0.15,-183.4,-1.0,6.0,0.46,0.01,-0.12,0.0,0.9123047736365298,3.5050392294523607,0.13045559506403126,0.35,0,10,0.0
8.044662332999906,599,5880.23,-91.2,3.4,-121.6,0.72,2.53,0.3,-0.19,-0.9,0.12,-183.4,-0.8,-3.0,0.46,0.05,0.01,0.0,0.9276313923105449,2.6475082624989104,0.11282639686221596,0.35,0,10,0.0
8.05492530599986,600,5880.24,-91.1,3.3,-121.4,0.66,1.87,0.64,-0.14,-0.93,0.08,-183.5,-4.1,-28.0,0.46,0.16,-0.11,0.0,0.9438749917229505,2.0837706207737936,0.09465114150081422,0.35,0,10,0.0
8.064260000999639,601,5880.25,-91.0,3.3,-121.2,0.7,1.54,0.89,-0.08,-0.95,0.04,-183.5,-10.2,-61.0,0.46,0.38,0.0,0.0,0.95420123663722,1.9114654064355965,0.08263839865481393,0.35,0,10,0.0
8.072447515999556,602,5880.26,-90.9,3.2,-121.1,0.89,1.37,0.96,-0.03,-0.95,0.02,-183.7,-19.8,-89.0,0.47,0.68,0.0,0.0,0.9506839643120104,1.8948878594787608,0.084432557560423,0.35,0,10,0.0
8.084830865000185,603,5880.27,-90.8,3.0,-120.9,1.13,1.35,0.97,0.0,-0.93,0.01,-184.0,-33.8,-126.0,0.48,1.09,0.05,0.0,0.9300537618869138,2.0100497506280783,0.10296150478580923,0.35,0,10,0.0
8.094940650999888,604,5880.28,-90.7,2.9,-120.8,1.3,1.37,0.86,0.03,-0.93,0.0,-184.4,-48.7,-148.0,0.49,1.51,0.17,0.0,0.9304837451562494,2.0752108326625516,0.10048089108614422,0.35,0,10,0.0
8.104219281000042,605,5880.29,-90.5,2.8,-120.6,1.42,1.39,0.68,0.03,-0.91,0.01,-185.0,-63.2,-133.0,0.51,1.86,0.31,0.0,0.9105492847726586,2.1002142747824566,0.11800704444034027,0.35,0,10,0.0
8.11247283099965,606,5880.3,-90.4,2.8,-120.5,1.4,1.33,0.52,0.02,-0.89,0.02,-185.7,-73.9,-114.0,0.53,2.15,0.0,0.0,0.8904493247793498,1.99982499234308,0.13534486434497606,0.35,0,10,0.0
8.124897912000051,607,5880.31,-90.2,2.7,-120.4,1.09,1.16,0.45,0.0,-0.9,0.01,-186.6,-83.2,-90.0,0.55,2.35,0.01,0.0,0.9000555538409838,1.654146305500212,0.12322386257767515,0.35,0,10,0.0
8.134825688999626,608,5880.32,-90.1,2.6,-120.3,0.72,0.98,0.43,-0.02,-0.89,0.0,-187.4,-91.1,-78.0,0.58,2.54,-0.06,0.0,0.8902246907382427,1.2898449519225168,0.1303936311668079,0.35,0,10,0.0
8.144787215000179,609,5880.33,-90.0,2.5,-120.2,0.49,0.76,0.41,-0.04,-0.92,0.0,-188.4,-94.2,-38.0,0.6,2.57,0.0,0.0,0.9208691546577071,0.9928746144403129,0.09775418390239665,0.35,0,10,0.0
8.152470559999529,610,5880.34,-90.0,2.4,-120.1,0.34,0.55,0.61,-0.04,-0.91,-0.02,-189.3,-97.2,-35.0,0.63,2.68,0.03,0.0,0.9110982383914481,0.8889319434017432,0.1053745981652825,0.35,0,10,0.0
8.164802158999919,611,5880.35,-90.0,2.3,-120.1,0.25,0.34,0.84,-0.05,-0.92,-0.03,-190.3,-100.3,-28.0,0.66,2.75,0.13,0.0,0.9218459741193211,0.9400531899844816,0.09273432518866132,0.35,0,10,0.0
8.174783931999627,612,5880.36,-90.0,2.2,-120.1,0.22,0.19,1.11,-0.03,-0.91,-0.06,-191.2,-102.1,-26.0,0.69,2.8,0.0,0.0,0.9124691775616315,1.1474319151914854,0.10006889931142393,0.35,0,10,0.0
8.184827987000062,613,5880.37,-90.0,2.0,-120.0,0.37,0.15,1.19,-0.01,-0.97,-0.08,-192.4,-104.4,-23.0,0.71,2.86,0.0,0.0,0.973344748791506,1.2551892287619424,0.03840946151991831,0.35,0,10,0.0
8.194863189999523,614,5880.38,-90.0,1.9,-120.0,0.83,0.2,1.09,-0.01,-0.96,-0.12,-193.4,-104.7,-5.0,0.74,2.85,-0.02,0.0,0.9675226095549395,1.3845576911057191,0.04334696874135513,0.35,0,10,0.0
8.204246569999668,615,5880.39,-89.9,1.8,-120.0,0.84,0.33,1.08,0.0,-0.92,-0.14,-194.5,-104.3,0.0,0.77,2.83,0.0,0.0,0.9305912099305473,1.4074444926887881,0.07867280099843232,0.35,0,10,0.0
8.23203138899953,617,5880.41,-89.6,1.6,-119.9,2.29,0.36,0.6,-0.03,-0.93,-0.13,-196.6,-103.4,16.0,0.83,2.77,0.09,0.0,0.9395211546314431,2.3945145645829764,0.06834799917158574,0.35,0,10,0.0
8.240412895999725,618,5880.42,-89.3,1.6,-119.9,3.12,0.15,0.2,-0.08,-0.86,-0.12,-197.6,-100.9,13.0,0.86,2.74,0.0,0.0,0.8720091742636655,3.1300000000000003,0.13314277994857604,0.35,0,10,0.0
8.24838261199966,619,5880.43,-89.0,1.6,-119.9,3.15,-0.32,-0.2,-0.16,-0.8,-0.1,-198.6,-99.3,17.0,0.88,2.67,0.18,0.0,0.8219489035213807,3.1725226555534634,0.17953898967704363,0.35,0,10,0.0
8.256196086000273,620,5880.44,-88.7,1.6,-120.0,2.51,-0.89,-0.62,-0.19,-0.74,-0.07,-199.6,-97.2,17.0,0.91,2.62,0.18,0.0,0.7672027111526654,2.7343372140246345,0.22959947840484385,0.35,0,10,0.0
8.264330604999486,621,5880.45,-88.5,1.7,-120.1,1.34,-1.66,-0.88,-0.18,-0.73,-0.07,-200.5,-97.3,0.0,0.94,2.65,-0.19,0.0,0.7551158851461145,2.3077261535979523,0.23685257832316686,0.35,0,10,0.0
8.274896435999835,622,5880.46,-88.5,1.8,-120.3,-0.15,-2.43,-1.0,-0.16,-0.72,-0.05,-201.5,-98.1,-8.0,0.96,2.7,0.08,0.0,0.7392563831310487,2.6319954407255346,0.24765783873146796,0.35,0,10,0.0
8.284247159000188,623,5880.47,-88.6,1.9,-120.6,-1.46,-2.93,-1.01,-0.11,-0.77,-0.1,-202.5,-100.1,-23.0,0.99,2.77,-0.03,0.0,0.7842193570679061,3.4258721517301254,0.1986409674987183,0.35,0,10,0.0
8.292478903999836,624,5880.48,-88.8,2.0,-120.9,-2.48,-3.31,-1.09,-0.06,-0.83,-0.13,-203.5,-105.2,-44.0,1.02,2.93,0.13,0.0,0.8422588675698226,4.27721872248778,0.13778942785686576,0.35,0,10,0.0
8.305245339999601,625,5880.49,-89.1,2.1,-121.2,-3.13,-3.38,-1.03,0.0,-0.86,-0.12,-204.7,-113.2,-78.0,1.05,3.19,0.09,0.0,0.8683317338436963,4.720402525209052,0.1094822303513322,0.35,0,10,0.0
8.314818498000022,626,5880.5,-89.5,2.2,-121.6,-3.36,-3.23,-0.82,0.03,-0.93,-0.07,-205.9,-124.9,-106.0,1.08,3.54,-0.09,0.0,0.9331130692472377,4.732325009971314,0.04380687704883501,0.35,0,10,0.0
8.324752544999683,627,5880.51,-89.9,2.3,-121.9,-2.92,-2.82,-0.54,0.06,-0.99,-0.1,-207.2,-136.0,-104.0,1.12,3.79,0.18,0.0,0.9968450230602548,4.095167884226481,0.019526575228898446,0.35,0,10,0.0
8.3324577759995,628,5880.52,-90.1,2.3,-122.1,-2.05,-2.25,-0.14,0.09,-1.04,-0.11,-208.6,-144.8,-92.0,1.17,4.05,-0.04,0.0,1.0496666137398103,3.047064160794781,0.07090120259028487,0.35,0,10,0.0
8.344842352999876,629,5880.53,-90.3,2.3,-122.3,-0.8,-1.59,0.14,0.1,-1.07,-0.19,-210.1,-151.9,-68.0,1.2,4.18,0.0,0.0,1.0913294644606641,1.7854131174604941,0.11031277224491598,0.35,0,10,0.0
8.352494660999582,630,5880.54,-90.3,2.3,-122.4,0.56,-0.79,0.49,0.1,-1.07,-0.22,-211.7,-155.8,-41.0,1.25,4.25,-0.08,0.0,1.0969503179269333,1.0852649446103013,0.11361495319696147,0.35,0,10,0.0
8.36475985099969,631,5880.55,-90.2,2.2,-122.5,1.21,-0.14,0.8,0.11,-1.04,-0.22,-213.3,-157.0,-22.0,1.29,4.29,0.0,0.0,1.0686907878334126,1.457292009173179,0.08364831464137201,0.35,0,10,0.0
8.372490024999934,632,5880.56,-90.1,2.2,-122.5,0.91,-0.09,1.08,0.11,-1.13,-0.04,-214.8,-157.1,-5.0,1.33,4.27,0.08,0.0,1.1360457737256893,1.415132502630054,0.14798323452297568,0.35,0,10,0.0
