host_time_s,seq,device_time_s,roll,pitch,yaw,gyro_x,gyro_y,gyro_z,accel_x,accel_y,accel_z,belt_length,belt_velocity,belt_acceleration,motor_pos,motor_vel,motor_iq_meas,motor_iq_set,acc_mag,gyro_mag,acc_residual,threshold,heel_strike,hs_count,torque_cmd_nm
3.076159939999343,1,24.53,97.0,5.0,5.5,-2.01,-2.08,1.61,0.17,0.87,-0.25,-82.0,-59.6,-31.0,-2.27,1.54,0.21,0.0,0.9210320298447824,3.3103776219639958,0.0,0.35,0,0,0.0
3.0847992149992933,2,24.54,96.6,5.2,5.9,-2.29,-1.78,1.39,0.21,0.86,-0.27,-82.8,-54.6,7.0,-2.26,1.53,0.0,0.0,0.9255268769733269,3.2163022246051445,0.004404950185973644,0.35,0,0,0.0
3.0927149529998132,3,24.55,96.4,5.3,6.1,-2.4,-1.51,1.25,0.23,0.85,-0.28,-83.4,-60.3,-47.0,-2.24,1.74,0.0,0.0,0.9240129869217206,3.098806221757017,0.002833238931679971,0.35,0,0,0.0
3.1005315410002368,4,24.56,96.2,5.4,6.2,-2.48,-1.24,1.05,0.24,0.85,-0.28,-84.0,-66.9,-55.0,-2.22,1.89,0.09,0.0,0.9265527507918802,2.9648777377827913,0.005265542745802709,0.35,0,0,0.0
3.1119262319989502,5,24.57,95.9,5.5,6.3,-2.63,-0.96,0.79,0.26,0.83,-0.29,-84.8,-72.5,-54.0,-2.2,2.03,-0.01,0.0,0.9168424073961675,2.909054829321716,0.004355904636911712,0.35,0,0,0.0
3.1206461359997775,6,24.58,95.7,5.6,6.4,-2.96,-0.61,0.45,0.28,0.8,-0.3,-85.5,-75.7,-30.0,-2.18,2.05,-0.07,0.0,0.8991106717195609,3.0555195957479966,0.02164588750724794,0.35,0,0,0.0
3.1318417090005823,7,24.59,95.3,5.6,6.5,-3.34,-0.21,0.08,0.3,0.78,-0.3,-86.3,-75.6,-6.0,-2.16,2.04,0.16,0.0,0.8879189152169246,3.3475513438930253,0.032180891129686584,0.35,0,0,0.0
3.1406790700002603,8,24.6,95.0,5.6,6.5,-3.4,0.23,-0.25,0.33,0.76,-0.31,-87.0,-75.3,-1.0,-2.14,2.05,0.11,0.0,0.8846468221838588,3.4169284452560604,0.03474392447949726,0.35,0,0,0.0
3.151884090999374,9,24.61,94.7,5.5,6.4,-3.02,0.82,-0.55,0.33,0.74,-0.32,-87.8,-73.6,23.0,-2.12,1.95,-0.07,0.0,0.8711486669908874,3.177310183158075,0.04727723807901929,0.35,0,0,0.0
3.1606565050005884,10,24.62,94.4,5.5,6.3,-2.27,1.44,-0.86,0.33,0.76,-0.31,-88.5,-70.6,24.0,-2.1,1.89,0.02,0.0,0.8846468221838588,2.822428032740605,0.03310350122832695,0.35,0,0,0.0
3.1725661039999977,11,24.63,94.2,5.4,6.1,-1.48,1.98,-1.08,0.3,0.8,-0.26,-89.2,-66.9,39.0,-2.08,1.75,0.11,0.0,0.8930845424706443,2.6976285882233677,0.024172465322710668,0.35,0,0,0.0
3.1805868669998745,12,24.64,94.1,5.3,5.9,-0.98,2.18,-1.2,0.25,0.81,-0.21,-89.8,-62.7,35.0,-2.07,1.66,-0.03,0.0,0.8733269719870103,2.6744719104899946,0.043051435090217804,0.35,0,0,0.0
3.1918093889999,13,24.65,94.0,5.2,5.6,-0.47,2.13,-1.24,0.19,0.84,-0.19,-90.4,-58.6,45.0,-2.05,1.5,-0.12,0.0,0.8819297024139735,2.5090635703385438,0.03375973056998949,0.35,0,0,0.0
3.204596842999308,14,24.66,93.9,5.1,5.4,-0.01,2.04,-1.17,0.14,0.84,-0.18,-90.9,-53.5,39.0,-2.04,1.41,0.21,0.0,0.8704022058795576,2.3517227727774377,0.04438148256231722,0.35,0,0,0.0
3.2126211510003486,15,24.67,93.9,5.0,5.2,0.67,1.87,-1.09,0.09,0.84,-0.15,-91.5,-51.3,26.0,-2.02,1.38,-0.01,0.0,0.8580209787645054,2.2658111130453924,0.055627455483821975,0.35,0,0,0.0
3.2203882060002798,16,24.68,94.1,4.9,5.0,1.47,1.52,-0.96,0.05,0.88,-0.08,-92.0,-51.5,2.0,-2.01,1.41,0.0,0.0,0.8850423718670196,2.3222618284767114,0.028033941133681628,0.35,0,0,0.0
3.2317991599993547,17,24.69,94.2,4.8,4.9,2.2,0.96,-0.64,0.01,0.95,-0.02,-92.5,-54.5,-24.0,-1.99,1.54,0.06,0.0,0.9502631214563679,2.484190008835878,0.0364430722865533,0.35,0,0,0.0
3.2407009540002036,18,24.7,94.5,4.7,4.9,2.43,0.13,-0.37,-0.02,0.97,0.0,-93.1,-57.6,-24.0,-1.98,1.58,0.12,0.0,0.9702061636580134,2.4614426664052123,0.05525839219843476,0.35,0,0,0.0
3.251855892000094,19,24.71,94.7,4.7,4.9,1.97,-0.55,-0.19,-0.04,1.0,-0.05,-93.7,-59.3,-22.0,-1.96,1.66,0.0,0.0,1.0020479030465559,2.054142156716521,0.08535812895523776,0.35,0,0,0.0
3.260653811999873,20,24.72,94.8,4.7,5.0,1.02,-0.8,-0.2,-0.05,0.95,-0.16,-94.3,-61.5,-12.0,-1.94,1.66,-0.12,0.0,0.9646761114488115,1.3116401945655676,0.04702661061034352,0.35,0,0,0.0
3.2718987169992033,21,24.73,94.9,4.6,5.0,0.46,-0.75,-0.46,0.02,0.9,-0.25,-94.9,-61.0,-1.0,-1.93,1.64,-0.04,0.0,0.9342911751697112,0.9928242543370907,0.016308840844618366,0.35,0,0,0.0
3.280659074000141,22,24.74,95.0,4.6,5.1,0.74,-0.3,-0.62,0.13,0.94,-0.31,-95.5,-60.4,13.0,-1.91,1.57,0.05,0.0,0.9982985525382675,1.010940156488009,0.07870989384891125,0.35,0,0,0.0
3.29253616799906,23,24.75,95.1,4.5,5.1,1.52,0.36,-0.38,0.2,1.02,-0.26,-96.1,-54.4,48.0,-1.9,1.38,0.06,0.0,1.07144761887831,1.6076069171286866,0.14882178098517462,0.35,0,0,0.0
3.3006068449994928,24,24.76,95.3,4.5,5.0,2.33,0.64,0.1,0.23,1.02,-0.19,-96.6,-49.9,36.0,-1.88,1.32,-0.01,0.0,1.0627323275406653,2.418367217773182,0.13730435985457934,0.35,0,0,0.0
3.311525408000307,25,24.77,95.6,4.5,4.9,3.05,0.67,0.42,0.25,1.04,-0.23,-97.1,-49.1,10.0,-1.87,1.32,0.11,0.0,1.0940749517286281,3.1508411575323816,0.16527404436169135,0.35,0,0,0.0
3.320414820998849,26,24.78,95.9,4.6,4.9,4.15,0.99,0.76,0.27,1.2,-0.22,-97.6,-48.6,10.0,-1.86,1.28,-0.04,0.0,1.2495199078045935,4.3336128115003545,0.3143046204289036,0.35,0,0,0.0
3.3317915749994427,27,24.79,96.4,4.8,4.8,5.04,1.23,1.54,0.23,1.53,-0.05,-98.0,-47.5,9.0,-1.84,1.25,-0.14,0.0,1.5479987080097968,5.411663330252539,0.6005277522214247,0.35,0,1,0.0
3.3406752360006067,28,24.8,96.8,5.0,4.7,5.3,1.17,2.63,0.11,1.73,0.0,-98.5,-45.5,22.0,-1.83,1.16,-0.25,0.0,1.7334935823359716,6.031235362676538,0.7703021740166476,0.35,0,1,0.0
3.3517304309989413,29,24.81,97.3,5.3,4.6,4.21,1.31,2.95,0.01,1.74,-0.04,-98.9,-39.3,60.0,-1.82,0.92,-0.07,0.0,1.7404884371922729,5.304969368431829,0.7617510882954899,0.35,0,1,0.0
3.3605383829999482,30,24.82,97.6,5.7,4.5,1.2,0.46,3.76,0.0,1.59,0.02,-99.2,-28.7,99.0,-1.82,0.57,-0.14,0.0,1.590125781188394,3.9735626332046157,0.5991606636457788,0.35,0,1,0.0
3.372113266999804,31,24.83,97.5,6.0,4.6,-1.65,0.0,3.5,0.13,1.22,-0.03,-99.4,-13.7,147.0,-1.81,0.07,-0.07,0.0,1.2272734006732158,3.8694314827891705,0.23158211746798862,0.35,0,1,0.0
3.3806374359992333,32,24.84,97.3,6.3,4.6,-2.48,-0.01,2.45,0.27,0.9,-0.09,-99.4,4.8,152.0,-1.81,-0.29,0.0,0.0,0.9439279633531364,3.4861153165091947,0.05072805345504894,0.35,0,1,0.0
3.392663000000539,33,24.85,97.1,6.5,4.6,-1.54,0.55,1.25,0.39,0.77,-0.13,-99.3,13.9,99.0,-1.82,-0.47,-0.17,0.0,0.8728688332160796,2.0583002696399766,0.11935143992026376,0.35,0,1,0.0
3.400569514000381,34,24.86,97.0,6.6,4.5,0.27,1.41,0.18,0.44,0.75,-0.09,-99.1,21.6,96.0,-1.83,-0.78,0.06,0.0,0.8741853350405736,1.4468586662144993,0.11567423933385435,0.35,0,1,0.0
3.411706688999402,35,24.87,97.1,6.6,4.3,1.54,2.16,-0.61,0.43,0.82,-0.06,-98.8,36.3,140.0,-1.84,-1.23,-0.19,0.0,0.9278469701410895,2.7220029390138434,0.060772352148671716,0.35,0,1,0.0
3.420599155999298,36,24.88,97.2,6.5,4.1,2.18,2.93,-1.25,0.35,0.88,-0.08,-98.3,54.5,175.0,-1.85,-1.8,0.0,0.0,0.9504209593648489,3.8600259066488145,0.037434395666414044,0.35,0,1,0.0
3.4318546840004274,37,24.89,97.4,6.4,3.7,1.87,3.6,-1.46,0.26,0.96,-0.07,-97.6,75.2,193.0,-1.87,-2.34,-0.12,0.0,0.9970456358662827,4.3114382751003175,0.00900647521831932,0.35,0,1,0.0
3.440588581999691,38,24.9,97.5,6.3,3.3,1.26,4.02,-1.36,0.17,0.98,-0.03,-96.7,97.5,220.0,-1.9,-3.0,0.02,0.0,0.9950879358127099,4.4269176635668295,0.006907799661451608,0.35,0,1,0.0
3.451822125000035,39,24.91,97.5,6.3,2.9,0.86,4.28,-1.15,0.09,0.96,-0.01,-95.6,120.7,221.0,-1.94,-3.61,-0.19,0.0,0.9642613753542137,4.514476713861751,0.02344038558110373,0.35,0,1,0.0
3.4606645459989522,40,24.92,97.5,6.2,2.4,0.79,4.48,-0.95,0.02,0.93,-0.01,-94.2,143.3,227.0,-1.98,-4.24,0.0,0.0,0.9302687783646187,4.647257255629389,0.05628432291928476,0.35,0,1,0.0
3.4716144849990087,41,24.93,97.6,6.2,1.9,0.86,4.57,-0.77,-0.01,0.92,0.0,-92.6,167.2,235.0,-2.02,-4.88,-0.1,0.0,0.9200543462209175,4.713533706254788,0.06516877996172621,0.35,0,1,0.0
3.4804533059996174,42,24.94,97.6,6.2,1.5,0.91,4.46,-0.58,-0.04,0.92,0.02,-90.8,191.9,253.0,-2.08,-5.63,0.17,0.0,0.9210863151735564,4.588692624266742,0.06285407478890559,0.35,0,1,0.0
3.4916215329994884,43,24.95,97.7,6.2,1.0,0.75,4.27,-0.49,-0.05,0.92,0.03,-88.7,219.5,265.0,-2.14,-6.34,-0.18,0.0,0.9218459741193211,4.362969172478761,0.06085252752627812,0.35,0,1,0.0
3.5000426759997936,44,24.96,97.7,6.2,0.6,0.5,3.99,-0.43,-0.04,0.91,0.03,-86.3,244.2,242.0,-2.21,-6.96,0.1,0.0,0.9113725912051559,4.044131550778238,0.06989939223163444,0.35,0,1,0.0
3.5117657049995614,45,24.97,97.7,6.2,0.2,0.32,3.62,-0.42,-0.02,0.9,0.06,-83.7,265.6,224.0,-2.28,-7.53,-0.11,0.0,0.9022194854911969,3.6583056187256964,0.0774714479866816,0.35,0,1,0.0
3.524722246998863,46,24.98,97.7,6.2,0.0,0.57,3.16,-0.51,0.0,0.89,0.05,-80.9,287.4,222.0,-2.36,-8.15,-0.14,0.0,0.891403387922662,3.2512459150301134,0.08652179464411214,0.35,0,1,0.0
3.532615715999782,47,24.99,97.7,6.2,-0.3,1.15,2.79,-0.68,0.0,0.92,0.02,-77.9,310.3,224.0,-2.45,-8.75,-0.08,0.0,0.9202173656261873,3.0933800283831925,0.056553660601775135,0.35,0,1,0.0
3.5436205839996546,48,25.0,97.8,6.1,-0.6,1.56,2.54,-0.86,0.0,0.97,0.0,-74.8,331.7,278.0,-2.56,-9.6,-0.02,0.0,0.97,3.1023861784117077,0.006635605703403158,0.35,0,1,0.0
3.5526293469993107,49,25.01,98.0,6.1,-0.8,1.45,2.36,-1.02,0.0,1.01,-0.02,-70.0,367.0,282.0,-2.66,-10.24,-0.12,0.0,1.010198000393982,2.951694428629088,0.03289114679676741,0.35,0,1,0.0
3.563754479000636,50,25.02,98.1,6.0,-1.1,0.95,2.2,-1.05,0.02,1.03,-0.03,-66.2,388.1,237.0,-2.77,-10.83,-0.09,0.0,1.0306308747558457,2.616295090390226,0.05225754073545841,0.35,0,1,0.0
3.572524971999883,51,25.03,98.1,5.9,-1.3,0.57,2.09,-0.99,0.05,1.0,-0.06,-62.1,414.9,267.0,-2.88,-11.6,-0.25,0.0,1.0030453628824572,2.3818270298239543,0.02417858828482844,0.35,0,1,0.0
3.5836054270002933,52,25.04,98.1,5.8,-1.5,0.58,2.11,-0.92,0.07,0.98,-0.08,-57.8,436.3,200.0,-3.0,-12.04,-0.2,0.0,0.9857484466130291,2.3737944308638017,0.006744038575092315,0.35,0,1,0.0
3.5926129469989974,53,25.05,98.1,5.8,-1.8,0.8,2.24,-0.89,0.08,0.97,-0.1,-53.3,460.2,277.0,-3.13,-12.93,-0.07,0.0,0.978417088975862,2.5396259567109483,0.0005755726808333028,0.35,0,1,0.0
3.6035897879992262,54,25.06,98.2,5.7,-2.0,0.88,2.38,-0.87,0.09,0.99,-0.11,-48.5,485.8,210.0,-3.26,-13.37,0.12,0.0,1.0001499887516871,2.6824801956398483,0.020734180553092063,0.35,0,1,0.0
3.612638632999733,55,25.07,98.2,5.7,-2.3,0.74,2.48,-0.86,0.08,0.98,-0.11,-43.5,499.8,168.0,-3.39,-13.77,-0.16,0.0,0.9893937537704591,2.727196362567243,0.009778386660426741,0.35,0,1,0.0
3.6236766099991655,56,25.08,98.2,5.6,-2.5,0.6,2.53,-0.88,0.07,0.97,-0.11,-38.5,513.5,149.0,-3.53,-14.16,-0.04,0.0,0.9787236586493656,2.7450500906176556,0.0008738742914534692,0.35,0,1,0.0
3.632479616000637,57,25.09,98.2,5.5,-2.8,0.47,2.57,-0.88,0.06,0.96,-0.11,-33.2,530.1,136.0,-3.68,-14.49,0.06,0.0,0.9681425514871248,2.7568460239919093,0.011225881824620365,0.35,0,1,0.0
3.6435188479990757,58,25.1,98.2,5.5,-3.1,0.46,2.58,-0.85,0.05,0.94,-0.11,-27.9,531.6,60.0,-3.82,-14.53,0.0,0.0,0.9477341399358787,2.755086205547841,0.031001607508349127,0.35,0,1,0.0
3.6526582520000375,59,25.11,98.2,5.4,-3.3,0.57,2.55,-0.9,0.04,0.93,-0.11,-22.5,535.8,1.0,-3.97,-14.43,-0.05,0.0,0.9373366524360393,2.763584628702367,0.04057111310802486,0.35,0,1,0.0
3.6636930579988984,60,25.12,98.3,5.3,-3.6,0.68,2.5,-0.97,0.04,0.93,-0.1,-17.2,528.6,0.0,-4.11,-14.45,0.08,0.0,0.9362157870918436,2.766459831625972,0.04085813888317613,0.35,0,1,0.0
3.672529155999655,61,25.13,98.3,5.2,-3.9,0.54,2.42,-0.98,0.03,0.95,-0.1,-11.9,525.8,-85.0,-4.26,-14.04,0.16,0.0,0.9557196241576292,2.6661582848735743,0.02092721578104273,0.35,0,1,0.0
3.6834675039990543,62,25.14,98.3,5.1,-4.1,0.28,2.32,-0.99,0.02,0.95,-0.1,-6.8,503.1,-190.0,-4.39,-13.38,0.15,0.0,0.9554580053565933,2.5378928267363854,0.020765057890437033,0.35,0,1,0.0
3.6925869530005,63,25.15,98.3,5.0,-4.4,0.17,2.23,-0.99,0.0,0.95,-0.11,-2.0,466.3,-349.0,-4.52,-12.11,0.17,0.0,0.9563472172804185,2.445792305164116,0.01947832904727964,0.35,0,1,0.0
3.703650821998963,64,25.16,98.2,4.9,-4.6,-0.05,2.15,-0.89,0.0,0.97,-0.12,1.8,347.6,-1664.0,-4.6,-5.18,1.84,0.0,0.9773944955850733,2.3274664336999575,0.001537570272227673,0.35,0,1,0.0
3.712449849999757,65,25.17,98.2,4.8,-4.8,-0.33,2.06,-0.76,0.0,0.95,-0.12,2.7,-37.2,-2778.0,-4.58,3.85,0.35,0.0,0.9575489543621255,2.2203828498707154,0.01794181153170571,0.35,0,1,0.0
3.7234558799991646,66,25.18,98.2,4.7,-5.0,0.43,1.86,-0.92,0.03,0.92,-0.13,1.3,-139.9,-955.0,-4.54,3.35,-0.02,0.0,0.929623579735368,2.1191743675309023,0.044949842435293874,0.35,0,1,0.0
3.7325733649995527,67,25.19,98.2,4.6,-5.2,-0.18,1.82,-0.58,0.0,1.05,-0.19,0.2,-100.6,-72.0,-4.51,2.28,-0.2,0.0,1.0670520137275408,1.9186453554526433,0.09062901972574133,0.35,0,1,0.0
3.7437326870003744,68,25.2,98.1,4.6,-5.4,-0.56,2.15,-0.26,0.0,0.97,-0.2,-0.4,-65.8,179.0,-4.5,1.41,-0.23,0.0,0.9904039579888602,2.236895169649217,0.01370134470731954,0.35,0,1,0.0
3.7525863150003715,69,25.21,98.1,4.6,-5.6,-0.52,2.04,-0.08,-0.03,0.96,-0.15,-0.9,-36.8,245.0,-4.49,0.66,-0.22,0.0,0.972111104761179,2.106751053162191,0.00449967834995435,0.35,0,1,0.0
3.7635130189992196,70,25.22,98.0,4.6,-5.8,-0.56,1.8,0.15,-0.03,0.96,-0.19,-1.1,-12.8,215.0,-4.49,0.14,-0.07,0.0,0.979081201943945,1.8910579049833456,0.0024210104561553925,0.35,0,1,0.0
3.7724401649993524,71,25.23,97.9,4.6,-6.0,-0.55,1.76,0.35,-0.03,0.97,-0.18,-1.1,-0.2,121.0,-4.49,-0.03,0.01,0.0,0.9870157040290696,1.8768590783540464,0.010148402290454328,0.35,0,1,0.0
3.7835604089996195,72,25.24,97.9,4.7,-6.2,-0.67,1.56,0.51,-0.03,0.98,-0.16,-1.1,-0.9,23.0,-4.49,0.05,0.06,0.0,0.9934284070832683,1.7727379953055669,0.01622988323775998,0.35,0,1,0.0
3.792429709999851,73,25.25,97.8,4.8,-6.3,-0.85,1.24,0.65,-0.04,1.0,-0.15,-1.2,-5.8,-36.0,-4.48,0.26,0.05,0.0,1.0119782606360672,1.637864463256957,0.034084142054747746,0.35,0,1,0.0
3.803232652000588,74,25.26,97.7,4.9,-6.4,-1.19,0.92,0.76,-0.06,1.0,-0.15,-1.3,-17.4,-108.0,-4.48,0.67,-0.12,0.0,1.0129659421717987,1.6852596239155557,0.03437038711866969,0.35,0,1,0.0
3.8125992589993984,75,25.27,97.5,5.0,-6.4,-1.64,0.6,0.86,-0.07,0.99,-0.14,-1.6,-35.2,-160.0,-4.47,1.19,0.06,0.0,1.002297361066066,1.9465867563507153,0.023227769892678163,0.35,0,1,0.0
3.8237268009997933,76,25.28,97.3,5.1,-6.5,-1.92,0.25,0.98,-0.09,0.98,-0.14,-2.1,-57.3,-216.0,-4.45,1.87,0.15,0.0,0.9940321926376429,2.1700921639414306,0.014663349434970052,0.35,0,1,0.0
3.832587078999495,77,25.29,97.1,5.2,-6.5,-2.24,-0.07,1.23,-0.09,0.96,-0.15,-2.9,-85.4,-282.0,-4.43,2.76,0.03,0.0,0.9758073580374356,2.55644284113688,0.00349025546193249,0.35,0,1,0.0
3.843697690999761,78,25.3,96.9,5.3,-6.4,-2.15,-0.44,1.36,-0.08,0.91,-0.13,-4.0,-124.0,-368.0,-4.39,3.89,0.0,0.0,0.9227133899537819,2.581801696490263,0.0554525390746744,0.35,0,1,0.0
3.8525268560006225,79,25.31,96.7,5.4,-6.3,-1.67,-0.9,1.46,-0.05,0.9,-0.13,-5.5,-156.8,-300.0,-4.35,4.56,0.23,0.0,0.9107140056021978,2.3938462774372122,0.06610288495773331,0.35,0,1,0.0
3.863629662999301,80,25.32,96.6,5.6,-6.2,-1.32,-1.16,1.65,-0.04,0.9,-0.16,-7.2,-181.5,-268.0,-4.3,5.24,0.03,0.0,0.9149863386958299,2.4104978738841485,0.06059394082681924,0.35,0,1,0.0
3.8724511899999925,81,25.33,96.5,5.7,-6.1,-1.07,-1.42,1.75,-0.01,0.88,-0.17,-9.2,-206.8,-250.0,-4.24,5.89,-0.03,0.0,0.8963258336118624,2.4947544969395286,0.07766935699257105,0.35,0,1,0.0
3.8836002400003053,82,25.34,96.4,5.9,-5.9,-0.72,-1.58,1.73,0.01,0.87,-0.19,-11.4,-229.5,-233.0,-4.18,6.51,0.22,0.0,0.8905616205518853,2.4510609947530884,0.08176489865149716,0.35,0,1,0.0
3.8924727289995644,83,25.35,96.4,6.0,-5.7,-0.4,-1.76,1.69,0.03,0.86,-0.21,-13.9,-250.6,-210.0,-4.11,7.04,0.13,0.0,0.8857764955111419,2.472589735479786,0.08481902321839574,0.35,0,1,0.0
3.9034241339995788,84,25.36,96.4,6.2,-5.5,-0.08,-1.89,1.59,0.04,0.86,-0.24,-16.5,-265.4,-148.0,-4.04,7.33,0.09,0.0,0.8937561188601731,2.4711535767734065,0.07530261187197718,0.35,0,1,0.0
3.9125111989997094,85,25.37,96.4,6.3,-5.3,0.19,-1.9,1.47,0.04,0.88,-0.27,-19.2,-272.7,-88.0,-3.96,7.48,0.14,0.0,0.9213576938409967,2.409771773425857,0.046747016153330545,0.35,0,1,0.0
3.9232446030000574,86,25.38,96.4,6.4,-5.1,0.32,-1.89,1.37,0.03,0.91,-0.29,-21.9,-279.2,-76.0,-3.89,7.66,-0.06,0.0,0.9555626614722867,2.3561409125941513,0.012291207551599737,0.35,0,1,0.0
3.932664534999276,87,25.39,96.5,6.5,-4.9,0.31,-1.97,1.29,0.01,0.93,-0.29,-24.8,-283.3,-27.0,-3.81,7.65,0.1,0.0,0.9742176348229383,2.3750999978948255,0.0062364904830708445,0.35,0,1,0.0
3.9434923989992967,88,25.4,96.6,6.6,-4.7,0.41,-2.15,1.2,0.0,0.94,-0.3,-27.6,-277.6,44.0,-3.73,7.43,0.02,0.0,0.9867117106835207,2.496116984438029,0.018355955016780112,0.35,0,1,0.0
3.9525971909988584,89,25.41,96.6,6.7,-4.4,0.41,-2.39,1.16,0.0,0.94,-0.3,-30.3,-268.4,72.0,-3.66,7.2,-0.1,0.0,0.9867117106835207,2.6880848200903187,0.017988835916444512,0.35,0,1,0.0
3.9636398980001104,90,25.42,96.7,6.8,-4.2,0.35,-2.56,1.15,-0.01,0.94,-0.31,-32.9,-259.0,95.0,-3.59,6.9,0.02,0.0,0.9898484732523458,2.8281796265442547,0.020703086515564184,0.35,0,1,0.0
3.9724398879989167,91,25.43,96.8,6.9,-3.9,0.41,-2.71,1.07,-0.03,0.92,-0.29,-35.4,-245.8,127.0,-3.52,6.5,0.03,0.0,0.965090669315583,2.9422950225971563,0.003973623072774712,0.35,0,1,0.0
3.9834494839997205,92,25.44,96.9,7.0,-3.6,0.88,-2.89,0.8,-0.03,0.93,-0.29,-37.8,-229.5,151.0,-3.46,6.04,0.22,0.0,0.9746281342132496,3.1251399968641405,0.005452564988394082,0.35,0,1,0.0
3.9924726329991245,93,25.45,97.0,7.0,-3.3,1.23,-2.95,0.48,0.0,0.98,-0.28,-40.0,-214.8,148.0,-3.41,5.64,-0.19,0.0,1.0192153844992726,3.2319962871265804,0.049039018968928816,0.35,0,1,0.0
4.0034464269992895,94,25.46,97.2,7.0,-3.0,1.26,-3.0,0.05,0.06,0.99,-0.25,-42.0,-201.2,133.0,-3.35,5.32,-0.04,0.0,1.022839185796086,3.254243383645421,0.051609563860427254,0.35,0,1,0.0
4.012402328999087,95,25.47,97.4,6.9,-2.7,1.21,-2.99,-0.52,0.13,1.01,-0.25,-43.9,-188.9,129.0,-3.3,4.97,0.05,0.0,1.0485704554296769,3.2672006366306925,0.07579401682413789,0.35,0,1,0.0
4.023635428000489,96,25.48,97.5,6.8,-2.4,1.19,-2.78,-1.13,0.2,1.03,-0.3,-45.7,-176.7,129.0,-3.25,4.62,0.14,0.0,1.091283647820309,3.228219323404158,0.1161370650304746,0.35,0,1,0.0
4.03266126500057,97,25.49,97.7,6.6,-2.2,1.3,-2.32,-1.72,0.24,1.03,-0.32,-47.4,-161.3,158.0,-3.21,4.15,-0.09,0.0,1.104943437466371,3.167143823699833,0.12720091758300578,0.35,0,1,0.0
4.043605677999949,98,25.5,97.9,6.4,-2.0,1.71,-1.94,-2.56,0.27,1.04,-0.23,-48.9,-138.6,225.0,-3.17,3.41,-0.13,0.0,1.0988175462741756,3.6388597115030414,0.11865352586299427,0.35,0,1,0.0
4.052626554999733,99,25.51,98.1,6.0,-1.9,2.38,-1.75,-3.93,0.4,1.13,-0.17,-50.0,-108.9,276.0,-3.14,2.59,-0.15,0.0,1.2107022755409356,4.916482482425825,0.22592749002715917,0.35,0,1,0.0
4.063638882000305,100,25.52,98.4,5.5,-1.8,3.08,-1.11,-5.46,0.66,1.38,-0.34,-50.9,-76.6,319.0,-3.12,1.64,-0.07,0.0,1.5670354175959138,6.3663254707876815,0.5706154194404947,0.35,0,2,0.0
4.072452866999811,101,25.53,98.6,4.9,-1.9,1.41,0.81,-5.88,0.64,1.58,-0.41,-51.4,-40.8,347.0,-3.11,0.66,-0.02,0.0,1.75331115321839,6.100704877307211,0.7417533319617116,0.35,0,2,0.0
4.083478708998882,102,25.54,98.6,4.4,-2.1,-1.35,2.33,-5.21,0.4,1.43,-0.34,-51.6,-3.3,356.0,-3.12,-0.31,0.06,0.0,1.523318745371434,5.864767685083527,0.5015257056324605,0.35,0,2,0.0
4.092410666000433,103,25.55,98.3,4.0,-2.5,-2.97,2.9,-3.79,0.07,1.32,-0.09,-51.4,17.9,190.0,-3.12,-0.53,-0.14,0.0,1.324915091619082,5.620942981386665,0.2970596108425061,0.35,0,2,0.0
4.103600901999016,104,25.56,98.0,3.8,-2.7,-2.58,2.23,-1.7,-0.29,1.11,0.07,-51.3,18.1,34.0,-3.13,-0.37,0.11,0.0,1.1493911431710269,3.8104199243652923,0.11910494914656189,0.35,0,2,0.0
4.112366932999066,105,25.57,97.8,3.8,-2.9,0.24,0.83,-0.17,-0.51,0.97,0.17,-51.2,1.6,-121.0,-3.13,0.19,0.0,0.0,1.1090085662428402,0.8805679985100526,0.07714792477400767,0.35,0,2,0.0
4.123654783999882,106,25.58,98.1,3.8,-2.9,3.98,-0.97,0.5,-0.61,1.0,0.24,-51.3,-16.9,-155.0,-3.12,0.67,0.15,0.0,1.1957006314291216,4.126899562625677,0.16056319016108334,0.35,0,2,0.0
4.132590392000566,107,25.59,98.6,3.8,-2.7,5.34,-2.65,0.72,-0.67,1.25,0.26,-51.6,-38.7,-216.0,-3.11,1.36,0.29,0.0,1.44187378088375,6.004706487414684,0.39860161282339757,0.35,0,2,0.0
4.143579268999019,108,25.6,99.0,3.8,-2.3,2.68,-4.34,0.93,-0.31,1.33,0.19,-52.2,-66.7,-260.0,-3.09,2.15,0.15,0.0,1.3788038294115665,5.184872226005188,0.3288210281241897,0.35,0,2,0.0
4.1525425179988815,109,25.61,99.1,3.8,-1.8,-0.84,-5.16,0.29,0.04,1.33,0.14,-53.0,-94.1,-263.0,-3.06,2.86,0.13,0.0,1.3379461872586655,5.235962184737396,0.28220411825186287,0.35,0,2,0.0
4.1634222230004525,110,25.62,98.9,3.7,-1.3,-3.71,-5.64,-0.16,0.31,1.2,0.13,-54.1,-117.1,-230.0,-3.03,3.44,0.02,0.0,1.2461942063739504,6.752725375727936,0.18664309461980477,0.35,0,2,0.0
4.172541427000397,111,25.63,98.5,3.6,-0.7,-5.69,-5.57,-0.47,0.44,1.08,0.04,-55.3,-134.1,-198.0,-2.99,3.92,0.01,0.0,1.1668761716651859,7.976333744271236,0.10517855871281934,0.35,0,2,0.0
4.183604276999176,112,25.64,97.9,3.5,-0.2,-6.87,-5.06,-0.47,0.43,0.92,0.01,-56.8,-151.3,-175.0,-2.95,4.33,0.03,0.0,1.0155786527886455,8.545255993824878,0.04519658096044665,0.35,0,2,0.0
4.192562158999863,113,25.65,97.2,3.4,0.2,-6.37,-4.54,-0.3,0.33,0.74,0.04,-58.4,-165.0,-144.0,-2.9,4.66,0.12,0.0,0.8112336284942828,7.8280585077016385,0.24455077314971307,0.35,0,2,0.0
4.203474375999576,114,25.66,96.7,3.3,0.6,-4.69,-4.08,-0.04,0.21,0.65,0.04,-60.1,-175.8,-106.0,-2.86,4.88,-0.06,0.0,0.6842514157822401,6.216437886764413,0.36410232614452065,0.35,0,2,0.0
4.212567931999729,115,25.67,96.4,3.3,1.0,-2.5,-3.69,0.2,0.12,0.61,0.01,-61.9,-181.2,-61.0,-2.81,4.97,0.09,0.0,0.6217716622683925,4.461625264407579,0.4180504380652009,0.35,0,2,0.0
4.223017570999218,116,25.68,96.3,3.3,1.3,-0.14,-3.33,0.44,0.08,0.68,0.02,-63.7,-182.9,-23.0,-2.76,4.98,-0.16,0.0,0.6849817515817485,3.361859604445135,0.347743541776808,0.35,0,2,0.0
4.233361860999139,117,25.69,96.4,3.3,1.6,1.35,-3.17,0.47,0.1,0.79,-0.02,-65.6,-182.1,1.0,-2.71,4.93,0.25,0.0,0.7965550828411052,3.4773984528667405,0.23144680630710224,0.35,0,2,0.0
4.243638280000596,118,25.7,96.5,3.3,1.9,1.45,-2.87,0.51,0.14,0.95,-0.08,-67.4,-181.3,3.0,-2.66,4.92,-0.05,0.0,0.9635870484808313,3.25568733142481,0.0631265438540285,0.35,0,2,0.0
4.252639504999024,119,25.71,96.6,3.4,2.2,0.39,-2.56,0.63,0.16,1.05,-0.1,-69.2,-180.2,15.0,-2.61,4.84,-0.26,0.0,1.0668176976409793,2.6650703555441084,0.039302023199997205,0.35,0,2,0.0
4.2635592000006,120,25.72,96.6,3.5,2.5,-0.52,-2.42,0.68,0.17,1.05,-0.12,-71.0,-176.6,32.0,-2.56,4.73,-0.05,0.0,1.0704204781299729,2.566943707992055,0.0420467076152109,0.35,0,2,0.0
4.27249574400048,121,25.73,96.5,3.6,2.7,-0.8,-2.24,0.8,0.18,1.04,-0.13,-72.7,-172.2,38.0,-2.51,4.63,0.1,0.0,1.063437821407533,2.5095019426172995,0.0343627698749156,0.35,0,2,0.0
4.2836926839991065,122,25.74,96.5,3.7,2.9,-0.55,-2.1,0.94,0.17,1.01,-0.12,-74.4,-169.1,30.0,-2.47,4.54,0.01,0.0,1.031212878119741,2.3656077443227987,0.0020950700553810098,0.35,0,2,0.0
4.292331581998951,123,25.75,96.5,3.9,3.2,-0.27,-2.02,1.04,0.15,0.98,-0.11,-76.1,-166.6,23.0,-2.42,4.53,-0.04,0.0,0.9974968671630001,2.28799038459518,0.030988522083332692,0.35,0,2,0.0
4.303433545999724,124,25.76,96.5,4.0,3.4,-0.22,-1.92,1.11,0.14,0.98,-0.12,-77.7,-166.1,15.0,-2.38,4.48,0.14,0.0,0.9971960689854327,2.2286543024883874,0.030663533855682212,0.35,0,2,0.0
4.311851041999034,125,25.77,96.4,4.1,3.6,-0.44,-1.87,1.2,0.12,0.96,-0.12,-79.4,-164.6,15.0,-2.33,4.44,0.04,0.0,0.9748846085563152,2.265060705588263,0.05191549439910359,0.35,0,2,0.0
4.323259884999061,126,25.78,96.4,4.3,3.8,-0.58,-1.84,1.23,0.12,0.93,-0.13,-81.0,-162.2,23.0,-2.29,4.36,0.19,0.0,0.9466784036831093,2.28799038459518,0.07851926528686337,0.35,0,2,0.0
4.332396935000361,127,25.79,96.4,4.4,4.0,-0.64,-1.82,1.24,0.13,0.91,-0.14,-82.6,-158.1,42.0,-2.25,4.2,-0.21,0.0,0.9298386956886662,2.293381782433967,0.09345179381568047,0.35,0,2,0.0
4.343827126000178,128,25.8,96.4,4.5,4.2,-0.47,-1.74,1.22,0.15,0.89,-0.15,-84.2,-151.4,56.0,-2.21,4.03,0.03,0.0,0.9149316914393117,2.176442050687314,0.10619162210373423,0.35,0,2,0.0
4.356605028999184,129,25.81,96.4,4.7,4.3,-0.3,-1.64,1.24,0.16,0.9,-0.17,-85.6,-144.5,71.0,-2.17,3.81,-0.01,0.0,0.9297849213662265,2.077787284589065,0.08951162433328308,0.35,0,2,0.0
4.368657306999012,130,25.82,96.3,4.8,4.5,-0.11,-1.52,1.27,0.16,0.9,-0.18,-87.0,-136.2,78.0,-2.13,3.6,0.05,0.0,0.9316651759081692,1.9837842624640412,0.08587874239551352,0.35,0,2,0.0
4.376654706000409,131,25.83,96.4,4.9,4.7,-0.02,-1.39,1.28,0.17,0.9,-0.19,-88.3,-127.4,90.0,-2.1,3.31,-0.01,0.0,0.9354143466934854,1.889682513016406,0.08048698017799327,0.35,0,2,0.0
4.38439487299911,132,25.84,96.4,5.0,4.8,-0.01,-1.24,1.26,0.16,0.89,-0.2,-89.5,-116.7,98.0,-2.07,3.03,-0.06,0.0,0.9261209424259879,1.7678518037437414,0.087984776756581,0.35,0,2,0.0
4.392441928999688,133,25.85,96.4,5.1,5.0,-0.08,-1.14,1.2,0.15,0.89,-0.2,-90.6,-106.5,106.0,-2.04,2.73,0.0,0.0,0.9244457799135654,1.6571059109181885,0.08786674048362342,0.35,0,2,0.0
4.403647892999288,134,25.86,96.4,5.2,5.1,-0.15,-1.1,1.15,0.15,0.88,-0.2,-91.6,-96.0,100.0,-2.01,2.46,0.05,0.0,0.9148223871331528,1.598436736314578,0.09554033059875533,0.35,0,2,0.0
4.412548293999862,135,25.87,96.4,5.3,5.2,-0.23,-1.1,1.04,0.15,0.87,-0.2,-92.5,-86.9,92.0,-1.99,2.22,0.04,0.0,0.9052071586106686,1.5311760186209815,0.10305244793881474,0.35,0,2,0.0
4.423405630999696,136,25.88,96.3,5.4,5.3,-0.6,-1.07,0.91,0.16,0.84,-0.23,-93.3,-77.5,92.0,-1.97,1.98,0.08,0.0,0.8854942122905151,1.5274161188098023,0.12031008637378882,0.35,0,2,0.0
4.432003550000445,137,25.89,96.3,5.4,5.4,-0.89,-0.94,0.65,0.18,0.81,-0.25,-94.0,-71.4,57.0,-1.95,1.89,-0.05,0.0,0.8666025617317319,1.448516482474397,0.13641770219392058,0.35,0,2,0.0
4.443392695999137,138,25.9,96.2,5.5,5.5,-1.3,-0.75,0.35,0.22,0.78,-0.27,-94.7,-67.1,48.0,-1.93,1.77,-0.01,0.0,0.8542247947700886,1.5411035007422442,0.14581955977245264,0.35,0,2,0.0
4.452584607999597,139,25.91,96.0,5.5,5.6,-1.67,-0.38,-0.07,0.24,0.74,-0.31,-95.4,-62.8,47.0,-1.92,1.62,0.05,0.0,0.8374365647617734,1.7141178489240465,0.1593556339851525,0.35,0,2,0.0
4.463747193000017,140,25.92,95.8,5.5,5.6,-1.71,0.08,-0.48,0.28,0.73,-0.31,-95.9,-56.4,64.0,-1.9,1.42,-0.22,0.0,0.8410707461325712,1.7778920102188434,0.15260702356206768,0.35,0,2,0.0
4.472535589000472,141,25.93,95.7,5.4,5.5,-1.52,0.63,-0.71,0.3,0.76,-0.31,-96.5,-49.5,59.0,-1.89,1.27,0.02,0.0,0.8738993077008357,1.7920379460268134,0.1173828927539271,0.35,0,2,0.0
4.483654229999956,142,25.94,95.5,5.3,5.4,-1.17,1.17,-0.79,0.3,0.78,-0.28,-96.9,-44.2,50.0,-1.88,1.15,-0.1,0.0,0.8813625814612281,1.833548472225373,0.1077212266136639,0.35,0,2,0.0
4.492525806999765,143,25.95,95.4,5.3,5.3,-0.71,1.53,-0.82,0.27,0.76,-0.29,-97.3,-38.6,60.0,-1.87,0.96,-0.11,0.0,0.8570880934886448,1.8754732736032256,0.12935580029452232,0.35,0,2,0.0
4.503449497000474,144,25.96,95.4,5.2,5.1,0.0,1.96,-0.84,0.23,0.77,-0.32,-97.7,-33.4,57.0,-1.86,0.81,-0.01,0.0,0.8649855490122363,2.1324164696418944,0.11902917787551215,0.35,0,2,0.0
4.512527811999462,145,25.97,95.4,5.1,4.9,0.46,2.5,-0.99,0.17,0.71,-0.33,-98.0,-29.9,30.0,-1.85,0.79,-0.09,0.0,0.8011866199581719,2.727947946717459,0.17917154479098507,0.35,0,2,0.0
4.523469675999877,146,25.98,95.4,5.0,4.6,0.96,2.87,-1.28,0.16,0.7,-0.31,-98.3,-26.8,28.0,-1.84,0.7,-0.12,0.0,0.782112523873643,3.2858636612008114,0.19428072805800356,0.35,0,2,0.0
4.532634801998938,147,25.99,95.5,4.9,4.3,1.27,3.07,-1.35,0.17,0.77,-0.26,-98.5,-26.8,1.0,-1.83,0.73,0.0,0.0,0.8303011501858829,3.5861260435182696,0.1431702597108484,0.35,0,2,0.0
4.543986014999973,148,26.0,95.6,4.8,4.0,1.63,2.92,-1.14,0.16,0.83,-0.16,-98.7,-27.6,-5.0,-1.83,0.78,-0.08,0.0,0.8602906485601246,3.5331147731145105,0.11091714610987458,0.35,0,2,0.0
4.552661364999949,149,26.01,95.8,4.8,3.7,2.11,2.46,-0.8,0.15,0.9,-0.1,-99.1,-28.8,-10.0,-1.82,0.81,-0.14,0.0,0.917877987534291,3.338218087543113,0.052263210992994025,0.35,0,2,0.0
4.564175592000538,150,26.02,96.0,4.8,3.5,2.54,1.89,-0.54,0.11,0.93,-0.13,-99.4,-31.1,-20.0,-1.81,0.86,-0.02,0.0,0.9454628496138809,3.2117440744866332,0.024184781935135957,0.35,0,2,0.0
4.572430775000612,151,26.03,96.3,4.8,3.3,2.56,1.48,-0.6,0.05,0.93,-0.21,-99.7,-32.1,-2.0,-1.8,0.84,0.03,0.0,0.9547250913221041,3.0172835465033776,0.014624089422374476,0.35,0,2,0.0
4.584271539999463,152,26.04,96.6,4.7,3.2,2.15,1.45,-0.79,0.02,0.98,-0.31,-100.1,-30.4,6.0,-1.79,0.81,0.01,0.0,1.028056418685278,2.7109223522631556,0.05753309318198352,0.35,0,2,0.0
4.592654644000504,153,26.05,96.7,4.6,3.0,1.47,1.64,-1.04,0.0,0.98,-0.36,-100.3,-27.0,39.0,-1.79,0.64,-0.06,0.0,1.0440306508910548,2.4355902775302742,0.07203717888000505,0.35,0,2,0.0
4.604190354999446,154,26.06,96.8,4.5,2.8,1.27,1.99,-1.32,0.03,1.05,-0.37,-100.6,-21.4,47.0,-1.78,0.51,-0.12,0.0,1.1136875683960918,2.704699613635496,0.1388602144573412,0.35,0,2,0.0
4.612545092999426,155,26.07,97.0,4.4,2.6,1.69,2.3,-1.17,0.07,1.22,-0.29,-100.7,-16.2,52.0,-1.78,0.36,0.0,0.0,1.2559458587057006,3.084639363037436,0.27549613467161105,0.35,0,2,0.0
4.624690829999963,156,26.08,97.2,4.4,2.3,2.13,2.32,-0.48,0.05,1.35,-0.17,-100.9,-10.0,50.0,-1.77,0.23,-0.03,0.0,1.3615799645999496,3.1858593817053507,0.3735076357545428,0.35,0,3,0.0
4.632648947999769,157,26.09,97.4,4.4,2.1,2.39,2.05,0.26,0.0,1.36,-0.17,-101.0,-9.2,10.0,-1.77,0.27,-0.15,0.0,1.3705838172107536,3.159461979514867,0.37486125859804,0.35,0,3,0.0
4.644262265999714,158,26.1,97.6,4.4,1.9,2.56,1.68,0.64,0.0,1.37,-0.15,-101.0,-8.4,24.0,-1.77,0.16,-0.01,0.0,1.3781872151489434,3.128194367362744,0.37481536340550514,0.35,0,3,0.0
4.652675139999701,159,26.11,97.8,4.4,1.8,2.8,1.51,1.07,0.04,1.57,-0.11,-101.1,-4.4,38.0,-1.77,0.04,-0.13,0.0,1.5743570116082313,3.356337289367682,0.5595654566674972,0.35,0,3,0.0
4.664316448999671,160,26.12,98.1,4.6,1.6,2.66,1.46,2.1,0.04,1.81,0.02,-101.1,0.5,39.0,-1.77,-0.04,-0.03,0.0,1.8105524018928587,3.6901490484802912,0.7798456300130823,0.35,0,3,0.0
4.6726603629995225,161,26.13,98.3,4.9,1.6,1.81,0.95,3.18,0.0,1.78,0.05,-101.1,1.4,10.0,-1.77,-0.03,-0.09,0.0,1.7807021087200408,3.780343899700132,0.7349954301034591,0.35,0,3,0.0
4.6842771579995315,162,26.14,98.4,5.3,1.5,0.25,0.72,3.42,0.05,1.53,-0.03,-101.1,3.0,25.0,-1.77,-0.12,0.02,0.0,1.5311107079502775,3.5038978295606733,0.47569594874702203,0.35,0,3,0.0
4.692586764000225,163,26.15,98.3,5.6,1.5,-1.15,1.07,2.83,0.18,1.18,-0.06,-101.0,9.3,62.0,-1.77,-0.36,-0.08,0.0,1.1951568934662928,3.2367112938907603,0.13694729157777674,0.35,0,3,0.0
4.704165232000378,164,26.16,98.2,5.8,1.4,-1.34,1.57,1.8,0.32,0.94,-0.02,-100.8,19.6,107.0,-1.78,-0.73,-0.1,0.0,0.9931767214348108,2.7387040730973475,0.06373222284463109,0.35,0,3,0.0
4.712650969000606,165,26.17,98.0,6.0,1.2,-0.5,2.33,0.71,0.43,0.82,-0.03,-100.5,37.0,152.0,-1.79,-1.21,0.0,0.0,0.9263908462414769,2.486563894212252,0.12790773607720562,0.35,0,3,0.0
4.724659362000239,166,26.18,98.0,6.0,0.9,0.58,3.29,-0.02,0.49,0.79,-0.06,-100.0,57.3,194.0,-1.81,-1.82,-0.07,0.0,0.9315578350268974,3.340793318958837,0.12028593234594953,0.35,0,3,0.0
4.732476015999055,167,26.19,98.1,6.1,0.5,1.61,4.33,-0.4,0.47,0.85,-0.05,-99.3,79.4,211.0,-1.83,-2.43,-0.19,0.0,0.9725739046468396,4.636917079267215,0.07768446547148722,0.35,0,3,0.0
4.744282095000017,168,26.2,98.2,6.1,0.1,2.22,5.13,-0.54,0.37,0.9,-0.04,-98.3,103.1,237.0,-1.86,-3.12,-0.18,0.0,0.973909646733207,5.615772431286723,0.07482174891741733,0.35,0,3,0.0
4.752769929000351,169,26.21,98.4,6.1,-0.4,1.91,5.5,-0.42,0.27,0.98,0.0,-97.1,127.5,238.0,-1.89,-3.75,0.0,0.0,1.0165136496870073,5.837336721485236,0.031573391044344756,0.35,0,3,0.0
4.764297571999123,170,26.22,98.5,6.2,-0.9,1.19,5.46,-0.27,0.16,1.02,0.01,-95.7,150.3,230.0,-1.93,-4.37,-0.14,0.0,1.0325211862233143,5.594693914773176,0.015254537417876968,0.35,0,3,0.0
4.772666931999993,171,26.23,98.5,6.2,-1.5,0.61,5.38,-0.2,0.07,1.04,0.01,-94.1,171.4,210.0,-1.98,-4.9,-0.37,0.0,1.042401074443038,5.418163895638448,0.005267156214190161,0.35,0,3,0.0
4.784451698000339,172,26.24,98.5,6.3,-2.0,0.28,5.2,-0.2,0.01,1.06,0.03,-92.2,194.1,231.0,-2.04,-5.57,-0.24,0.0,1.0604715932074749,5.211372180146031,0.01254729529924159,0.35,0,3,0.0
4.792488889999731,173,26.25,98.5,6.3,-2.5,0.08,4.8,-0.28,-0.03,1.04,0.07,-90.1,219.5,252.0,-2.1,-6.3,-0.09,0.0,1.0427847332982967,4.808825220363077,0.005036773317737886,0.35,0,3,0.0
4.804243016998953,174,26.26,98.4,6.4,-3.0,0.29,4.21,-0.55,-0.05,1.0,0.05,-87.7,245.7,250.0,-2.16,-6.97,-0.11,0.0,1.002496882788171,4.255666810266048,0.044418131351306345,0.35,0,3,0.0
4.812728089000302,175,26.27,98.4,6.3,-3.4,0.48,3.67,-0.88,-0.05,0.99,0.02,-85.1,268.6,226.0,-2.24,-7.54,-0.06,0.0,0.9914635646356349,3.8044316264062363,0.0543424205137657,0.35,0,3,0.0
4.824400727999091,176,26.28,98.4,6.3,-3.7,0.35,3.25,-1.15,-0.02,0.95,0.01,-82.2,288.8,217.0,-2.32,-8.12,-0.13,0.0,0.9502631214563679,3.465183977799736,0.09363200641917202,0.35,0,3,0.0
4.832642843999565,177,26.29,98.4,6.2,-4.0,0.2,2.95,-1.31,0.0,0.92,0.01,-79.2,311.4,226.0,-2.4,-8.75,-0.3,0.0,0.9200543462209175,3.233975881171658,0.12136396602152988,0.35,0,3,0.0
4.84420978199887,178,26.3,98.4,6.1,-4.3,0.02,2.71,-1.36,0.02,0.86,0.0,-75.9,333.0,220.0,-2.49,-9.33,-0.03,0.0,0.8602325267042626,3.0321774354414024,0.17756206982742107,0.35,0,3,0.0
4.852621770000042,179,26.31,98.4,6.0,-4.6,0.05,2.6,-1.39,0.03,0.8,-0.03,-72.4,359.4,266.0,-2.59,-10.13,-0.15,0.0,0.8011242100947893,2.9486607129339246,0.23193697870815644,0.35,0,3,0.0
4.864255864998995,180,26.32,98.4,5.9,-4.9,0.28,2.49,-1.4,0.03,0.78,-0.03,-69.0,383.7,246.0,-2.69,-10.69,0.02,0.0,0.7811529939774923,2.870278732109479,0.24687003092894433,0.35,0,3,0.0
4.872679247000633,181,26.33,98.3,5.8,-5.2,0.66,2.39,-1.44,0.03,0.79,-0.05,-65.1,405.1,259.0,-2.81,-11.45,-0.15,0.0,0.792148975887743,2.867280941937849,0.23115656803831974,0.35,0,3,0.0
4.884307279000495,182,26.34,98.4,5.7,-5.4,0.83,2.22,-1.43,0.0,0.82,-0.06,-60.8,434.8,276.0,-2.93,-12.16,-0.01,0.0,0.8221921916437785,2.7680679182418917,0.19709108523663843,0.35,0,3,0.0
4.892530646000523,183,26.35,98.4,5.6,-5.7,0.8,2.03,-1.38,-0.02,0.86,-0.07,-56.3,455.0,219.0,-3.06,-12.74,-0.24,0.0,0.863075894692929,2.5817242300447196,0.15308323454373818,0.35,0,3,0.0
4.904375894999248,184,26.36,98.5,5.5,-5.9,0.64,1.78,-1.33,-0.04,0.9,-0.08,-51.6,484.8,284.0,-3.19,-13.57,-0.11,0.0,0.904433524367601,2.3123364807051763,0.1094910927716849,0.35,0,3,0.0
4.9125870970001415,185,26.37,98.5,5.4,-6.1,0.24,1.64,-1.21,-0.07,0.91,-0.11,-46.0,507.4,203.0,-3.33,-14.0,-0.42,0.0,0.9192932067626738,2.052145219033,0.09273878216907994,0.35,0,3,0.0
4.924291970999548,186,26.38,98.5,5.3,-6.2,0.0,1.5,-1.14,-0.09,0.9,-0.11,-40.8,526.5,195.0,-3.47,-14.53,-0.07,0.0,0.9111531155629113,1.8840382161729097,0.09886129590146564,0.35,0,3,0.0
4.932627862999652,187,26.39,98.5,5.2,-6.4,-0.14,1.32,-1.1,-0.09,0.89,-0.11,-35.4,549.9,250.0,-3.62,-15.31,-0.05,0.0,0.9012768719988326,1.723948955160796,0.10656278867623359,0.35,0,3,0.0
4.9440508459993,188,26.4,98.5,5.1,-6.5,-0.15,1.11,-1.04,-0.09,0.9,-0.11,-29.8,568.9,159.0,-3.78,-15.57,-0.09,0.0,0.9111531155629113,1.52846328055338,0.09475281420991166,0.35,0,3,0.0
4.952727514999424,189,26.41,98.4,5.0,-6.6,-0.07,1.01,-0.89,-0.09,0.91,-0.14,-24.0,585.7,173.0,-3.94,-16.08,0.13,0.0,0.9250945897582582,1.3479985163196582,0.07919511321427353,0.35,0,3,0.0
4.964249999999083,190,26.42,98.4,4.9,-6.7,0.01,0.81,-0.73,-0.08,0.92,-0.13,-18.1,593.1,127.0,-4.1,-16.35,0.09,0.0,0.9325770745627409,1.0904586191139947,0.07027837584159502,0.35,0,3,0.0
4.972658550999768,191,26.43,98.4,4.9,-6.8,-0.03,0.58,-0.57,-0.05,0.93,-0.15,-12.0,605.3,58.0,-4.26,-16.37,-0.18,0.0,0.9433451118228153,0.813756720402357,0.05832013180989004,0.35,0,3,0.0
4.984261767000135,192,26.44,98.4,4.9,-6.9,-0.24,0.4,-0.31,-0.02,0.96,-0.18,-6.0,595.3,-84.0,-4.43,-15.88,0.2,0.0,0.976933979345585,0.5600892785976179,0.024236639001377847,0.35,0,3,0.0
4.992616683999586,193,26.45,98.4,4.8,-6.9,-0.36,0.31,-0.05,0.0,0.95,-0.2,-0.3,557.3,-439.0,-4.57,-14.01,0.84,0.0,0.9708243919473799,0.47770283649984746,0.02973930187159135,0.35,0,3,0.0
5.004064372000357,194,26.46,98.3,4.9,-6.9,-0.55,0.28,0.2,-0.03,0.95,-0.22,3.6,265.0,-3395.0,-4.63,0.24,1.8,0.0,0.975602378020882,0.6487680633323438,0.02446208948212747,0.35,0,3,0.0
5.012605443998837,195,26.47,98.3,4.9,-6.9,-0.83,-0.08,0.3,0.02,0.89,-0.2,2.9,-154.6,-2566.0,-4.58,5.05,-0.14,0.0,0.9124143795447329,0.8861715409558129,0.08589708619911107,0.35,0,3,0.0
5.024117099999785,196,26.48,98.2,4.9,-6.9,-0.65,0.1,0.43,0.02,0.98,-0.23,1.2,-164.1,-689.0,-4.53,4.04,-0.17,0.0,1.0068266980965492,0.7857480512225278,0.008344927705651095,0.35,0,3,0.0
5.032690179999918,197,26.49,98.1,5.0,-6.9,-1.86,0.02,1.04,0.0,0.96,-0.26,-0.1,-136.7,-122.0,-4.5,3.57,0.0,0.0,0.9945853407325085,2.131103000795598,0.0038185010652218576,0.35,0,3,0.0
5.044121340999482,198,26.5,97.9,5.1,-6.9,-1.22,0.26,1.16,-0.01,0.89,-0.21,-1.4,-127.4,-2.0,-4.46,3.41,0.09,0.0,0.9144943958275523,1.7034083479894069,0.0822312570507745,0.35,0,3,0.0
5.052695526999742,199,26.51,97.9,5.2,-6.9,-0.84,-0.14,1.22,-0.05,0.93,-0.22,-2.7,-128.7,-49.0,-4.43,3.63,0.09,0.0,0.9569743988216195,1.4878171930717832,0.03895622897557316,0.35,0,3,0.0
5.064276499999323,200,26.52,97.8,5.3,-6.9,-1.07,-0.29,1.41,-0.06,0.95,-0.26,-4.1,-148.3,-184.0,-4.39,4.36,0.0,0.0,0.9867623827447011,1.7936276090649363,0.008984880151441721,0.35,0,3,0.0
5.072665628998948,201,26.53,97.6,5.5,-6.8,-1.34,-0.33,1.58,-0.07,0.94,-0.23,-5.8,-172.7,-215.0,-4.34,4.98,0.05,0.0,0.9702576977277738,2.097832214453768,0.02497977386500161,0.35,0,3,0.0
5.084260097999504,202,26.54,97.5,5.6,-6.8,-1.16,-0.49,1.58,-0.09,0.91,-0.23,-7.7,-199.4,-269.0,-4.28,5.81,0.24,0.0,0.9429209935090002,2.020420748260124,0.05127014852209977,0.35,0,3,0.0
5.09257128399986,203,26.55,97.4,5.8,-6.7,-1.01,-0.84,1.6,-0.08,0.9,-0.21,-9.9,-233.8,-333.0,-4.22,6.82,0.1,0.0,0.9276313923105449,2.070193227696391,0.06522855472614386,0.35,0,3,0.0
5.104107834000388,204,26.56,97.3,5.9,-6.6,-0.84,-1.04,1.64,-0.04,0.88,-0.21,-12.5,-273.7,-390.0,-4.14,7.98,0.27,0.0,0.9055937278934744,2.115844984870111,0.08552089476035019,0.35,0,3,0.0
5.112673056999483,205,26.57,97.3,6.1,-6.4,-0.57,-1.21,1.67,0.0,0.86,-0.22,-15.6,-316.1,-402.0,-4.05,9.07,0.0,0.0,0.8876936408468858,2.1396027668705235,0.10135256217079991,0.35,0,3,0.0
5.12417732799986,206,26.58,97.3,6.2,-6.3,-0.21,-1.26,1.64,0.02,0.84,-0.25,-19.0,-352.6,-359.0,-3.96,9.97,0.1,0.0,0.8766413177577246,2.0787736769547567,0.11015678755476199,0.35,0,3,0.0
5.132651341999008,207,26.59,97.3,6.4,-6.1,0.27,-1.08,1.47,0.05,0.85,-0.27,-22.7,-389.5,-381.0,-3.85,11.06,0.06,0.0,0.8932524839036272,1.8439631232755171,0.0916747089806822,0.35,0,3,0.0
5.144363531000636,208,26.6,97.3,6.5,-6.0,0.7,-0.83,1.2,0.09,0.88,-0.28,-26.9,-420.7,-277.0,-3.73,11.64,0.03,0.0,0.9278469701410896,1.6183015788165072,0.055938618288355335,0.35,0,3,0.0
5.15259366600003,209,26.61,97.4,6.6,-5.9,0.79,-0.5,0.94,0.13,0.91,-0.3,-31.2,-438.4,-218.0,-3.61,12.15,-0.06,0.0,0.9669539802906858,1.325782787639061,0.01649497597598404,0.35,0,3,0.0
5.164127218000431,210,26.62,97.5,6.7,-5.9,0.48,-0.17,0.84,0.13,0.93,-0.32,-35.2,-449.6,-99.0,-3.49,12.13,-0.02,0.0,0.9920685460188727,0.9822932352408825,0.00844719795715887,0.35,0,3,0.0
5.1727096020003955,211,26.63,97.5,6.8,-5.9,0.36,0.05,0.77,0.1,0.89,-0.34,-40.1,-439.5,49.0,-3.37,11.81,0.03,0.0,0.9579665964948882,0.85146931829632,0.025141656535489054,0.35,0,3,0.0
5.184334049999961,212,26.64,97.6,6.8,-5.9,0.87,0.14,0.62,0.06,0.89,-0.34,-44.4,-423.0,145.0,-3.26,11.24,-0.02,0.0,0.9546203433826456,1.0774506949276148,0.02791815145477705,0.35,0,3,0.0
5.192543633000241,213,26.65,97.7,6.9,-5.9,1.55,0.03,0.43,0.03,0.92,-0.33,-48.5,-402.2,183.0,-3.15,10.68,-0.13,0.0,0.9778547949465708,1.608819442945665,0.00459002589303481,0.35,0,3,0.0
5.204146979000143,214,26.66,97.9,6.9,-5.9,1.97,0.01,0.27,0.03,0.99,-0.34,-52.4,-378.0,256.0,-3.05,9.85,0.03,0.0,1.0471867073258714,1.9884416008522856,0.0634470487565405,0.35,0,3,0.0
5.212591306999457,215,26.67,98.1,6.9,-5.9,2.07,-0.07,0.05,0.03,1.06,-0.32,-55.9,-340.8,334.0,-2.96,8.82,-0.15,0.0,1.1076551810017412,2.071786668554463,0.12143721198376212,0.35,0,3,0.0
5.224010928999633,216,26.68,98.3,6.9,-5.9,1.7,-0.3,-0.28,0.03,1.09,-0.27,-59.1,-309.3,298.0,-2.87,8.1,-0.2,0.0,1.1233432244866215,1.7488281790959337,0.1343827503592696,0.35,0,3,0.0
5.232722787999592,217,26.69,98.5,6.8,-5.8,1.51,-0.69,-0.77,0.01,1.08,-0.27,-62.0,-280.5,303.0,-2.8,7.24,-0.23,0.0,1.1132834320154055,1.8300546439929055,0.12183649873029256,0.35,0,3,0.0
5.244207947000177,218,26.7,98.6,6.7,-5.8,1.36,-0.89,-1.36,0.07,1.12,-0.3,-64.5,-246.4,336.0,-2.73,6.26,-0.01,0.0,1.1615937327654622,2.119268741806947,0.16674386349074233,0.35,0,3,0.0
5.252707494999413,219,26.71,98.8,6.5,-5.7,1.42,-0.97,-1.84,0.09,1.11,-0.27,-66.8,-212.2,336.0,-2.68,5.35,-0.09,0.0,1.1459057552870568,2.5185114651317355,0.14803476829209028,0.35,0,3,0.0
5.264066718000322,220,26.72,99.0,6.3,-5.6,1.72,-1.13,-2.33,0.11,1.14,-0.22,-68.6,-176.1,362.0,-2.63,4.31,-0.04,0.0,1.1662332528272377,3.108729644082933,0.16499502051562565,0.35,0,3,0.0
5.272589596999751,221,26.73,99.2,6.0,-5.6,2.03,-1.05,-2.84,0.13,1.2,-0.16,-70.1,-136.3,390.0,-2.6,3.2,-0.08,0.0,1.217579566188592,3.6454080704360106,0.21201450719944037,0.35,0,3,0.0
5.284041368000544,222,26.74,99.4,5.7,-5.5,2.68,-1.11,-3.55,0.17,1.3,-0.08,-71.2,-94.5,407.0,-2.57,2.06,-0.34,0.0,1.3135067567393781,4.584430171787984,0.301782863795222,0.35,0,3,0.0
5.292713288999948,223,26.75,99.7,5.3,-5.5,3.09,-1.03,-4.25,0.29,1.5,-0.12,-71.9,-53.2,409.0,-2.56,0.95,-0.21,0.0,1.5324816475246938,5.3545774809969835,0.510342599488927,0.35,0,4,0.0
5.304191559000174,224,26.76,99.9,4.8,-5.5,1.94,-0.5,-4.41,0.32,1.66,-0.13,-72.1,-11.3,423.0,-2.56,-0.22,-0.23,0.0,1.6955530071336606,4.843727903175404,0.659945679915936,0.35,0,4,0.0
5.312744323999141,225,26.77,100.0,4.4,-5.5,-0.56,-0.22,-3.63,0.16,1.59,-0.04,-72.0,22.7,312.0,-2.56,-0.86,-0.09,0.0,1.5985305752471548,3.6795244257920072,0.5516647830688415,0.35,0,4,0.0
5.324091327000133,226,26.78,99.8,4.1,-5.5,-2.19,-0.48,-2.46,-0.02,1.37,0.09,-71.6,40.3,195.0,-2.58,-1.22,-0.06,0.0,1.3730986854556377,3.328377983342637,0.31970823541177795,0.35,0,4,0.0
5.332677677999527,227,26.79,99.6,4.0,-5.5,-2.07,-1.33,-1.21,-0.2,1.15,0.14,-71.2,46.4,76.0,-2.59,-1.23,0.11,0.0,1.175627492022877,2.741878917822594,0.11979230113943706,0.35,0,4,0.0
5.344163468998886,228,26.8,99.5,3.8,-5.3,-1.11,-2.67,-0.4,-0.28,0.96,0.21,-70.7,38.6,-67.0,-2.6,-0.82,0.02,0.0,1.0218121158021176,2.919075196016711,0.03334261357969592,0.35,0,4,0.0
5.352609839999786,229,26.81,99.4,3.8,-4.9,0.05,-4.04,0.08,-0.24,0.97,0.23,-70.5,16.9,-200.0,-2.6,-0.06,0.2,0.0,1.025377979088687,4.04110133503232,0.029181215287263917,0.35,0,4,0.0
5.364592721000008,230,26.82,99.5,3.7,-4.5,-0.32,-5.02,0.52,-0.21,1.02,0.21,-70.5,-9.3,-186.0,-2.6,0.38,0.02,0.0,1.0623558725775464,5.056995155228052,0.007640744637563479,0.35,0,4,0.0
5.372507924999809,231,26.83,99.4,3.7,-3.9,-1.47,-5.72,0.45,-0.12,0.98,0.16,-70.7,-17.2,-118.0,-2.59,0.6,-0.01,0.0,1.000199980003999,5.9229891102381735,0.053424844977264296,0.35,0,4,0.0
5.384052024999619,232,26.84,99.3,3.6,-3.3,-2.2,-6.03,-0.12,0.01,0.95,0.11,-70.9,-30.1,-135.0,-2.58,0.99,-0.03,0.0,0.9563994981178106,6.419914329646464,0.09528082032618368,0.35,0,4,0.0
5.396659329000613,233,26.85,99.0,3.5,-2.8,-3.21,-5.95,-0.7,0.15,0.94,0.01,-71.3,-45.2,-152.0,-2.57,1.43,-0.11,0.0,0.9519453765841819,6.796808074383152,0.09774024302261619,0.35,0,4,0.0
5.40458228100033,234,26.86,98.7,3.3,-2.2,-4.26,-5.58,-1.0,0.23,0.91,-0.07,-71.9,-61.4,-146.0,-2.55,1.82,-0.1,0.0,0.9412226091632097,7.091121208948554,0.10629375023471654,0.35,0,4,0.0
5.412615810999341,235,26.87,98.3,3.1,-1.7,-4.17,-4.89,-1.05,0.28,0.86,-0.12,-72.6,-73.7,-130.0,-2.53,2.14,0.05,0.0,0.9123595782365634,6.511796987007503,0.13245364553813554,0.35,0,4,0.0
5.423914472999968,236,26.88,97.9,3.0,-1.3,-3.33,-4.12,-0.87,0.3,0.83,-0.14,-73.4,-85.8,-124.0,-2.51,2.48,-0.07,0.0,0.8935882720806042,5.368444839988579,0.14820045266021287,0.35,0,4,0.0
5.432546027999706,237,26.89,97.6,2.8,-0.9,-2.44,-3.35,-0.54,0.27,0.83,-0.13,-74.4,-99.7,-135.0,-2.48,2.86,-0.09,0.0,0.8824397996464121,4.17943776123057,0.15616194659251692,0.35,0,4,0.0
5.444112176999624,238,26.9,97.5,2.8,-0.6,-1.28,-2.83,-0.17,0.25,0.84,-0.1,-75.4,-112.2,-127.0,-2.45,3.2,0.03,0.0,0.8820997676000146,3.110659094147091,0.1533719390661361,0.35,0,4,0.0
5.452605631999177,239,26.91,97.4,2.7,-0.4,-0.32,-2.45,0.13,0.23,0.88,-0.13,-76.7,-124.7,-129.0,-2.42,3.56,0.0,0.0,0.9188035698668132,2.4742271520618315,0.1143347740633508,0.35,0,4,0.0
5.464041543998974,240,26.92,97.4,2.7,-0.1,0.1,-2.04,0.44,0.21,0.94,-0.14,-78.0,-137.4,-125.0,-2.38,3.88,0.22,0.0,0.9732933781753578,2.0893061049066026,0.0586480664397101,0.35,0,4,0.0
5.472589343999061,241,26.93,97.4,2.8,0.0,-0.01,-1.85,0.74,0.17,0.96,-0.11,-79.5,-149.7,-118.0,-2.34,4.19,0.12,0.0,0.9811218069128828,1.9925360724463688,0.04980324494814148,0.35,0,4,0.0
5.483984750999298,242,26.94,97.4,2.9,0.2,-0.43,-1.78,0.92,0.15,0.95,-0.12,-81.0,-159.7,-99.0,-2.29,4.44,-0.07,0.0,0.9692264957170743,2.049316959379393,0.06046458502107088,0.35,0,4,0.0
5.492561623999791,243,26.95,97.4,3.0,0.3,-0.81,-1.65,0.92,0.14,0.9,-0.14,-82.7,-167.4,-80.0,-2.25,4.63,0.06,0.0,0.9215204826806618,2.0554804791094465,0.10600718609633364,0.35,0,4,0.0
5.504133328000535,244,26.96,97.3,3.1,0.5,-0.91,-1.44,0.86,0.13,0.88,-0.14,-84.4,-173.1,-65.0,-2.2,4.77,0.06,0.0,0.900499861188218,1.908219064992277,0.1244872514370019,0.35,0,4,0.0
5.512388036999255,245,26.97,97.2,3.2,0.7,-0.85,-1.24,0.83,0.14,0.87,-0.14,-86.2,-177.7,-41.0,-2.15,4.85,-0.03,0.0,0.8922443611477743,1.7172652678022693,0.13008789644789676,0.35,0,4,0.0
5.524415923000561,246,26.98,97.2,3.3,0.8,-0.75,-1.08,0.83,0.14,0.87,-0.15,-87.9,-178.7,-13.0,-2.1,4.85,0.03,0.0,0.8938679992034617,1.5549276510500416,0.12589497322436505,0.35,0,4,0.0
5.536660126999777,247,26.99,97.1,3.4,0.9,-0.52,-1.0,0.78,0.16,0.86,-0.16,-89.7,-175.9,28.0,-2.06,4.69,-0.03,0.0,0.8892693630166283,1.370693255254435,0.12788373722297453,0.35,0,4,0.0
5.544603537000512,248,27.0,97.1,3.4,1.0,-0.34,-0.9,0.79,0.17,0.88,-0.18,-90.8,-171.0,74.0,-2.01,4.42,-0.07,0.0,0.914166286842826,1.244869471069156,0.1009270771288413,0.35,0,4,0.0
5.552541249000569,249,27.01,97.1,3.5,1.1,-0.07,-0.74,0.79,0.16,0.9,-0.18,-93.0,-156.5,112.0,-1.97,4.11,0.0,0.0,0.9316651759081692,1.0847119433287347,0.08175962430222816,0.35,0,4,0.0
5.564220402000501,250,27.02,97.1,3.6,1.2,0.03,-0.66,0.86,0.14,0.91,-0.2,-94.5,-143.8,118.0,-1.93,3.77,-0.02,0.0,0.9421783270697751,1.0844814429025513,0.0698215436778099,0.35,0,4,0.0
5.5725516749989765,251,27.03,97.1,3.6,1.2,-0.03,-0.57,0.96,0.12,0.92,-0.21,-95.9,-132.8,118.0,-1.89,3.45,0.0,0.0,0.951262319236918,1.116870628139177,0.059522800480453664,0.35,0,4,0.0
5.584190841000236,252,27.04,97.1,3.7,1.3,-0.2,-0.56,1.02,0.11,0.91,-0.23,-97.1,-119.6,132.0,-1.86,3.07,-0.17,0.0,0.9450396817065408,1.1806777714516354,0.0644305292506141,0.35,0,4,0.0
5.596621396000046,253,27.05,97.0,3.8,1.4,-0.15,-0.56,0.93,0.1,0.88,-0.23,-98.2,-105.5,139.0,-1.83,2.69,0.04,0.0,0.9150409826887537,1.0959014554237987,0.09254064370303328,0.35,0,4,0.0
5.604417513999579,254,27.06,97.0,3.9,1.4,-0.21,-0.67,0.9,0.1,0.9,-0.23,-99.2,-90.3,150.0,-1.81,2.26,-0.05,0.0,0.9342911751697112,1.1414902540100813,0.07182464219763429,0.35,0,4,0.0
5.61667171299996,255,27.07,97.0,4.0,1.5,-0.38,-0.74,0.8,0.11,0.86,-0.25,-100.0,-75.9,136.0,-1.79,1.92,0.07,0.0,0.9023303164584463,1.1541230437002807,0.10170979089072107,0.35,0,4,0.0
5.624660063000192,256,27.08,97.0,4.0,1.6,-0.51,-0.8,0.55,0.11,0.85,-0.26,-100.6,-63.7,132.0,-1.77,1.55,0.03,0.0,0.8956561840349231,1.0966312051004203,0.10621624484795933,0.35,0,4,0.0
5.632469324998965,257,27.09,96.9,4.1,1.7,-0.81,-0.78,0.24,0.14,0.83,-0.27,-101.2,-50.7,134.0,-1.76,1.19,0.17,0.0,0.8839683252243826,1.149826073804208,0.11554602158532978,0.35,0,4,0.0
5.644193439000446,258,27.1,96.8,4.1,1.8,-1.32,-0.64,-0.19,0.18,0.79,-0.3,-101.6,-38.5,114.0,-1.75,0.92,-0.1,0.0,0.864002314811714,1.4792227688891217,0.1328017913580385,0.35,0,4,0.0
5.652679283999532,259,27.11,96.7,4.0,1.8,-1.83,-0.33,-0.67,0.23,0.73,-0.34,-101.9,-29.7,95.0,-1.74,0.7,-0.05,0.0,0.8374962686484041,1.9765373763225427,0.15612168077092137,0.35,0,4,0.0
5.664210668999658,260,27.12,96.5,3.9,1.8,-2.01,0.16,-1.12,0.27,0.69,-0.38,-102.2,-22.5,75.0,-1.74,0.54,-0.01,0.0,0.832706430862642,2.306534196581529,0.15769328818554984,0.35,0,4,0.0
5.672600672000044,261,27.13,96.3,3.8,1.7,-1.62,0.95,-1.39,0.31,0.69,-0.41,-102.4,-18.9,41.0,-1.73,0.48,-0.04,0.0,0.8604068804931769,2.3364502990648015,0.12739298178391456,0.35,0,4,0.0
5.6839556169998104,262,27.14,96.1,3.7,1.6,-0.63,1.65,-1.35,0.31,0.74,-0.38,-102.5,-18.9,4.0,-1.73,0.54,-0.1,0.0,0.8877499647986475,2.2230384612057437,0.09804889952887508,0.35,0,4,0.0
5.692453009000019,263,27.15,96.1,3.6,1.4,0.63,2.11,-1.16,0.25,0.77,-0.32,-102.8,-24.8,-47.0,-1.72,0.76,0.16,0.0,0.8705170877128146,2.4888953372932336,0.11297614108241394,0.35,0,4,0.0
5.704195276999599,264,27.16,96.2,3.5,1.2,1.52,2.18,-1.0,0.18,0.79,-0.28,-103.1,-34.0,-88.0,-1.71,1.07,-0.06,0.0,0.8572630868059117,2.839506999463111,0.12370553914953053,0.35,0,4,0.0
5.7125432590000855,265,27.17,96.4,3.4,0.9,1.79,2.42,-1.03,0.13,0.82,-0.29,-103.5,-43.3,-79.0,-1.7,1.25,0.1,0.0,0.879431634636826,3.1814147796224246,0.09950625149224379,0.35,0,4,0.0
5.724129424999774,266,27.18,96.5,3.3,0.6,1.35,2.67,-1.08,0.09,0.85,-0.26,-104.0,-51.2,-89.0,-1.68,1.52,0.0,0.0,0.893420393767682,3.180848943285424,0.0838071425141601,0.35,0,4,0.0
5.732545136999761,267,27.19,96.7,3.3,0.4,0.96,2.77,-0.99,0.08,0.91,-0.17,-104.6,-61.6,-98.0,-1.67,1.8,0.0,0.0,0.9291931984253867,3.0942850547420484,0.047073651099326264,0.35,0,4,0.0
5.744120433999342,268,27.2,96.7,3.2,0.1,1.15,2.43,-0.65,0.07,0.98,-0.01,-105.2,-70.5,-90.0,-1.65,2.02,0.0,0.0,0.98254770876533,2.7658452595906375,0.006155242055804755,0.35,0,4,0.0
5.7527414329997555,269,27.21,96.8,3.2,0.0,1.43,1.53,-0.3,0.03,1.0,0.02,-106.0,-77.1,-60.0,-1.63,2.12,0.11,0.0,1.000649788887201,2.1156086594642214,0.02377217573412227,0.35,0,4,0.0
5.764227826999559,270,27.22,96.9,3.2,-0.1,1.3,0.65,-0.15,0.02,1.02,-0.05,-106.8,-79.1,-23.0,-1.6,2.14,-0.13,0.0,1.021420579389313,1.461163919620246,0.04365210691150956,0.35,0,4,0.0
5.772684297000524,271,27.23,97.0,3.2,-0.2,0.91,0.33,-0.04,0.0,1.09,-0.22,-107.6,-76.5,23.0,-1.58,1.99,-0.13,0.0,1.1119802156513399,0.9688137075826292,0.13152750831006577,0.35,0,4,0.0
5.78439123499993,272,27.24,97.1,3.2,-0.2,0.42,0.38,0.08,-0.03,1.1,-0.31,-108.3,-68.3,77.0,-1.57,1.7,-0.11,0.0,1.143241006962224,0.5720139858430037,0.15953253362853104,0.35,0,4,0.0
5.792461601000468,273,27.25,97.2,3.2,-0.2,0.73,0.57,0.11,0.0,1.15,-0.34,-108.9,-53.6,142.0,-1.55,1.21,-0.1,0.0,1.1992080720208649,0.9326842981416594,0.21118960671342835,0.35,0,4,0.0
5.804253496999081,274,27.26,97.3,3.2,-0.3,1.14,0.71,0.5,0.05,1.3,-0.26,-109.3,-35.2,158.0,-1.54,0.77,-0.06,0.0,1.3266876045248934,1.4330736198814071,0.33189575643310776,0.35,0,4,0.0
5.812651281999933,275,27.27,97.4,3.3,-0.3,0.79,0.38,1.13,0.04,1.27,-0.19,-109.5,-19.1,160.0,-1.54,0.32,-0.31,0.0,1.2847567863218314,1.4301748144894735,0.2841656394654448,0.35,0,4,0.0
5.824104254999838,276,27.28,97.5,3.4,-0.3,0.4,-0.03,1.26,0.08,1.13,-0.29,-109.6,-2.1,166.0,-1.54,-0.13,0.0,0.0,1.1693587986584784,1.3223085872821065,0.16539229876604988,0.35,0,4,0.0
5.832667071999822,277,27.29,97.6,3.5,-0.3,1.1,0.21,0.99,0.15,1.12,-0.33,-109.5,6.8,74.0,-1.54,-0.17,-0.16,0.0,1.1772000679578642,1.4947240548007517,0.1697688967041271,0.35,0,4,0.0
5.844250821999594,278,27.3,97.7,3.6,-0.4,2.3,0.57,0.87,0.16,1.28,-0.21,-109.5,4.0,5.0,-1.54,-0.08,0.07,0.0,1.3069429979918787,2.5242424606206115,0.29352159020337876,0.35,0,4,0.0
5.852425479999511,279,27.31,98.0,3.8,-0.4,3.04,0.84,0.97,0.11,1.48,-0.11,-109.5,2.5,6.0,-1.54,-0.09,0.0,0.0,1.4881532179181014,3.299712108654329,0.46523717392700936,0.35,0,5,0.0
5.864268153000012,280,27.32,98.3,3.9,-0.5,3.05,0.94,1.37,0.09,1.73,0.0,-109.4,5.7,34.0,-1.54,-0.24,-0.14,0.0,1.7323394586512195,3.4731829781916184,0.695234946366925,0.35,0,5,0.0
5.872745966998991,281,27.33,98.5,4.1,-0.6,1.73,0.93,2.06,0.05,1.8,0.01,-109.3,13.0,61.0,-1.55,-0.45,-0.29,0.0,1.8007220773900676,2.846295838453902,0.7483452138036575,0.35,0,5,0.0
5.884285940999689,282,27.34,98.6,4.3,-0.6,-0.24,1.14,2.41,0.0,1.55,-0.03,-109.1,23.1,113.0,-1.55,-0.83,-0.02,0.0,1.5502902953963171,2.6768078003472717,0.4879551631737089,0.35,0,5,0.0
5.892617301999053,283,27.35,98.5,4.6,-0.7,-1.26,1.58,2.22,0.08,1.26,-0.03,-108.8,42.2,173.0,-1.57,-1.41,-0.01,0.0,1.2628935030318273,3.00206595530478,0.19654720339303466,0.35,0,5,0.0
5.903992063998885,284,27.36,98.3,4.8,-0.9,-1.51,2.16,1.95,0.23,1.07,0.0,-108.2,62.5,190.0,-1.58,-1.94,-0.07,0.0,1.094440496326776,3.27844475323285,0.02753231275422352,0.35,0,5,0.0
5.912765502000184,285,27.37,98.1,5.0,-1.1,-1.29,2.86,1.63,0.34,0.88,0.0,-107.4,83.0,210.0,-1.61,-2.54,-0.05,0.0,0.9433981132056604,3.5356187577282703,0.12103986895955421,0.35,0,5,0.0
5.9242435569995,286,27.38,98.0,5.2,-1.4,-0.5,3.52,1.26,0.41,0.83,0.04,-106.4,106.0,223.0,-1.64,-3.16,-0.03,0.0,0.92660671268883,3.772002120890178,0.13507464408685688,0.35,0,5,0.0
5.932668129999001,287,27.39,98.0,5.4,-1.8,0.25,4.11,1.02,0.4,0.83,0.03,-105.2,128.2,211.0,-1.67,-3.72,-0.04,0.0,0.9218459741193211,4.242051390542081,0.13703867500323852,0.35,0,5,0.0
5.944201033000354,288,27.4,98.0,5.5,-2.2,0.56,4.52,0.83,0.31,0.85,0.02,-103.8,148.4,216.0,-1.71,-4.33,-0.11,0.0,0.9049861877399012,4.629568014404799,0.15082049215500515,0.35,0,5,0.0
5.952499188999354,289,27.41,98.0,5.7,-2.7,0.19,4.62,0.8,0.2,0.9,0.05,-102.2,171.0,222.0,-1.76,-4.92,-0.1,0.0,0.9233092656309694,4.692600558325842,0.12984746597865837,0.35,0,5,0.0
5.964284161000251,290,27.42,97.9,5.8,-3.1,0.04,4.41,0.77,0.11,0.95,0.08,-100.3,195.8,248.0,-1.82,-5.64,-0.05,0.0,0.9596874491208062,4.47689624628492,0.09159989683904513,0.35,0,5,0.0
5.972650978999809,291,27.43,97.9,5.9,-3.5,0.01,4.0,0.66,0.05,0.98,0.08,-98.1,221.7,245.0,-1.88,-6.3,-0.09,0.0,0.9845303448853163,4.054096693469459,0.06542186105304426,0.35,0,5,0.0
5.984134185000585,292,27.44,97.9,6.0,-3.9,0.09,3.5,0.39,0.0,0.99,0.06,-95.8,243.6,216.0,-1.94,-6.85,-0.15,0.0,0.9918165152889924,3.522811377295129,0.05697297683638092,0.35,0,5,0.0
5.992565331000151,293,27.45,97.8,6.1,-4.2,0.14,2.92,-0.02,-0.05,0.97,0.04,-93.2,263.2,210.0,-2.02,-7.42,0.01,0.0,0.972111104761179,2.92342265161916,0.07514481961691044,0.35,0,5,0.0
6.004054634000568,294,27.46,97.8,6.1,-4.4,0.08,2.33,-0.54,-0.09,0.94,0.02,-90.4,288.4,258.0,-2.1,-8.2,-0.03,0.0,0.9445104552094699,2.3930942313247927,0.10069055978524721,0.35,0,5,0.0
6.012681717000305,295,27.47,97.8,6.1,-4.7,-0.06,1.93,-1.02,-0.07,0.92,-0.01,-87.3,315.6,245.0,-2.18,-8.84,-0.15,0.0,0.9227133899537819,2.18378112456354,0.12003787254011644,0.35,0,5,0.0
6.024265374000606,296,27.48,97.8,6.0,-4.9,-0.19,1.78,-1.3,-0.04,0.92,-0.02,-84.0,335.2,205.0,-2.27,-9.34,-0.11,0.0,0.9210863151735564,2.2123516899444358,0.11923164837393507,0.35,0,5,0.0
6.032699384999432,297,27.49,97.7,5.9,-5.1,-0.38,1.67,-1.35,-0.03,0.89,-0.01,-80.5,354.8,210.0,-2.37,-9.91,-0.13,0.0,0.8905616205518853,2.180779677087991,0.14676121613569404,0.35,0,5,0.0
6.044267356999626,298,27.5,97.7,5.7,-5.2,-0.42,1.54,-1.32,-0.01,0.86,0.0,-76.8,377.3,214.0,-2.48,-10.52,-0.11,0.0,0.8600581375697808,2.0713280763799826,0.1737194051354426,0.35,0,5,0.0
6.05267561599976,299,27.51,97.6,5.6,-5.4,-0.34,1.39,-1.22,0.0,0.84,-0.01,-72.9,403.9,274.0,-2.59,-11.37,-0.16,0.0,0.8400595217006946,1.8804520733057781,0.18984366058443813,0.35,0,5,0.0
6.064203723999526,300,27.52,97.6,5.5,-5.5,-0.21,1.2,-1.04,0.01,0.83,-0.02,-68.6,431.3,237.0,-2.7,-11.94,-0.01,0.0,0.8303011501858828,1.6017802595861894,0.19560999145726488,0.35,0,5,0.0
6.072664113999053,301,27.53,97.5,5.5,-5.7,-0.03,1.07,-0.93,0.02,0.83,-0.03,-64.2,452.6,251.0,-2.83,-12.67,-0.07,0.0,0.8307827634225448,1.417991537351334,0.19122581065619093,0.35,0,5,0.0
6.084151388000464,302,27.54,97.5,5.4,-5.8,0.15,0.93,-0.82,0.01,0.85,-0.03,-59.5,480.1,228.0,-2.96,-13.23,-0.08,0.0,0.8505880318932308,1.2489195330364562,0.1679921313417947,0.35,0,5,0.0
6.092600355999821,303,27.55,97.5,5.3,-5.9,0.23,0.79,-0.72,0.0,0.88,-0.05,-54.5,500.2,263.0,-3.1,-14.03,-0.09,0.0,0.8814193099768123,1.0933434958877288,0.13441763619304903,0.35,0,5,0.0
6.104154754999399,304,27.56,97.6,5.3,-6.0,0.13,0.64,-0.71,-0.01,0.89,-0.06,-49.3,530.9,240.0,-3.24,-14.63,0.08,0.0,0.8920762299265685,0.9646761114488117,0.12128550191842691,0.35,0,5,0.0
6.112689468000099,305,27.57,97.5,5.2,-6.0,-0.12,0.48,-0.72,-0.03,0.92,-0.09,-43.9,547.4,205.0,-3.39,-15.15,-0.1,0.0,0.9248783703817492,0.8736131867136622,0.08671369423398134,0.35,0,5,0.0
6.124272596000083,306,27.58,97.5,5.1,-6.1,-0.45,0.4,-0.74,-0.03,0.91,-0.1,-38.3,567.6,213.0,-3.55,-15.73,-0.01,0.0,0.9159694318043589,0.9539916142189092,0.09371018015514421,0.35,0,5,0.0
6.13257464399976,307,27.59,97.4,5.1,-6.1,-0.62,0.27,-0.75,-0.03,0.9,-0.1,-32.4,589.7,168.0,-3.71,-16.09,0.06,0.0,0.9060353193998566,1.0098514742277698,0.10157140670845355,0.35,0,5,0.0
6.144115011000395,308,27.6,97.4,4.9,-6.2,-0.62,0.19,-0.69,-0.03,0.89,-0.12,-26.5,595.6,124.0,-3.87,-16.38,0.07,0.0,0.8985543945694106,0.9468896451012652,0.1068712849081217,0.35,0,5,0.0
6.15266620500006,309,27.61,97.3,4.8,-6.2,-0.46,0.1,-0.55,-0.03,0.89,-0.12,-20.5,599.9,8.0,-4.03,-16.2,0.08,0.0,0.8985543945694106,0.7239475119095307,0.10473385920995937,0.35,0,5,0.0
6.164217502999236,310,27.62,97.3,4.7,-6.2,-0.19,-0.05,-0.37,-0.02,0.89,-0.13,-14.5,601.5,28.0,-4.2,-16.33,-0.14,0.0,0.8996666049153986,0.4189272013130682,0.10154921588669186,0.35,0,5,0.0
6.172659824998846,311,27.63,97.3,4.7,-6.2,0.21,-0.16,-0.24,-0.01,0.89,-0.15,-8.5,588.4,-139.0,-4.36,-15.66,0.23,0.0,0.9026073343375844,0.35679125549822543,0.09663631673521589,0.35,0,5,0.0
6.184046721999039,312,27.64,97.3,4.7,-6.2,0.16,-0.18,-0.12,0.0,0.9,-0.17,-2.9,540.8,-508.0,-4.5,-13.67,0.27,0.0,0.9159148432032315,0.2690724809414742,0.08166223171217746,0.35,0,5,0.0
6.192563709999376,313,27.65,97.3,4.7,-6.1,-0.2,-0.11,0.08,-0.06,0.96,-0.19,1.6,417.7,-1389.0,-4.61,-8.3,2.03,0.0,0.9804590761474953,0.2418677324489565,0.016775638792555392,0.35,0,5,0.0
6.20395495899902,314,27.66,97.3,4.7,-6.1,-1.2,-0.23,0.57,-0.07,0.99,-0.18,3.4,47.6,-3253.0,-4.6,3.45,0.5,0.0,1.0086624807139404,1.3482581355215328,0.011199210458411879,0.35,0,5,0.0
6.21269021199987,315,27.67,97.2,4.8,-6.1,-0.74,-0.7,0.57,0.06,0.87,-0.18,2.1,-153.6,-1455.0,-4.56,4.08,0.01,0.0,0.8904493247793498,1.167261752992875,0.10487366656665509,0.35,0,5,0.0
6.224076459999196,316,27.68,97.2,4.8,-6.0,-0.6,-0.63,0.76,0.06,0.98,-0.22,0.7,-146.8,-479.0,-4.52,3.99,0.04,0.0,1.0061808982484213,1.1552056094046634,0.010640748764368047,0.35,0,5,0.0
6.2326618089991825,317,27.69,97.1,4.9,-5.9,-1.41,-0.51,1.03,0.08,0.96,-0.27,-0.7,-151.6,-224.0,-4.48,4.24,-0.11,0.0,1.0004498987955368,1.8190931806809678,0.0048115543252539306,0.35,0,5,0.0
6.244143288000487,318,27.7,97.0,5.0,-5.9,-1.49,-0.27,1.14,0.03,0.93,-0.2,-2.3,-165.0,-196.0,-4.43,4.75,-0.14,0.0,0.9517352573063583,1.8954155217260409,0.04302502542064601,0.35,0,5,0.0
6.252638656000272,319,27.71,96.8,5.1,-5.8,-1.61,-0.58,1.35,0.02,0.9,-0.21,-4.2,-191.6,-249.0,-4.38,5.51,0.11,0.0,0.9243916918709298,2.179678875430966,0.06896121903895303,0.35,0,5,0.0
6.264024526999492,320,27.72,96.7,5.2,-5.7,-1.27,-0.64,1.47,0.02,0.86,-0.21,-6.2,-213.7,-212.0,-4.32,6.04,0.04,0.0,0.8854942122905152,2.0453361581901395,0.10570152464698035,0.35,0,5,0.0
6.272640736999165,321,27.73,96.6,5.4,-5.6,-1.09,-0.87,1.55,0.0,0.86,-0.2,-8.5,-233.9,-213.0,-4.26,6.62,-0.02,0.0,0.8829496021857646,2.0850659461993044,0.1060812120566963,0.35,0,5,0.0
6.28414261099897,322,27.74,96.5,5.5,-5.5,-0.96,-0.88,1.57,0.0,0.86,-0.23,-11.0,-256.9,-234.0,-4.19,7.3,-0.17,0.0,0.8902246907382427,2.0398284241572866,0.09683000103413375,0.35,0,5,0.0
6.292697630000475,323,27.75,96.4,5.7,-5.4,-0.52,-0.8,1.42,0.01,0.87,-0.23,-13.8,-283.0,-253.0,-4.11,8.02,0.1,0.0,0.899944442729661,1.7107892915259904,0.08536804406186116,0.35,0,5,0.0
6.304289648000122,324,27.76,96.4,5.8,-5.3,-0.52,-0.77,1.32,0.02,0.89,-0.26,-16.8,-307.3,-229.0,-4.02,8.59,0.11,0.0,0.9274157643689264,1.6142180769648196,0.05673878797414389,0.35,0,5,0.0
6.312680548000571,325,27.77,96.3,5.9,-5.2,-0.58,-0.58,1.24,0.04,0.91,-0.28,-20.0,-326.0,-203.0,-3.93,9.11,-0.06,0.0,0.9529428104561155,1.486741403203664,0.030587507049215645,0.35,0,5,0.0
6.324315324000054,326,27.78,96.3,6.0,-5.2,-0.5,-0.39,1.19,0.06,0.92,-0.29,-23.4,-348.7,-221.0,-3.84,9.75,-0.03,0.0,0.9664884893261793,1.3484064669082538,0.016700991615568817,0.35,0,5,0.0
6.332685749999655,327,27.79,96.2,6.1,-5.1,-0.35,-0.21,1.19,0.09,0.92,-0.29,-27.0,-362.9,-129.0,-3.74,9.93,0.14,0.0,0.9688137075826291,1.2580540528928,0.014088257891936573,0.35,0,5,0.0
6.34429421799905,328,27.8,96.2,6.3,-5.1,-0.12,-0.02,1.17,0.11,0.93,-0.3,-30.7,-368.1,-84.0,-3.64,10.09,0.0,0.0,0.9833615815151617,1.1763077828527702,0.0004504237197842098,0.35,0,5,0.0
6.352602335999109,329,27.81,96.2,6.4,-5.1,0.19,0.12,1.14,0.12,0.92,-0.3,-34.4,-369.5,-1.0,-3.54,9.93,-0.09,0.0,0.9750897394599125,1.1619380362136356,0.007664989968755753,0.35,0,5,0.0
6.364090601000498,330,27.82,96.3,6.5,-5.1,0.61,0.26,1.08,0.11,0.92,-0.3,-38.0,-353.9,132.0,-3.44,9.36,-0.02,0.0,0.973909646733207,1.2673200069437869,0.008668181041551981,0.35,0,5,0.0
6.3726750040004845,331,27.83,96.3,6.6,-5.1,0.95,0.34,1.02,0.1,0.93,-0.31,-41.3,-332.1,192.0,-3.35,8.74,-0.07,0.0,0.9853933224860011,1.4347473645210156,0.0027591848170172018,0.35,0,5,0.0
6.384305105999374,332,27.84,96.4,6.7,-5.2,1.09,0.3,1.03,0.07,0.94,-0.3,-44.5,-306.7,247.0,-3.27,7.98,-0.06,0.0,0.9891915891272024,1.5293789589241773,0.006426302429054176,0.35,0,5,0.0
6.392609890999665,333,27.85,96.6,6.8,-5.2,1.04,0.11,1.12,0.05,0.95,-0.3,-47.4,-278.1,278.0,-3.2,7.18,-0.24,0.0,0.9974968671630001,1.5323511346946563,0.01443694885555491,0.35,0,5,0.0
6.404161487998863,334,27.86,96.7,6.9,-5.1,1.04,-0.15,1.25,0.01,0.95,-0.31,-49.9,-246.5,309.0,-3.13,6.29,-0.11,0.0,0.9993497886125758,1.6329727493133497,0.015964072899028015,0.35,0,5,0.0
6.412579578000077,335,27.87,96.8,7.1,-5.1,1.13,-0.47,1.33,-0.04,0.94,-0.28,-52.2,-211.3,348.0,-3.07,5.27,-0.08,0.0,0.9816312953446421,1.8074014495955237,0.001719331961527626,0.35,0,5,0.0
6.424697809999998,336,27.88,96.9,7.2,-5.0,1.62,-1.13,1.2,-0.11,0.93,-0.24,-54.0,-173.2,366.0,-3.03,4.26,-0.23,0.0,0.9667471230885563,2.3111252670506635,0.016271434133261153,0.35,0,5,0.0
6.432546230000298,337,27.89,97.2,7.3,-4.8,2.58,-1.7,0.75,-0.09,0.97,-0.24,-55.5,-137.9,345.0,-2.99,3.35,-0.09,0.0,1.0032945728947207,3.1794496379090518,0.019870495359445184,0.35,0,5,0.0
6.444389672999023,338,27.9,97.5,7.3,-4.6,2.87,-2.02,0.2,-0.05,1.06,-0.22,-56.7,-107.1,314.0,-2.96,2.54,-0.26,0.0,1.0837435120913066,3.515295151192855,0.09831304586491052,0.35,0,5,0.0
6.452635075998842,339,27.91,97.8,7.2,-4.4,2.33,-2.34,-0.36,-0.02,1.11,-0.24,-57.5,-79.5,281.0,-2.94,1.84,0.02,0.0,1.1358256908522542,3.3217615808483303,0.14738732013334088,0.35,0,5,0.0
6.464131795999492,340,27.92,98.0,7.1,-4.2,1.81,-2.64,-0.95,0.02,1.13,-0.27,-58.1,-58.0,239.0,-2.93,1.25,-0.06,0.0,1.1619810669714028,3.3388920317973745,0.17007184232743977,0.35,0,5,0.0
6.472637794999173,341,27.93,98.2,7.0,-3.9,1.64,-2.86,-1.49,0.09,1.17,-0.29,-58.6,-35.7,203.0,-2.92,0.76,-0.17,0.0,1.2087596948939023,3.617913763483038,0.2125134608449405,0.35,0,5,0.0
6.484118844000477,342,27.94,98.4,6.7,-3.7,1.83,-2.9,-2.07,0.22,1.22,-0.27,-58.8,-15.8,217.0,-2.92,0.14,0.03,0.0,1.2687395319765205,4.005471258166759,0.26704343196900737,0.35,0,5,0.0
6.492625926999608,343,27.95,98.7,6.5,-3.4,2.02,-2.46,-2.76,0.35,1.31,-0.24,-58.8,4.3,172.0,-2.92,-0.23,-0.02,0.0,1.3770257804413106,4.2130274150544045,0.36782308682512155,0.35,0,6,0.0
6.504116912999962,344,27.96,98.9,6.1,-3.3,1.66,-1.7,-3.6,0.42,1.4,-0.23,-58.7,9.9,62.0,-2.92,-0.22,-0.01,0.0,1.4796283317103656,4.313420916163875,0.461017125332293,0.35,0,6,0.0
6.512610550000318,345,27.97,99.0,5.7,-3.2,1.2,-0.68,-4.59,0.5,1.48,-0.27,-58.6,4.7,-24.0,-2.92,-0.03,0.09,0.0,1.585339080449353,4.792754948878567,0.5553933165898548,0.35,0,6,0.0
6.524101561999487,346,27.98,99.1,5.2,-3.3,0.08,0.5,-4.88,0.47,1.52,-0.21,-58.6,-0.6,-22.0,-2.92,0.02,-0.02,0.0,1.6048052841388576,4.906200158982509,0.5633623298737722,0.35,0,6,0.0
6.532626123000227,347,27.99,99.0,4.8,-3.5,-1.5,1.13,-4.23,0.28,1.37,-0.12,-58.6,0.1,-5.0,-2.92,0.0,-0.02,0.0,1.4034600101178516,4.628152979321233,0.3547767147357108,0.35,0,6,0.0
6.544255711000005,348,28.0,98.8,4.4,-3.6,-2.45,1.27,-3.11,0.0,1.24,0.01,-58.6,-0.7,-17.0,-2.92,0.06,-0.01,0.0,1.2400403219250575,4.157823950096974,0.18752988601205844,0.35,0,6,0.0
6.552709106999828,349,28.01,98.5,4.2,-3.8,-2.15,0.83,-1.69,-0.26,1.1,0.1,-58.7,-4.2,-33.0,-2.92,0.17,0.06,0.0,1.1347246362003427,2.8578838324886475,0.08056991628159671,0.35,0,6,0.0
6.564195487999314,350,28.02,98.4,4.1,-3.8,-0.81,-0.36,-0.52,-0.4,0.95,0.2,-58.8,-10.1,-58.0,-2.92,0.38,0.01,0.0,1.05,1.0276672613253768,0.004071625520370992,0.35,0,6,0.0
6.572625458999028,351,28.03,98.4,4.1,-3.7,1.4,-2.0,-0.03,-0.39,0.9,0.28,-58.9,-23.4,-142.0,-2.91,0.9,0.06,0.0,1.0200490184299968,2.441495443370722,0.03334215494856663,0.35,0,6,0.0
6.584317255999849,352,28.04,98.6,4.1,-3.4,1.24,-3.31,0.39,-0.26,1.03,0.27,-59.3,-46.3,-212.0,-2.9,1.58,0.0,0.0,1.0960839383915815,3.5560933621039816,0.04183890971275761,0.35,0,6,0.0
6.592645700999128,353,28.05,98.7,4.0,-3.0,0.06,-4.0,0.33,-0.1,1.02,0.14,-59.9,-71.8,-264.0,-2.88,2.32,0.13,0.0,1.03440804327886,4.01403786728526,0.019440245691964453,0.35,0,6,0.0
6.6041656879988295,354,28.06,98.6,4.0,-2.6,-1.44,-4.11,-0.04,0.08,1.0,0.11,-60.8,-100.6,-272.0,-2.85,3.06,0.06,0.0,1.0092076099594176,4.355146381007187,0.0437478654311787,0.35,0,6,0.0
6.612591330000214,355,28.07,98.4,3.9,-2.2,-2.66,-4.1,-0.56,0.23,0.96,0.06,-62.0,-124.6,-236.0,-2.81,3.64,0.08,0.0,0.9889893831583836,4.919268238264712,0.06268677038756842,0.35,0,6,0.0
6.624116769999091,356,28.08,98.1,3.8,-1.9,-3.95,-3.68,-0.86,0.3,0.93,-0.04,-63.2,-141.5,-195.0,-2.78,4.08,0.18,0.0,0.9780081799248921,5.466671747965118,0.0721946141486387,0.35,0,6,0.0
6.63273186600054,357,28.09,97.7,3.6,-1.5,-4.58,-2.87,-0.87,0.31,0.85,-0.11,-64.9,-156.8,-145.0,-2.73,4.4,-0.06,0.0,0.9114274518577986,5.474504543792069,0.13599983537141747,0.35,0,6,0.0
6.644290549998914,358,28.1,97.3,3.5,-1.3,-3.72,-2.3,-0.64,0.27,0.81,-0.01,-66.6,-167.3,-108.0,-2.69,4.63,0.16,0.0,0.8538735269347564,4.420180991769454,0.18968268508857045,0.35,0,6,0.0
6.652636884999083,359,28.11,97.0,3.4,-1.1,-2.22,-2.07,-0.37,0.23,0.77,0.0,-68.3,-174.5,-83.0,-2.64,4.83,-1.19,0.0,0.8036168241145776,3.0578096736062563,0.23514060015057425,0.35,0,6,0.0
6.664108667999244,360,28.12,96.9,3.4,-0.9,-0.71,-1.89,-0.13,0.19,0.79,-0.03,-70.1,-178.3,-40.0,-2.59,4.85,0.08,0.0,0.8130805618141416,2.023141122116794,0.2211633252019901,0.35,0,6,0.0
6.6726566620000085,361,28.13,96.9,3.4,-0.7,0.22,-1.54,0.0,0.15,0.87,-0.09,-71.9,-179.3,-12.0,-2.54,4.85,-0.17,0.0,0.8874119674649424,1.5556349186104046,0.14389528116016537,0.35,0,6,0.0
6.684141533000002,362,28.14,96.9,3.4,-0.6,0.66,-1.2,0.09,0.1,0.98,-0.08,-73.6,-176.3,18.0,-2.49,4.75,-0.24,0.0,0.9883319280484669,1.3724795080437449,0.04211581416510801,0.35,0,6,0.0
6.692656006000107,363,28.15,97.0,3.4,-0.5,0.49,-1.13,0.28,0.07,1.05,-0.08,-75.4,-172.7,27.0,-2.45,4.66,-0.08,0.0,1.0553672346628922,1.2630914456206248,0.024421102600330924,0.35,0,6,0.0
6.7041299949996755,364,28.16,97.0,3.5,-0.4,-0.22,-1.16,0.5,0.05,1.06,-0.09,-77.1,-170.0,29.0,-2.4,4.57,-0.03,0.0,1.0649882628461218,1.2821856339859685,0.0333612881678893,0.35,0,6,0.0
6.712687121998897,365,28.17,96.9,3.5,-0.2,-0.95,-1.24,0.68,0.03,1.02,-0.1,-78.8,-166.3,38.0,-2.36,4.46,0.22,0.0,1.025329215423027,1.7036725037400822,0.006171804070101539,0.35,0,6,0.0
6.7243395450004755,366,28.18,96.8,3.5,-0.1,-1.13,-1.16,0.77,0.03,0.96,-0.12,-80.4,-162.1,40.0,-2.31,4.35,-0.02,0.0,0.9679359482941007,1.7931536465122,0.0622937697750473,0.35,0,6,0.0
6.7324503759991785,367,28.19,96.7,3.6,0.0,-0.92,-1.02,0.72,0.06,0.92,-0.14,-82.0,-157.8,40.0,-2.27,4.24,0.07,0.0,0.9325234581499814,1.5508707231745655,0.09575213472078337,0.35,0,6,0.0
6.744296652999765,368,28.2,96.7,3.7,0.0,-0.57,-0.88,0.72,0.09,0.94,-0.13,-83.5,-151.4,62.0,-2.23,4.02,-0.16,0.0,0.9532051195833979,1.2718883598806934,0.07356906382161954,0.35,0,6,0.0
6.752678912000192,369,28.21,96.7,3.8,0.1,-0.3,-0.77,0.8,0.12,0.95,-0.15,-85.0,-145.1,64.0,-2.19,3.86,0.08,0.0,0.9692264957170743,1.150173899895142,0.05639673393418432,0.35,0,6,0.0
6.764238186000512,370,28.22,96.7,3.9,0.2,-0.3,-0.7,0.94,0.13,0.95,-0.17,-86.4,-138.0,67.0,-2.15,3.66,0.19,0.0,0.9738069623903908,1.209793370786929,0.050779941915650606,0.35,0,6,0.0
6.772691644999213,371,28.23,96.7,4.0,0.3,-0.34,-0.58,1.08,0.13,0.95,-0.2,-87.7,-130.7,74.0,-2.12,3.45,0.15,0.0,0.9794896630388705,1.27216351150314,0.044195296441827514,0.35,0,6,0.0
6.784220911000375,372,28.24,96.6,4.1,0.3,-0.41,-0.49,1.22,0.13,0.94,-0.21,-89.0,-122.3,81.0,-2.08,3.22,0.1,0.0,0.9719053451854249,1.377171013345837,0.05074402200936756,0.35,0,6,0.0
6.7926864759992895,373,28.25,96.6,4.2,0.4,-0.4,-0.37,1.37,0.12,0.91,-0.23,-90.1,-113.8,87.0,-2.05,2.97,0.05,0.0,0.946255779374689,1.4743812261420044,0.07486571606370152,0.35,0,6,0.0
6.804295511999953,374,28.26,96.6,4.4,0.4,-0.35,-0.32,1.49,0.12,0.91,-0.22,-91.2,-103.8,95.0,-2.02,2.7,0.01,0.0,0.9438749917229505,1.563649577111189,0.07570157364113106,0.35,0,6,0.0
6.81275108599948,375,28.27,96.5,4.5,0.5,-0.32,-0.25,1.52,0.12,0.87,-0.24,-92.2,-94.9,81.0,-2.0,2.51,0.05,0.0,0.910439454329611,1.5733086156250464,0.10695436881378106,0.35,0,6,0.0
6.824247945000025,376,28.28,96.5,4.7,0.5,-0.37,-0.21,1.48,0.12,0.86,-0.24,-93.1,-87.5,79.0,-1.98,2.28,-0.2,0.0,0.9008884503644166,1.5399350635659934,0.11417526532339606,0.35,0,6,0.0
6.832682734999253,377,28.29,96.5,4.8,0.6,-0.56,-0.21,1.35,0.13,0.84,-0.25,-93.9,-80.5,65.0,-1.95,2.12,0.03,0.0,0.8860022573334675,1.4765500330161523,0.12648022918725832,0.35,0,6,0.0
6.844300320999537,378,28.3,96.4,4.9,0.6,-0.91,-0.14,1.11,0.16,0.81,-0.27,-94.7,-73.9,70.0,-1.93,1.92,0.01,0.0,0.86867715521936,1.44215117099422,0.14092922467533864,0.35,0,6,0.0
6.85260979099985,379,28.31,96.3,5.0,0.6,-1.39,0.01,0.72,0.18,0.76,-0.28,-95.4,-67.4,64.0,-1.92,1.75,-0.08,0.0,0.8296987405076616,1.5654392354863218,0.17630948659929635,0.35,0,6,0.0
6.864136783000504,380,28.32,96.1,5.1,0.6,-1.95,0.21,0.24,0.22,0.71,-0.3,-96.0,-59.6,78.0,-1.9,1.52,-0.05,0.0,0.8015609770940698,1.9759048560090133,0.2003583050126304,0.35,0,6,0.0
6.872674529000506,381,28.33,95.9,5.1,0.6,-2.26,0.73,-0.3,0.25,0.65,-0.35,-96.5,-52.9,61.0,-1.89,1.38,-0.08,0.0,0.7794228634059948,2.3938462774372122,0.21804649032669132,0.35,0,6,0.0
6.884043005999047,382,28.34,95.6,5.0,0.4,-2.14,1.38,-0.77,0.28,0.64,-0.34,-97.0,-47.5,56.0,-1.87,1.22,0.02,0.0,0.7769169839822013,2.6602443496791794,0.216141322355475,0.35,0,6,0.0
6.892657094998867,383,28.35,95.4,4.9,0.3,-1.44,2.04,-1.0,0.31,0.67,-0.32,-97.5,-41.7,49.0,-1.86,1.09,0.1,0.0,0.8046117075956577,2.6898327085527085,0.18467766676717823,0.35,0,6,0.0
6.904109765999237,384,28.36,95.3,4.9,0.0,-0.37,2.59,-0.96,0.27,0.71,-0.27,-97.9,-39.3,20.0,-1.85,1.09,-0.03,0.0,0.8061637550770935,2.786862034618865,0.17946310690002765,0.35,0,6,0.0
6.912404464999781,385,28.37,95.3,4.8,-0.2,0.7,2.75,-0.81,0.19,0.72,-0.24,-98.2,-39.1,14.0,-1.84,1.05,0.04,0.0,0.782368199762746,2.951033717191317,0.1991934889700877,0.35,0,6,0.0
6.924312699000438,386,28.38,95.4,4.8,-0.4,1.69,2.66,-0.82,0.12,0.74,-0.22,-98.6,-39.3,-3.0,-1.83,1.09,0.1,0.0,0.7812809993849844,3.25639371084026,0.1962750755608923,0.35,0,6,0.0
6.932683283999722,387,28.39,95.6,4.7,-0.7,2.04,2.44,-0.96,0.08,0.78,-0.24,-99.0,-41.7,-16.0,-1.82,1.15,0.08,0.0,0.82,3.3221679668553787,0.15440495344695926,0.35,0,6,0.0
6.9443578209993575,388,28.4,95.8,4.6,-1.0,1.65,2.49,-1.08,0.06,0.84,-0.27,-99.5,-44.8,-31.0,-1.81,1.27,0.05,0.0,0.8843641783790205,3.176318623815942,0.08823995956657993,0.35,0,6,0.0
6.952471147000324,389,28.41,95.9,4.5,-1.2,1.31,2.55,-1.05,0.05,0.91,-0.21,-100.0,-49.1,-42.0,-1.79,1.4,0.02,0.0,0.9352539762011173,3.0530476576693,0.0366031585095935,0.35,0,6,0.0
6.964301390999026,390,28.42,96.1,4.4,-1.5,1.54,2.18,-0.8,0.03,0.99,-0.09,-100.5,-55.1,-52.0,-1.78,1.55,0.0,0.0,0.9945350672550466,2.7863955210988984,0.022224373893449112,0.35,0,6,0.0
6.97238510599891,391,28.43,96.2,4.4,-1.6,1.93,1.22,-0.5,0.01,1.0,-0.05,-101.0,-57.6,-26.0,-1.76,1.54,-0.3,0.0,1.0012991560967182,2.3373703172582645,0.0284086934804183,0.35,0,6,0.0
6.984323177999613,392,28.44,96.4,4.3,-1.7,2.17,0.32,-0.36,0.03,1.03,-0.17,-101.6,-56.6,4.0,-1.75,1.5,-0.03,0.0,1.0443658362853505,2.222813532440362,0.07004586619566966,0.35,0,6,0.0
6.992632299999968,393,28.45,96.6,4.3,-1.7,1.44,0.2,-0.41,0.03,0.99,-0.36,-102.2,-52.8,33.0,-1.73,1.37,-0.13,0.0,1.0538500842150178,1.510529708413575,0.07793951184283021,0.35,0,6,0.0
7.004092339999261,394,28.46,96.7,4.2,-1.8,1.17,0.88,-0.63,0.07,1.05,-0.42,-102.7,-47.5,46.0,-1.72,1.22,0.1,0.0,1.133048983936705,1.593800489396336,0.15399564333322713,0.35,0,6,0.0
7.012520771999334,395,28.47,96.8,4.2,-1.9,1.48,1.43,-0.65,0.07,1.11,-0.32,-103.1,-42.2,44.0,-1.71,1.09,-0.14,0.0,1.1573245007343447,2.1581936891762057,0.17470573692824942,0.35,0,6,0.0
7.024306111999977,396,28.48,97.0,4.1,-2.1,2.04,1.4,-0.31,0.1,1.25,-0.22,-103.5,-36.4,65.0,-1.7,0.89,-0.01,0.0,1.2731457104353767,2.493531632043195,0.2847164076966958,0.35,0,6,0.0
7.032577628999206,397,28.49,97.2,4.2,-2.2,2.08,0.97,0.58,0.08,1.33,-0.19,-103.8,-29.1,68.0,-1.69,0.7,-0.02,0.0,1.3458826100369974,2.367213551836843,0.35030424115235015,0.35,0,7,0.0
7.044192215998919,398,28.5,97.5,4.3,-2.2,1.86,0.41,1.26,0.05,1.27,-0.23,-104.1,-24.4,45.0,-1.68,0.63,-0.01,0.0,1.291626881107698,2.283703133071372,0.2901275419785898,0.35,0,7,0.0
7.0526563889998215,399,28.51,97.7,4.4,-2.2,1.81,0.05,1.48,0.07,1.21,-0.24,-104.3,-19.5,62.0,-1.68,0.42,-0.13,0.0,1.235556554755791,2.338589318371227,0.22937607131414905,0.35,0,7,0.0
7.0640079980003065,400,28.52,97.9,4.5,-2.2,1.83,0.04,1.54,0.11,1.26,-0.19,-104.4,-10.9,75.0,-1.68,0.19,-0.14,0.0,1.2789839717525784,2.3920911353876133,0.2673474185447178,0.35,0,7,0.0
7.07273966899993,401,28.53,98.1,4.7,-2.2,1.9,0.07,1.59,0.09,1.33,-0.13,-104.5,-4.5,68.0,-1.68,0.03,-0.09,0.0,1.3393655214316964,2.478507615481542,0.321174388859359,0.35,0,7,0.0
7.084267009000541,402,28.54,98.2,4.8,-2.2,2.25,0.14,1.63,0.11,1.44,-0.07,-104.5,1.4,49.0,-1.68,-0.06,-0.04,0.0,1.4458907289280198,2.7819058215547123,0.41914560442856885,0.35,0,7,0.0
7.092642387999149,403,28.55,98.4,5.0,-2.2,2.09,0.06,1.95,0.14,1.55,-0.01,-104.5,1.4,11.0,-1.68,-0.03,0.09,0.0,1.5563418647585114,2.859055788193018,0.5190048054538792,0.35,0,7,0.0
7.104068106998966,404,28.56,98.5,5.2,-2.2,1.29,0.2,2.24,0.13,1.48,-0.04,-104.4,2.7,22.0,-1.68,-0.12,0.04,0.0,1.4862368586466963,2.5926241532470535,0.4399218033552228,0.35,0,7,0.0
7.11276669399922,405,28.57,98.6,5.5,-2.2,0.61,0.47,2.08,0.15,1.3,-0.03,-104.4,8.7,66.0,-1.68,-0.38,-0.23,0.0,1.3089690599857584,2.217972046712943,0.2574009246003992,0.35,0,7,0.0
7.124237875999825,406,28.58,98.6,5.7,-2.2,0.37,1.14,1.62,0.25,1.16,-0.08,-104.2,24.2,134.0,-1.69,-0.86,-0.2,0.0,1.1893275410920239,2.0151674868357716,0.13500421759253145,0.35,0,7,0.0
7.132485436999559,407,28.59,98.6,5.8,-2.4,0.41,2.16,1.13,0.3,1.06,-0.07,-103.8,40.4,160.0,-1.7,-1.32,-0.05,0.0,1.103856874780422,2.4719627828913606,0.04854288025531095,0.35,0,7,0.0
7.144315491999805,408,28.6,98.7,5.9,-2.6,0.79,3.15,0.69,0.35,0.99,-0.04,-103.3,60.1,187.0,-1.72,-1.87,-0.16,0.0,1.0508092119885513,3.3200451804154714,0.004414686885828578,0.35,0,7,0.0
7.152507651000633,409,28.61,98.7,6.0,-3.0,1.21,3.92,0.38,0.37,0.95,0.0,-102.6,80.0,194.0,-1.74,-2.42,-0.1,0.0,1.0195096860746344,4.12006067916481,0.03499992854375056,0.35,0,7,0.0
7.164237367000169,410,28.62,98.8,6.1,-3.4,1.33,4.54,0.24,0.35,0.92,-0.03,-101.6,100.9,204.0,-1.77,-2.99,-0.23,0.0,0.9847842403288144,4.736887163528386,0.06833086680377909,0.35,0,7,0.0
7.172658284000136,411,28.63,98.9,6.2,-3.9,0.96,5.03,0.25,0.3,0.89,-0.02,-100.4,124.0,224.0,-1.8,-3.64,-0.13,0.0,0.9394147114027968,5.126889895443436,0.11142638781520076,0.35,0,7,0.0
7.184111044000019,412,28.64,98.9,6.3,-4.4,0.87,5.2,0.28,0.23,0.89,0.02,-99.0,147.6,238.0,-1.84,-4.32,0.0,0.0,0.9194563611178075,5.279706431232706,0.12875704333818616,0.35,0,7,0.0
7.192402377999315,413,28.65,99.0,6.5,-4.9,0.92,5.04,0.34,0.13,0.94,0.05,-97.4,172.8,241.0,-1.89,-4.98,0.0,0.0,0.9502631214563679,5.134549639452325,0.0959912773396332,0.35,0,7,0.0
7.204170875000273,414,28.66,99.0,6.6,-5.4,0.9,4.71,0.35,0.04,1.0,0.08,-95.5,195.6,229.0,-1.95,-5.58,0.26,0.0,1.0039920318408906,4.8079725456786875,0.04141711961600825,0.35,0,7,0.0
7.212693471999955,415,28.67,99.0,6.7,-5.8,0.66,4.03,0.28,-0.02,1.03,0.11,-93.4,216.1,214.0,-2.0,-6.14,-0.15,0.0,1.0360501918343532,4.09327497243955,0.009171780430094811,0.35,0,7,0.0
7.224277649000214,416,28.68,99.0,6.7,-6.2,0.39,3.13,0.04,-0.08,1.02,0.1,-91.1,239.5,239.0,-2.07,-6.82,-0.05,0.0,1.0280077820717117,3.1544571640775216,0.016869906388881528,0.35,0,7,0.0
7.232582376998835,417,28.69,99.0,6.8,-6.4,0.27,2.15,-0.29,-0.12,0.98,0.08,-88.5,265.9,245.0,-2.14,-7.5,-0.08,0.0,0.9905553997631833,2.186206760578697,0.05323584292346184,0.35,0,7,0.0
7.244132981999428,418,28.7,99.1,6.7,-6.6,0.35,1.34,-0.68,-0.12,0.95,0.04,-85.7,288.8,230.0,-2.22,-8.11,-0.11,0.0,0.9583840566286566,1.542886904474855,0.0836990423368289,0.35,0,7,0.0
7.2525025559989444,419,28.71,99.1,6.7,-6.7,0.34,0.83,-1.0,-0.1,0.9,0.01,-83.0,307.4,213.0,-2.31,-8.66,0.15,0.0,0.9055937278934744,1.3433167906342867,0.13375958365057083,0.35,0,7,0.0
7.264242862000174,420,28.72,99.1,6.6,-6.8,0.29,0.48,-1.19,-0.07,0.86,-0.01,-79.7,328.3,213.0,-2.4,-9.26,-0.11,0.0,0.862902080192185,1.3155227098001767,0.17292220672482306,0.35,0,7,0.0
7.272703223999997,421,28.73,99.1,6.5,-6.9,0.25,0.31,-1.36,-0.04,0.82,-0.05,-76.3,349.1,207.0,-2.5,-9.82,-0.01,0.0,0.8224962005991273,1.4171097346359598,0.20906152459152316,0.35,0,7,0.0
7.284178961999714,422,28.74,99.1,6.3,-6.9,0.36,0.22,-1.48,0.0,0.81,-0.07,-72.7,375.0,267.0,-2.6,-10.65,-0.06,0.0,0.8130190649671138,1.5389606882568507,0.21416788701906597,0.35,0,7,0.0
7.292620289999832,423,28.75,99.2,6.1,-6.9,0.39,0.21,-1.51,0.02,0.82,-0.1,-68.7,401.8,232.0,-2.71,-11.19,-0.06,0.0,0.8263171304045438,1.5736263851372092,0.19685242515000323,0.35,0,7,0.0
7.304068217999884,424,28.76,99.2,6.0,-7.0,0.35,0.28,-1.48,0.04,0.84,-0.11,-64.6,422.3,235.0,-2.83,-11.88,-0.33,0.0,0.8481155581640982,1.5463828762631846,0.17155291744263979,0.35,0,7,0.0
7.312463399999615,425,28.77,99.2,5.8,-7.1,0.13,0.35,-1.37,0.05,0.88,-0.12,-60.1,449.6,247.0,-2.95,-12.51,-0.05,0.0,0.8895504482602433,1.4199647882958226,0.12751566679956483,0.35,0,7,0.0
7.3242468730004475,426,28.78,99.2,5.7,-7.1,-0.17,0.41,-1.27,0.04,0.87,-0.13,-55.5,469.0,232.0,-3.08,-13.21,0.09,0.0,0.8805679985100526,1.34532523948672,0.13376815421876043,0.35,0,7,0.0
7.332772243998988,427,28.79,99.1,5.5,-7.2,-0.36,0.44,-1.16,0.02,0.88,-0.14,-50.6,500.3,268.0,-3.22,-13.9,0.13,0.0,0.8912911982062877,1.2918204209564113,0.12058405543207495,0.35,0,7,0.0
7.344273765000253,428,28.8,99.1,5.4,-7.2,-0.43,0.46,-1.04,0.0,0.88,-0.14,-45.5,518.9,205.0,-3.36,-14.38,-0.1,0.0,0.8910667763978185,1.2157713600837947,0.11839230769573328,0.35,0,7,0.0
7.352566253999612,429,28.81,99.0,5.2,-7.3,-0.46,0.42,-0.95,-0.03,0.89,-0.13,-40.1,537.5,186.0,-3.51,-14.9,-0.12,0.0,0.899944442729661,1.136001760562016,0.10732434853661288,0.35,0,7,0.0
7.36425404900001,430,28.82,99.0,5.1,-7.4,-0.48,0.3,-0.84,-0.06,0.9,-0.13,-34.6,560.7,234.0,-3.66,-15.55,-0.03,0.0,0.9113177272499422,1.0129165809680478,0.09403204273600507,0.35,0,7,0.0
7.372699327999726,431,28.83,98.9,5.1,-7.4,-0.62,0.12,-0.67,-0.07,0.91,-0.13,-28.9,572.9,118.0,-3.82,-15.72,-0.09,0.0,0.9219002115196634,0.9207062506576135,0.08178056729695815,0.35,0,7,0.0
7.384253573000024,432,28.84,98.9,5.0,-7.4,-0.62,-0.16,-0.54,-0.09,0.91,-0.13,-23.1,583.2,83.0,-3.98,-15.78,-0.17,0.0,0.9236341266973628,0.8376156636548769,0.07844571907687359,0.35,0,7,0.0
7.392557323999426,433,28.85,98.8,5.0,-7.4,-0.55,-0.5,-0.38,-0.08,0.92,-0.14,-17.3,581.1,52.0,-4.13,-15.96,0.09,0.0,0.9340235543068494,0.834805366537614,0.06669516563803923,0.35,0,7,0.0
7.404265949999171,434,28.86,98.8,4.9,-7.3,-0.37,-0.77,-0.24,-0.06,0.93,-0.16,-11.5,579.9,-68.0,-4.29,-15.44,-0.08,0.0,0.9455686120002081,0.8873556220591606,0.054047105785786864,0.35,0,7,0.0
7.4126377849988785,435,28.87,98.7,4.9,-7.2,-0.34,-0.99,-0.09,-0.03,0.94,-0.18,-5.8,551.7,-297.0,-4.44,-13.96,0.52,0.0,0.9575489543621255,1.0506188652408637,0.041225428155392096,0.35,0,7,0.0
7.424134286000481,436,28.88,98.7,4.9,-7.1,-0.73,-1.01,0.17,-0.07,0.97,-0.2,-0.9,464.4,-812.0,-4.56,-10.68,0.7,0.0,0.9928746144403129,1.2577360613419653,0.005781772715660605,0.35,0,7,0.0
7.432690499999808,437,28.89,98.6,4.9,-7.0,-1.95,-1.24,0.73,-0.11,0.98,-0.17,2.5,275.5,-2052.0,-4.61,-2.16,1.47,0.0,1.00069975517135,2.4234273250914704,0.002002500655068906,0.35,0,7,0.0
7.444131786000071,438,28.9,98.3,5.0,-6.8,-2.62,-1.74,1.27,0.0,0.89,-0.14,2.9,-57.5,-2417.0,-4.58,3.57,0.0,0.0,0.9009439494219382,3.3918873802058935,0.09579823899245588,0.35,0,7,0.0
7.4525025759994605,439,28.91,98.2,5.1,-6.6,-1.08,-2.11,1.16,0.07,0.83,-0.19,1.6,-134.0,-954.0,-4.54,3.75,0.0,0.0,0.8543418519538886,2.6389581277466303,0.1395523297312954,0.35,0,7,0.0
7.464185925999118,440,28.92,98.1,5.2,-6.4,-1.49,-2.27,1.35,0.1,0.91,-0.27,0.2,-145.2,-436.0,-4.5,4.27,0.13,0.0,0.9544631999192007,3.0324082838562485,0.03864236213066363,0.35,0,7,0.0
7.472699422000005,441,28.93,98.0,5.3,-6.2,-1.34,-1.66,1.37,0.09,0.9,-0.29,-1.3,-168.8,-320.0,-4.45,5.02,0.08,0.0,0.9498420921395303,2.5353697955130725,0.04239820051212739,0.35,0,7,0.0
7.484299869000097,442,28.94,97.9,5.4,-6.0,-1.56,-1.33,1.39,0.07,0.91,-0.26,-3.2,-203.1,-381.0,-4.4,6.16,0.24,0.0,0.9489994731294639,2.476812467668879,0.04237600313174994,0.35,0,7,0.0
7.492633018000561,443,28.95,97.7,5.5,-5.8,-1.71,-1.21,1.49,0.07,0.89,-0.27,-5.5,-241.4,-352.0,-4.33,7.03,0.06,0.0,0.9326842981416595,2.5706613934939,0.057517354557163225,0.35,0,7,0.0
7.504068890999406,444,28.96,97.6,5.6,-5.7,-1.33,-1.08,1.52,0.03,0.87,-0.27,-8.2,-273.9,-344.0,-4.25,7.98,-0.04,0.0,0.9114274518577987,2.290349318335524,0.07719871682420354,0.35,0,7,0.0
7.512676190999628,445,28.97,97.5,5.8,-5.6,-1.24,-1.07,1.56,0.03,0.88,-0.25,-11.1,-309.3,-355.0,-4.17,8.96,0.06,0.0,0.9153141537199128,2.2618797492351357,0.0718457746628477,0.35,0,7,0.0
7.524069982000583,446,28.98,97.4,5.9,-5.5,-0.8,-0.89,1.47,0.04,0.89,-0.24,-14.5,-345.4,-349.0,-4.07,9.86,0.21,0.0,0.9226592003551474,1.895521036549054,0.06321071346706086,0.35,0,7,0.0
7.532416058998933,447,28.99,97.3,6.0,-5.4,-0.56,-0.88,1.35,0.06,0.92,-0.24,-18.1,-371.7,-255.0,-3.97,10.39,0.02,0.0,0.9526804291051644,1.7060187572239645,0.03252569502270297,0.35,0,7,0.0
7.543960060000245,448,29.0,97.3,6.2,-5.3,-0.45,-0.85,1.28,0.08,0.92,-0.25,-21.0,-387.1,-298.0,-3.85,11.15,0.07,0.0,0.9567131231461184,1.6010621474508728,0.0279231409621139,0.35,0,7,0.0
7.5525261419988965,449,29.01,97.3,6.3,-5.2,-0.11,-0.79,1.16,0.08,0.9,-0.28,-26.9,-416.4,-203.0,-3.73,11.38,0.12,0.0,0.9459386872308374,1.407764184798008,0.037923625339847056,0.35,0,7,0.0
7.56425297900023,450,29.02,97.3,6.4,-5.1,0.42,-0.63,0.99,0.09,0.9,-0.31,-31.1,-422.4,-120.0,-3.62,11.58,-0.17,0.0,0.9561380653441217,1.2463546846704592,0.027169762282031495,0.35,0,7,0.0
7.572771056999045,451,29.03,97.4,6.5,-5.0,0.86,-0.55,0.84,0.09,0.92,-0.31,-35.4,-425.2,-7.0,-3.5,11.4,0.14,0.0,0.9749871794028884,1.3220060514233662,0.008154235258799547,0.35,0,7,0.0
7.584322851000252,452,29.04,97.5,6.5,-4.9,1.04,-0.43,0.8,0.09,0.93,-0.32,-39.5,-410.3,109.0,-3.39,10.94,-0.07,0.0,0.9876234100101112,1.3807606599262598,0.004392355441454887,0.35,0,7,0.0
7.592662103999828,453,29.05,97.6,6.6,-4.9,1.15,-0.42,0.81,0.08,0.94,-0.33,-43.5,-391.8,176.0,-3.29,10.36,0.02,0.0,0.9994498486667552,1.4679918255903197,0.015894418216136907,0.35,0,7,0.0
7.60422284500055,454,29.06,97.7,6.7,-4.8,1.16,-0.4,0.82,0.05,0.93,-0.33,-47.3,-367.1,227.0,-3.19,9.67,0.04,0.0,0.9880789442144793,1.4758048651498612,0.004433043488583754,0.35,0,7,0.0
7.612608266999814,455,29.07,97.9,6.8,-4.8,1.31,-0.54,0.87,0.0,0.93,-0.32,-50.8,-341.2,256.0,-3.1,8.91,-0.07,0.0,0.98351410767716,1.6627086335254293,0.00012915718776085328,0.35,0,7,0.0
7.624268375999236,456,29.08,98.0,6.8,-4.7,1.71,-0.93,0.91,-0.04,0.96,-0.31,-54.0,-306.2,344.0,-3.01,7.82,-0.32,0.0,1.009603882718366,2.148743819071971,0.0254414054963763,0.35,0,7,0.0
7.632575162999274,457,29.09,98.2,6.9,-4.6,2.34,-1.38,0.78,-0.04,0.95,-0.33,-56.7,-266.7,364.0,-2.94,6.81,-0.14,0.0,1.0064790112068907,2.8263757711953303,0.02187020330520295,0.35,0,7,0.0
7.644320801999129,458,29.1,98.5,6.9,-4.4,3.06,-1.73,0.45,0.0,1.02,-0.32,-59.2,-233.2,341.0,-2.88,5.92,-0.13,0.0,1.0690182411914213,3.543867943363579,0.08272124462393893,0.35,0,7,0.0
7.652596992000326,459,29.11,98.9,6.9,-4.2,2.92,-2.19,0.14,0.0,1.1,-0.3,-61.3,-200.2,337.0,-2.83,5.02,0.02,0.0,1.140175425099138,3.652683944717911,0.15080085996102255,0.35,0,7,0.0
7.6642465719996835,460,29.12,99.2,6.9,-4.0,2.45,-2.36,-0.37,0.03,1.15,-0.3,-63.0,-166.5,338.0,-2.78,4.11,-0.1,0.0,1.1888650049522023,3.4218416094261292,0.19550063101780502,0.35,0,7,0.0
7.672679887000413,461,29.13,99.4,6.8,-3.7,1.93,-2.6,-1.04,0.09,1.18,-0.29,-64.5,-132.5,337.0,-2.75,3.19,0.05,0.0,1.2184416276539471,3.4009557480214294,0.22057570864515885,0.35,0,7,0.0
7.684168654999667,462,29.14,99.7,6.6,-3.5,1.32,-2.74,-1.65,0.17,1.2,-0.3,-65.6,-98.1,344.0,-2.72,2.24,0.0,0.0,1.2485591696031069,3.4601300553591914,0.24567938558243219,0.35,0,7,0.0
7.692800110999087,463,29.15,99.8,6.4,-3.2,1.13,-2.78,-2.19,0.27,1.22,-0.29,-66.3,-63.8,336.0,-2.71,1.33,-0.08,0.0,1.282731460594929,3.71502355308819,0.27425464304276925,0.35,0,7,0.0
7.704270262000136,464,29.16,100.0,6.1,-3.0,1.34,-2.39,-2.74,0.31,1.28,-0.28,-66.7,-29.9,338.0,-2.7,0.41,-0.01,0.0,1.346439749858864,3.8749580642892125,0.33120367366057035,0.35,0,7,0.0
7.712646415000563,465,29.17,100.1,5.7,-2.9,1.34,-1.59,-3.41,0.33,1.38,-0.26,-66.8,0.4,287.0,-2.7,-0.27,0.05,0.0,1.4425324953012322,3.9939704555742526,0.41875049072087966,0.35,0,8,0.0
7.724254570999619,466,29.18,100.3,5.3,-2.8,1.08,-0.66,-4.06,0.36,1.5,-0.16,-66.7,14.3,159.0,-2.71,-0.49,-0.01,0.0,1.5508707231745655,4.252716778719222,0.5165469442223287,0.35,0,8,0.0
7.7323391280006035,467,29.19,100.3,4.9,-2.9,-0.01,-0.31,-4.16,0.32,1.56,-0.03,-66.5,21.5,87.0,-2.71,-0.61,-0.14,0.0,1.5927648916271353,4.171546475828839,0.5472722904214005,0.35,0,8,0.0
7.744330096998965,468,29.2,100.2,4.5,-2.9,-1.78,-0.22,-3.42,0.15,1.43,0.02,-66.3,19.9,-6.0,-2.72,-0.45,0.16,0.0,1.4379847008921895,3.8617612562145784,0.38464225769272553,0.35,0,8,0.0
7.752413338999759,469,29.21,100.0,4.2,-2.9,-2.7,-0.42,-2.43,-0.08,1.22,0.07,-66.1,12.4,-55.0,-2.72,-0.22,0.0,0.0,1.224622390780113,3.6566788210068437,0.16785434862903603,0.35,0,8,0.0
7.764306903000033,470,29.22,99.7,4.1,-2.9,-2.42,-0.89,-1.48,-0.23,1.04,0.19,-66.1,0.7,-110.0,-2.72,0.16,0.24,0.0,1.081942697188719,2.97302875869037,0.02467116193688912,0.35,0,8,0.0
7.772592352999709,471,29.23,99.5,3.9,-2.8,-1.27,-2.01,-0.72,-0.29,0.96,0.28,-66.1,-9.4,-84.0,-2.72,0.33,0.06,0.0,1.0412012293500235,2.4842302630794912,0.015748899783770254,0.35,0,8,0.0
7.784261691000211,472,29.24,99.5,3.8,-2.5,-0.33,-3.19,-0.04,-0.29,0.96,0.31,-66.3,-17.2,-102.0,-2.71,0.65,-0.05,0.0,1.0496666137398103,3.2072729849515462,0.007137845086103711,0.35,0,8,0.0
7.792732603000331,473,29.25,99.5,3.8,-2.1,-0.29,-4.21,0.29,-0.23,0.95,0.25,-66.5,-31.4,-126.0,-2.7,1.01,-0.07,0.0,1.0089103032480142,4.22992907741962,0.0469362724663418,0.35,0,8,0.0
7.804299542000081,474,29.26,99.4,3.7,-1.7,-1.07,-4.92,0.14,-0.1,0.96,0.18,-67.0,-45.7,-140.0,-2.69,1.41,0.22,0.0,0.9818350166906862,5.03695344429547,0.07253132784319649,0.35,0,8,0.0
7.812559935999161,475,29.27,99.3,3.7,-1.2,-2.41,-5.22,-0.3,0.05,0.96,0.08,-67.5,-62.4,-164.0,-2.67,1.92,0.0,0.0,0.9646242791885346,5.757299714275782,0.08794722403844124,0.35,0,8,0.0
7.824312861999715,476,29.28,99.0,3.5,-0.7,-3.84,-4.96,-0.69,0.16,0.93,-0.04,-68.3,-80.6,-172.0,-2.65,2.41,-0.01,0.0,0.94451045520947,6.310570497189617,0.10589982705715573,0.35,0,8,0.0
7.832680666999295,477,29.29,98.6,3.4,-0.2,-4.42,-4.25,-0.8,0.24,0.91,-0.08,-69.2,-96.9,-155.0,-2.62,2.79,0.06,0.0,0.9445104552094699,6.183760991500238,0.10378183051601275,0.35,0,8,0.0
7.844137459000194,478,29.3,98.2,3.2,0.0,-3.96,-3.62,-0.72,0.29,0.88,-0.08,-70.3,-110.2,-136.0,-2.59,3.14,0.05,0.0,0.9299999999999999,5.413353858745981,0.11592644001097296,0.35,0,8,0.0
7.852643140999135,479,29.31,97.9,3.1,0.4,-3.09,-3.04,-0.41,0.3,0.86,-0.1,-71.5,-121.9,-123.0,-2.56,3.46,0.0,0.0,0.9162968951164245,4.354055580720117,0.12703695399665738,0.35,0,8,0.0
7.8643716650003626,480,29.32,97.6,3.1,0.6,-2.19,-2.43,0.0,0.27,0.85,-0.12,-72.7,-131.9,-99.0,-2.52,3.68,0.06,0.0,0.8998888820293314,3.2712382976481553,0.14057606774207554,0.35,0,8,0.0
7.872687220000444,481,29.33,97.5,3.1,0.8,-1.28,-2.0,0.33,0.22,0.87,-0.11,-74.1,-140.6,-95.0,-2.48,3.95,0.1,0.0,0.9041017641836565,2.397352706632881,0.13363592187599538,0.35,0,8,0.0
7.884261310999136,482,29.34,97.4,3.1,1.0,-0.6,-1.69,0.57,0.18,0.92,-0.1,-75.4,-148.0,-80.0,-2.45,4.1,-0.02,0.0,0.942761899951414,1.8817545004596108,0.09307627038607302,0.35,0,8,0.0
7.89250127699961,483,29.35,97.3,3.2,1.2,-0.33,-1.51,0.72,0.13,0.97,-0.09,-77.0,-155.1,-77.0,-2.41,4.3,-0.19,0.0,0.9828021163998376,1.7051099671282202,0.05197533285889644,0.35,0,8,0.0
7.904297856999619,484,29.36,97.3,3.3,1.4,-0.5,-1.48,0.84,0.09,1.0,-0.09,-78.6,-161.1,-55.0,-2.36,4.41,-0.07,0.0,1.0080674580602234,1.7736967046256809,0.026175791374540403,0.35,0,8,0.0
7.912653063000107,485,29.37,97.2,3.3,1.5,-1.04,-1.51,0.86,0.06,0.99,-0.12,-80.2,-165.1,-38.0,-2.32,4.51,-0.19,0.0,0.9990495483208027,2.0251666598085207,0.03448982709168191,0.35,0,8,0.0
7.924167328999829,486,29.38,97.1,3.4,1.7,-1.55,-1.46,0.77,0.06,0.94,-0.15,-81.9,-166.3,-14.0,-2.27,4.5,0.03,0.0,0.9537819457297354,2.2642879675518306,0.07816228108909429,0.35,0,8,0.0
7.932623167000202,487,29.39,97.0,3.5,1.8,-1.77,-1.34,0.65,0.08,0.91,-0.16,-83.5,-165.3,5.0,-2.23,4.47,-0.11,0.0,0.9274157643689264,2.313222859994255,0.10243789320090524,0.35,0,8,0.0
7.944158083999355,488,29.4,96.8,3.5,2.0,-1.74,-1.2,0.58,0.12,0.89,-0.17,-85.2,-164.1,11.0,-2.18,4.44,-0.08,0.0,0.9140021881811882,2.1918029108475974,0.11353444000087065,0.35,0,8,0.0
7.952540226000565,489,29.41,96.7,3.6,2.1,-1.41,-1.05,0.6,0.14,0.9,-0.18,-86.8,-161.0,29.0,-2.14,4.32,0.02,0.0,0.9284395510748128,1.8575790696495262,0.0971151355651011,0.35,0,8,0.0
7.964228306000223,490,29.42,96.6,3.6,2.2,-1.12,-0.95,0.72,0.15,0.89,-0.19,-88.4,-155.8,48.0,-2.1,4.16,0.05,0.0,0.92233399590387,1.6356344334844508,0.10115627692132312,0.35,0,8,0.0
7.972484599999007,491,29.43,96.5,3.7,2.3,-0.85,-0.82,0.85,0.14,0.9,-0.2,-89.9,-148.5,66.0,-2.06,3.94,-0.01,0.0,0.9325234581499814,1.4551288602732062,0.08914747838170756,0.35,0,8,0.0
7.984299854999335,492,29.44,96.4,3.8,2.4,-0.63,-0.72,1.02,0.13,0.92,-0.21,-91.3,-140.0,80.0,-2.02,3.7,0.07,0.0,0.9525754563287887,1.3984634424967997,0.06771357059884231,0.35,0,8,0.0
7.9925468519995775,493,29.45,96.4,3.9,2.5,-0.5,-0.62,1.21,0.12,0.92,-0.21,-92.6,-130.7,90.0,-1.98,3.44,0.0,0.0,0.951262319236918,1.4486200329969208,0.06764617353689883,0.35,0,8,0.0
8.004398433999086,494,29.46,96.3,4.0,2.5,-0.36,-0.56,1.34,0.11,0.9,-0.23,-93.9,-122.1,76.0,-1.95,3.25,0.07,0.0,0.9354143466934853,1.4962620091414471,0.08182426315872482,0.35,0,8,0.0
8.012509465999756,495,29.47,96.3,4.2,2.6,-0.42,-0.54,1.46,0.11,0.91,-0.22,-95.1,-115.4,66.0,-1.92,3.07,0.02,0.0,0.9426558226627575,1.612327510154187,0.0730911314456637,0.35,0,8,0.0
8.024238156000138,496,29.48,96.3,4.3,2.7,-0.5,-0.5,1.45,0.12,0.88,-0.22,-96.2,-108.7,75.0,-1.89,2.84,-0.07,0.0,0.9149863386958299,1.6132265804901678,0.09874540310433955,0.35,0,8,0.0
8.03260358300031,497,29.49,96.2,4.4,2.7,-0.58,-0.51,1.3,0.14,0.86,-0.22,-97.2,-100.8,76.0,-1.86,2.64,0.0,0.0,0.8986656775464388,1.5121177202850313,0.11276474296865602,0.35,0,8,0.0
8.044326876999548,498,29.5,96.1,4.5,2.8,-0.76,-0.49,1.02,0.18,0.83,-0.24,-98.2,-94.6,68.0,-1.84,2.47,-0.18,0.0,0.8825531145489205,1.3631214179228495,0.1262997598468507,0.35,0,8,0.0
8.052588332999221,499,29.51,96.0,4.6,2.8,-1.09,-0.32,0.64,0.21,0.79,-0.27,-99.1,-86.0,84.0,-1.81,2.22,-0.06,0.0,0.8608716512930369,1.3038788287260439,0.14502159864067965,0.35,0,8,0.0
8.064152904000366,500,29.52,95.9,4.7,2.9,-1.55,-0.05,0.11,0.24,0.72,-0.31,-99.9,-76.5,90.0,-1.79,1.98,-0.08,0.0,0.819817052762383,1.5547025438970634,0.18235467322790677,0.35,0,8,0.0
8.072552490999442,501,29.53,95.7,4.6,2.9,-1.82,0.39,-0.46,0.29,0.68,-0.34,-100.5,-66.3,100.0,-1.78,1.67,0.0,0.0,0.8136952746575342,1.9173158320944412,0.18470692230610053,0.35,0,8,0.0
8.08418876900032,502,29.54,95.6,4.6,2.8,-1.83,1.13,-0.93,0.34,0.67,-0.37,-101.1,-54.6,117.0,-1.76,1.31,0.04,0.0,0.8374962686484043,2.34322427437068,0.15768780974892582,0.35,0,8,0.0
8.092593090999799,503,29.55,95.4,4.5,2.6,-1.38,2.05,-1.08,0.36,0.7,-0.36,-101.6,-44.2,95.0,-1.75,1.11,0.11,0.0,0.865563400335296,2.696905634240842,0.1270282645007934,0.35,0,8,0.0
8.104307007999523,504,29.56,95.3,4.4,2.3,-0.38,2.75,-0.98,0.32,0.74,-0.29,-102.0,-37.3,79.0,-1.74,0.91,-0.09,0.0,0.8567963585356791,2.9440278531291106,0.133079400174402,0.35,0,8,0.0
8.112578565000149,505,29.57,95.3,4.3,2.0,0.64,3.0,-0.78,0.24,0.74,-0.24,-102.3,-30.8,60.0,-1.73,0.79,-0.13,0.0,0.8141252974819048,3.1651224304914334,0.1722354520036129,0.35,0,8,0.0
8.12427575899892,506,29.58,95.3,4.3,1.7,1.32,3.1,-0.69,0.17,0.74,-0.23,-102.6,-27.2,33.0,-1.72,0.74,0.06,0.0,0.7933473388119481,3.4392586410446078,0.18915314246009818,0.35,0,8,0.0
8.132302206999157,507,29.59,95.5,4.3,1.4,1.58,3.15,-0.76,0.13,0.74,-0.23,-102.9,-27.9,6.0,-1.72,0.76,0.01,0.0,0.7857480512225277,3.6050658801192528,0.19281738144852822,0.35,0,8,0.0
8.144336056000611,508,29.6,95.6,4.2,1.1,1.66,3.16,-0.86,0.11,0.77,-0.22,-103.2,-31.1,-34.0,-1.71,0.93,0.15,0.0,0.8083316151184488,3.671620895462929,0.166829141201555,0.35,0,8,0.0
8.152549725999052,509,29.61,95.8,4.2,0.8,1.99,3.06,-0.76,0.09,0.87,-0.17,-103.5,-35.2,-29.0,-1.7,0.99,0.07,0.0,0.891010662113535,3.728444715964017,0.0824670923223394,0.35,0,8,0.0
8.164344292999886,510,29.62,96.0,4.1,0.5,2.47,2.62,-0.32,0.02,0.99,-0.06,-103.9,-37.3,-27.0,-1.69,1.06,-0.1,0.0,0.9920181449953422,3.614927385162806,0.018169582748278512,0.35,0,8,0.0
8.172471165000388,511,29.63,96.2,4.1,0.3,2.86,1.58,0.06,-0.04,1.03,0.0,-104.3,-40.8,-28.0,-1.68,1.13,-0.07,0.0,1.0307764064044151,3.2679657280944667,0.0557892872742044,0.35,0,8,0.0
8.184260099998937,512,29.64,96.5,4.2,0.2,2.72,0.32,0.21,-0.07,1.08,-0.05,-104.7,-44.0,-24.0,-1.66,1.2,-0.02,0.0,1.0834205093129814,2.746798136012183,0.10626472237911522,0.35,0,8,0.0
8.19237265799893,513,29.65,96.7,4.2,0.2,1.6,-0.55,0.18,-0.09,1.1,-0.23,-105.2,-43.9,0.0,-1.65,1.16,-0.13,0.0,1.1273863579093018,1.701440566108614,0.14722595955592688,0.35,0,8,0.0
8.204286928999863,514,29.66,96.8,4.2,0.3,0.02,-0.72,-0.03,-0.03,1.04,-0.39,-105.6,-41.8,22.0,-1.64,1.08,0.03,0.0,1.111125555461668,0.7209022125087423,0.1283458539661272,0.35,0,8,0.0
8.212539058000402,515,29.67,96.8,4.2,0.3,-0.21,-0.41,-0.15,0.08,1.1,-0.46,-106.0,-35.9,58.0,-1.63,0.86,-0.05,0.0,1.1949895397031725,0.48445846055157293,0.20796564144347907,0.35,0,8,0.0
8.224199918000522,516,29.68,96.8,4.1,0.3,0.41,0.13,0.01,0.13,1.11,-0.43,-106.3,-27.0,80.0,-1.62,0.61,0.05,0.0,1.1974556359214317,0.430232495285979,0.20622310290850354,0.35,0,8,0.0
8.232639416999518,517,29.69,96.9,4.2,0.3,1.4,0.46,0.24,0.16,1.14,-0.36,-106.5,-17.1,98.0,-1.62,0.32,0.07,0.0,1.2061509026651682,1.4930505684671231,0.2106200022591953,0.35,0,8,0.0
8.244079217000035,518,29.7,97.1,4.2,0.3,1.55,0.51,0.67,0.13,1.16,-0.26,-106.6,-6.8,80.0,-1.62,0.13,0.04,0.0,1.195867885679685,1.7639444435695815,0.19633024556823775,0.35,0,8,0.0
8.25257728699944,519,29.71,97.2,4.3,0.2,1.19,0.32,0.93,0.13,1.08,-0.3,-106.6,-4.4,35.0,-1.62,0.1,-0.01,0.0,1.1284059553192725,1.5438264151127872,0.12629094890366876,0.35,0,8,0.0
8.264252360999308,520,29.72,97.4,4.4,0.2,1.66,0.6,0.8,0.19,1.05,-0.38,-106.6,-2.2,33.0,-1.62,0.0,-0.1,0.0,1.1326958991715297,1.937937047481161,0.12796927490080745,0.35,0,8,0.0
8.272576493000088,521,29.73,97.6,4.5,0.1,2.64,1.23,0.75,0.18,1.22,-0.26,-106.6,0.7,18.0,-1.62,0.0,0.07,0.0,1.260317420335052,3.0074906483645134,0.25047898014304315,0.35,0,8,0.0
8.284295424000447,522,29.74,97.9,4.6,0.0,2.7,1.45,0.77,0.12,1.34,-0.16,-106.6,0.1,1.0,-1.62,0.0,0.03,0.0,1.354843164355196,3.1599683542719226,0.3381046296799233,0.35,0,8,0.0
8.292480353999053,523,29.75,98.1,4.7,-0.1,2.39,1.76,1.0,0.15,1.61,-0.12,-106.6,0.1,9.0,-1.62,-0.03,-0.1,0.0,1.6214191315017843,3.1320440609927567,0.5925869848899814,0.35,0,9,0.0
8.304251748999377,524,29.76,98.2,4.9,-0.2,2.06,2.11,2.09,0.11,1.88,0.01,-106.6,2.1,15.0,-1.62,-0.08,-0.05,0.0,1.8832418856854263,3.614387914986436,0.8373215442921509,0.35,0,9,0.0
8.312566025999331,525,29.77,98.4,5.2,-0.4,0.8,1.97,3.38,-0.03,1.73,0.09,-106.6,4.2,23.0,-1.62,-0.16,0.07,0.0,1.732599203508994,3.9931566460633623,0.6729452848734043,0.35,0,9,0.0
8.324215290000211,526,29.78,98.4,5.6,-0.5,-0.49,1.74,3.69,-0.01,1.39,0.06,-106.5,11.7,83.0,-1.62,-0.48,-0.02,0.0,1.3913302986710236,4.108990143575426,0.3250428524347251,0.35,0,9,0.0
8.332626780000282,527,29.79,98.3,6.0,-0.7,-1.23,1.95,3.31,0.15,1.08,0.02,-106.3,25.5,122.0,-1.63,-0.88,0.0,0.0,1.0905503197927182,4.033794739448203,0.023777616085291164,0.35,0,9,0.0
8.344070056000419,528,29.8,98.1,6.3,-0.9,-1.08,2.61,2.55,0.28,0.86,0.0,-105.9,41.4,156.0,-1.64,-1.35,-0.24,0.0,0.904433524367601,3.8053909129023786,0.15909239575302958,0.35,0,9,0.0
8.352438521000295,529,29.81,98.0,6.6,-1.1,0.0,3.54,1.68,0.39,0.78,0.01,-105.4,58.2,164.0,-1.66,-1.78,-0.06,0.0,0.8721238444166058,3.9184180481413673,0.18757403418994423,0.35,0,9,0.0
8.364257698000074,530,29.82,98.1,6.7,-1.5,1.43,4.38,0.85,0.46,0.77,0.04,-104.7,76.7,180.0,-1.68,-2.31,-0.21,0.0,0.8978307190111062,4.685274805174185,0.15862981640353502,0.35,0,9,0.0
8.372677610999745,531,29.83,98.2,6.9,-2.0,2.24,5.11,0.37,0.46,0.81,-0.01,-103.8,98.0,212.0,-1.71,-2.95,0.0,0.0,0.9315578350268974,5.591654495764201,0.12240464637998905,0.35,0,9,0.0
8.38408201799939,532,29.84,98.4,7.0,-2.5,1.99,5.62,0.16,0.36,0.89,0.0,-102.7,120.7,214.0,-1.74,-3.54,-0.07,0.0,0.9600520819205591,5.9640674040456645,0.09203219149660069,0.35,0,9,0.0
8.3922761419999,533,29.85,98.4,7.1,-3.1,1.32,5.65,0.17,0.25,0.92,0.04,-101.3,142.3,219.0,-1.78,-4.15,-0.03,0.0,0.9542012366372201,5.8046360781706206,0.09592537604434082,0.35,0,9,0.0
8.404237736000141,534,29.86,98.5,7.2,-3.6,1.03,5.45,0.12,0.15,0.94,0.03,-99.6,167.2,242.0,-1.83,-4.87,-0.08,0.0,0.9523654760647301,5.547774328503278,0.09580591388449411,0.35,0,9,0.0
8.412425215999974,535,29.87,98.5,7.2,-4.2,1.02,5.29,0.07,0.08,0.99,0.02,-97.8,191.0,247.0,-1.89,-5.53,-0.02,0.0,0.9934284070832683,5.387893837112977,0.05364812320863688,0.35,0,9,0.0
8.42420280999977,536,29.88,98.6,7.3,-4.7,0.86,5.01,0.0,0.01,1.0,0.05,-95.7,214.1,230.0,-1.94,-6.11,0.0,0.0,1.0012991560967182,5.083276502414559,0.04486182671128325,0.35,0,9,0.0
8.43265404900012,537,29.89,98.6,7.4,-5.2,0.65,4.38,-0.24,-0.03,0.97,0.04,-93.5,233.9,204.0,-2.0,-6.57,0.0,0.0,0.9712878049270464,4.434467273529031,0.073375714323336,0.35,0,9,0.0
8.444030451999424,538,29.9,98.6,7.4,-5.6,0.55,3.81,-0.62,-0.06,0.93,0.01,-91.0,257.2,234.0,-2.07,-7.3,-0.22,0.0,0.9319871243745806,3.8991024608235163,0.11042286697828574,0.35,0,9,0.0
8.452553412998896,539,29.91,98.6,7.4,-5.9,0.67,3.33,-1.03,-0.06,0.92,0.0,-88.2,285.1,251.0,-2.15,-8.03,-0.11,0.0,0.9219544457292888,3.549464748381085,0.1180464347111061,0.35,0,9,0.0
8.464296865000506,540,29.92,98.6,7.3,-6.3,0.77,2.98,-1.26,-0.04,0.9,0.0,-85.1,308.2,220.0,-2.24,-8.58,-0.09,0.0,0.9008884503644167,3.325793138485916,0.13633018147445852,0.35,0,9,0.0
8.472352208000302,541,29.93,98.7,7.2,-6.6,0.86,2.67,-1.38,-0.03,0.87,-0.01,-81.9,329.1,229.0,-2.33,-9.26,0.08,0.0,0.8705745229444749,3.1261637832973497,0.16331122671651233,0.35,0,9,0.0
8.484171410998897,542,29.94,98.7,7.1,-6.8,0.89,2.4,-1.42,-0.01,0.86,-0.04,-78.4,353.3,238.0,-2.43,-9.9,0.0,0.0,0.8609878047916822,2.9272000273298713,0.16943998597191878,0.35,0,9,0.0
8.492547325999112,543,29.95,98.8,7.0,-7.1,0.91,2.18,-1.35,0.0,0.88,-0.05,-74.7,376.3,244.0,-2.54,-10.57,-0.07,0.0,0.8814193099768123,2.720845456838738,0.14602831117105286,0.35,0,9,0.0
8.504420097000548,544,29.96,98.8,6.9,-7.3,0.88,1.95,-1.27,0.0,0.89,-0.07,-70.7,404.8,266.0,-2.65,-11.32,-0.01,0.0,0.8927485648266258,2.4879308672067237,0.13200507519481453,0.35,0,9,0.0
8.51259535799909,545,29.97,98.9,6.8,-7.5,0.78,1.77,-1.16,0.0,0.93,-0.08,-66.6,425.4,209.0,-2.75,-11.77,-0.06,0.0,0.9334345183246654,2.2554157044766714,0.0894927392628394,0.35,0,9,0.0
8.52436593299899,546,29.98,98.9,6.7,-7.7,0.39,1.56,-1.0,-0.02,0.96,-0.11,-62.2,450.5,254.0,-2.87,-12.55,-0.05,0.0,0.9664884893261791,1.893594465560142,0.05530999289609917,0.35,0,9,0.0
8.532584840999334,547,29.99,98.9,6.7,-7.9,-0.08,1.46,-0.81,-0.04,0.97,-0.12,-57.4,476.0,225.0,-3.02,-13.16,0.0,0.0,0.9782126558167197,1.671556161186336,0.042714109877447504,0.35,0,9,0.0
8.544106347999332,548,30.0,98.9,6.6,-8.0,-0.64,1.23,-0.72,-0.05,0.94,-0.1,-54.2,492.3,328.0,-3.14,-14.09,-0.04,0.0,0.9466255859631092,1.5623379916010491,0.07281515613643674,0.35,0,9,0.0
8.55256828599886,549,30.01,98.8,6.6,-8.1,-0.89,0.94,-0.7,-0.05,0.9,-0.08,-47.7,526.9,247.0,-3.29,-14.47,-0.02,0.0,0.9049309365912959,1.4716317474150928,0.11221960939808517,0.35,0,9,0.0
8.564352598999903,550,30.02,98.7,6.5,-8.2,-1.0,0.52,-0.75,-0.06,0.87,-0.08,-42.3,541.0,187.0,-3.43,-14.89,0.0,0.0,0.875728268357257,1.3538463723776046,0.13859383207948162,0.35,0,9,0.0
8.572602791999088,551,30.03,98.6,6.4,-8.2,-1.04,0.12,-0.78,-0.05,0.85,-0.08,-36.8,555.3,174.0,-3.59,-15.35,-0.11,0.0,0.8552192701290119,1.305526713629407,0.1559207737015723,0.35,0,9,0.0
8.584335821000423,552,30.04,98.5,6.3,-8.2,-0.86,-0.25,-0.87,-0.04,0.82,-0.09,-31.1,565.9,56.0,-3.74,-15.28,0.0,0.0,0.8258934555982387,1.2485992151206888,0.1815416564676986,0.35,0,9,0.0
8.592625954999676,553,30.05,98.4,6.2,-8.2,-0.54,-0.52,-0.9,-0.01,0.86,-0.1,-25.5,563.8,37.0,-3.89,-15.38,0.0,0.0,0.8658521813797087,1.1713240371477058,0.13875127207250415,0.35,0,9,0.0
8.6041736520001,554,30.06,98.4,6.1,-8.2,-0.35,-0.61,-0.8,-0.01,0.9,-0.13,-19.9,555.9,-85.0,-4.04,-14.93,-0.01,0.0,0.9093954035511727,1.0651760417883984,0.09330388890301933,0.35,0,9,0.0
8.612649688999227,555,30.07,98.3,6.0,-8.1,-0.41,-0.75,-0.63,-0.02,0.96,-0.13,-14.4,550.6,-59.0,-4.19,-14.82,-0.15,0.0,0.9689685237405805,1.061838029079765,0.0330561533393392,0.35,0,9,0.0
8.624183678999543,556,30.08,98.3,5.9,-8.0,-0.75,-0.94,-0.41,-0.03,0.97,-0.14,-9.1,517.2,-363.0,-4.33,-13.29,0.13,0.0,0.9805100713404222,1.270511707935035,0.02108431362470764,0.35,0,9,0.0
8.632706459000474,557,30.09,98.2,5.8,-8.0,-1.36,-0.89,-0.16,-0.11,0.97,-0.17,-4.4,436.0,-837.0,-4.45,-10.2,0.81,0.0,0.9909086738948246,1.633187068280912,0.010471996848899212,0.35,0,9,0.0
8.644364493999092,558,30.1,98.0,5.8,-7.9,-2.13,-1.07,0.22,-0.15,0.97,-0.18,-1.0,287.4,-1284.0,-4.52,-5.99,0.73,0.0,0.9978977903573091,2.393783615951951,0.0034132227786863867,0.35,0,9,0.0
8.65258859200003,559,30.11,97.8,5.9,-7.7,-2.68,-1.26,0.7,-0.14,0.97,-0.15,0.6,123.1,-1620.0,-4.54,-1.02,0.39,0.0,0.9914635646356349,3.043024810940588,0.009650499530353462,0.35,0,9,0.0
8.664311061998887,560,30.12,97.5,5.9,-7.6,-2.53,-1.88,0.96,-0.02,0.93,-0.13,0.7,-36.9,-1336.0,-4.53,2.03,0.16,0.0,0.9392550239418472,3.2949810318118673,0.06062185941965825,0.35,0,9,0.0
8.67254501699972,561,30.13,97.4,6.0,-7.3,-2.17,-2.13,1.03,0.08,0.95,-0.22,-0.1,-104.7,-831.0,-4.5,3.51,0.13,0.0,0.978417088975862,3.2104049588797983,0.021030598497930653,0.35,0,9,0.0
8.684323208999558,562,30.14,97.2,6.1,-7.1,-2.43,-1.88,1.13,0.13,0.98,-0.32,-1.5,-154.1,-584.0,-4.46,4.72,0.16,0.0,1.0390861369491944,3.2735607524529002,0.03884568048589365,0.35,0,9,0.0
8.692781173000185,563,30.15,96.9,6.2,-7.0,-2.73,-1.04,1.27,0.13,0.91,-0.31,-3.4,-204.5,-568.0,-4.4,6.27,0.16,0.0,0.970103087305674,3.18549839114698,0.02953462177447419,0.35,0,9,0.0
8.704326568000397,564,30.16,96.7,6.3,-6.9,-2.14,-0.71,1.29,0.11,0.8,-0.24,-5.9,-258.0,-523.0,-4.32,7.63,0.24,0.0,0.842436941260294,2.597652786651827,0.15405675246345707,0.35,0,9,0.0
8.712549877000129,565,30.17,96.5,6.4,-6.8,-1.11,-0.69,1.29,0.07,0.79,-0.2,-8.8,-303.8,-473.0,-4.24,8.75,0.09,0.0,0.8179242018671413,1.8363823131363468,0.17499810201947752,0.35,0,9,0.0
8.724461785999665,566,30.18,96.5,6.5,-6.7,-0.68,-0.85,1.46,0.07,0.81,-0.17,-12.2,-349.3,-452.0,-4.15,10.0,0.14,0.0,0.8306021911842035,1.8211260252931425,0.15907371044836704,0.35,0,9,0.0
8.732498498000496,567,30.19,96.5,6.7,-6.6,-0.16,-0.85,1.57,0.09,0.79,-0.17,-16.0,-391.9,-395.0,-4.04,11.0,0.08,0.0,0.8130805618141416,1.7924843095547587,0.1730634330220604,0.35,0,9,0.0
8.744370099999287,568,30.2,96.6,6.8,-6.5,0.14,-0.97,1.56,0.09,0.8,-0.18,-20.1,-418.4,-296.0,-3.92,11.65,-0.03,0.0,0.8249242389456137,1.8423083346714795,0.15799536077277643,0.35,0,9,0.0
8.75253349599916,569,30.21,96.7,6.9,-6.3,0.46,-1.16,1.49,0.09,0.81,-0.21,-24.5,-445.0,-249.0,-3.79,12.29,0.01,0.0,0.8416056083463324,1.943527720409462,0.1384877115446167,0.35,0,9,0.0
8.764378199999555,570,30.22,96.8,7.1,-6.2,1.1,-1.32,1.29,0.07,0.82,-0.25,-29.0,-453.6,-114.0,-3.67,12.39,0.03,0.0,0.860116271209887,2.148604198078371,0.1175775077074408,0.35,0,9,0.0
8.772706425999786,571,30.23,96.9,7.2,-6.0,1.61,-1.42,1.08,0.05,0.86,-0.27,-33.6,-458.8,-64.0,-3.55,12.48,0.03,0.0,0.9027735042633893,2.4031021617900477,0.07342186916085969,0.35,0,9,0.0
8.784072356998877,572,30.24,97.1,7.2,-5.9,1.84,-1.5,0.91,0.01,0.89,-0.28,-38.2,-448.5,81.0,-3.43,12.0,0.07,0.0,0.9330594836343501,2.5423807739990485,0.042273171994100966,0.35,0,9,0.0
8.792498065000473,573,30.25,97.3,7.3,-5.7,2.1,-1.73,0.79,0.0,0.91,-0.29,-42.6,-430.3,162.0,-3.3,11.39,-0.19,0.0,0.9550916186418976,2.8331960751066987,0.019836216246822413,0.35,0,9,0.0
8.804339419999451,574,30.26,97.6,7.4,-5.5,2.24,-2.06,0.75,-0.02,0.94,-0.31,-46.7,-405.8,223.0,-3.2,10.72,-0.16,0.0,0.9899999999999999,3.134278226322609,0.014770721809054255,0.35,0,9,0.0
8.812539219999962,575,30.27,97.9,7.4,-5.3,2.44,-2.39,0.68,-0.04,0.95,-0.35,-50.7,-381.6,243.0,-3.09,10.04,-0.07,0.0,1.0132127121192271,3.482542174906142,0.037223765249715934,0.35,0,9,0.0
8.824254179999116,576,30.28,98.2,7.4,-5.0,2.89,-2.53,0.55,-0.03,0.99,-0.38,-54.2,-348.5,338.0,-3.0,8.93,-0.14,0.0,1.060848716830067,3.8801417499880078,0.0831625745613448,0.35,0,9,0.0
8.832651998000074,577,30.29,98.5,7.4,-4.7,3.04,-2.72,0.37,-0.01,1.05,-0.34,-57.4,-310.0,338.0,-2.93,8.09,-0.18,0.0,1.1037209792334293,4.0959614255996115,0.12351414022541285,0.35,0,9,0.0
8.844090872999004,578,30.3,98.8,7.4,-4.4,3.23,-3.03,0.01,0.0,1.11,-0.3,-60.3,-278.3,318.0,-2.85,7.24,-0.24,0.0,1.149826073804208,4.428758290988569,0.16622685010026783,0.35,0,9,0.0
8.852634449000107,579,30.31,99.2,7.3,-4.1,3.31,-3.22,-0.62,0.09,1.17,-0.33,-62.9,-242.4,364.0,-2.78,6.11,0.0,0.0,1.2189749792346025,4.659281060421232,0.23066824042004896,0.35,0,9,0.0
8.86438438299956,580,30.32,99.6,7.2,-3.8,2.84,-3.03,-1.43,0.19,1.25,-0.34,-65.0,-202.0,390.0,-2.73,5.0,0.08,0.0,1.30927460832325,4.392197627611945,0.3145485121185225,0.35,0,9,0.0
8.872715674000574,581,30.33,99.9,6.9,-3.6,2.11,-2.78,-2.27,0.29,1.31,-0.31,-66.8,-162.2,405.0,-2.68,3.86,-0.06,0.0,1.3770620901034203,4.163340005332257,0.37468927402071883,0.35,0,10,0.0
8.884308069998951,582,30.34,100.1,6.6,-3.4,1.32,-2.5,-2.83,0.35,1.36,-0.26,-68.1,-118.8,417.0,-2.65,2.68,-0.27,0.0,1.4281806608409178,4.000162496699353,0.41729168786305193,0.35,0,10,0.0
8.892482774999735,583,30.35,100.2,6.3,-3.2,0.77,-2.06,-3.42,0.39,1.35,-0.23,-69.0,-76.2,431.0,-2.63,1.53,-0.16,0.0,1.4239030865898143,4.066066895662195,0.40475383133970944,0.35,0,10,0.0
8.904264033999425,584,30.36,100.3,5.9,-3.1,1.02,-1.43,-4.05,0.4,1.4,-0.17,-69.5,-32.8,432.0,-2.63,0.35,-0.22,0.0,1.4659126849850233,4.414498839052968,0.43782816114021994,0.35,0,10,0.0
8.912751247000415,585,30.37,100.4,5.5,-3.1,0.86,-0.76,-4.23,0.34,1.51,-0.13,-69.5,7.9,389.0,-2.63,-0.61,0.0,0.0,1.5532546475063258,4.382932808063569,0.514666721188292,0.35,0,10,0.0
8.92434854900057,586,30.38,100.5,5.1,-3.1,-0.08,-0.15,-3.49,0.14,1.51,-0.03,-69.2,32.7,268.0,-2.64,-1.13,0.04,0.0,1.516772890053089,3.494137948049562,0.46862126446035424,0.35,0,10,0.0
8.932539690998965,587,30.39,100.4,4.8,-3.1,-0.83,-0.34,-2.32,-0.09,1.37,0.1,-68.8,48.5,168.0,-2.65,-1.42,0.0,0.0,1.3765899897936205,2.4873479853048304,0.3218695969168679,0.35,0,10,0.0
8.94428003899884,588,30.4,100.3,4.6,-3.1,-0.61,-1.04,-1.19,-0.27,1.18,0.13,-68.2,54.5,70.0,-2.67,-1.45,0.02,0.0,1.2174563647211343,1.694048405447731,0.159481252407494,0.35,0,10,0.0
8.952703834998829,589,30.41,100.3,4.5,-2.9,0.2,-1.97,-0.48,-0.33,1.06,0.18,-67.7,47.1,-65.0,-2.68,-1.06,-0.09,0.0,1.1246777316191514,2.0374739262135355,0.06536856691940085,0.35,0,10,0.0
8.96419008399971,590,30.42,100.4,4.4,-2.7,0.71,-3.2,-0.08,-0.3,1.04,0.29,-67.4,28.4,-162.0,-2.69,-0.47,0.27,0.0,1.1205802068571442,3.2787955105495676,0.060045621314245734,0.35,0,10,0.0
8.972580450999885,591,30.43,100.5,4.4,-2.3,0.07,-4.62,0.16,-0.22,1.08,0.27,-67.3,1.5,-233.0,-2.69,0.25,0.05,0.0,1.1347686988985906,4.623299687452675,0.07274943108857834,0.35,0,10,0.0
8.984186075000252,592,30.44,100.4,4.3,-1.8,-1.67,-5.35,0.24,-0.16,1.05,0.14,-67.4,-17.0,-171.0,-2.68,0.61,0.23,0.0,1.0713076122197585,5.609723700860854,0.009102577521551414,0.35,0,10,0.0
8.992479586999252,593,30.45,100.2,4.2,-1.2,-2.96,-5.52,-0.05,-0.06,0.99,0.1,-67.7,-28.2,-142.0,-2.67,0.95,0.09,0.0,0.9968450230602548,6.263744886248161,0.06405281140519326,0.35,0,10,0.0
9.004319690999182,594,30.46,99.9,4.1,-0.7,-3.39,-5.61,-0.38,0.06,0.93,0.05,-68.0,-41.8,-147.0,-2.66,1.36,0.03,0.0,0.9332738076256079,6.565713974884986,0.1250715463030433,0.35,0,10,0.0
9.012553717000628,595,30.47,99.6,3.9,-0.2,-3.49,-5.38,-0.58,0.18,0.92,-0.03,-68.6,-57.5,-142.0,-2.64,1.73,0.08,0.0,0.9379232377972091,6.4390138996588595,0.11801367380881311,0.35,0,10,0.0
9.024363336000533,596,30.48,99.3,3.8,0.2,-3.63,-4.71,-0.43,0.28,0.93,-0.13,-69.3,-72.8,-144.0,-2.62,2.13,0.04,0.0,0.979897953870708,5.962038242077956,0.07451817858060794,0.35,0,10,0.0
9.032499961998838,597,30.49,99.0,3.7,0.6,-3.6,-3.87,-0.07,0.35,0.91,-0.13,-70.1,-87.0,-150.0,-2.6,2.56,0.05,0.0,0.9836157786453001,5.2860003783579135,0.06938434672989557,0.35,0,10,0.0
9.04438548500002,598,30.5,98.6,3.7,1.0,-3.34,-3.08,0.37,0.35,0.85,-0.12,-71.1,-102.0,-145.0,-2.57,2.94,-0.07,0.0,0.9270382947861431,4.558387872921742,0.12344259397727164,0.35,0,10,0.0
9.052539407999575,599,30.51,98.4,3.7,1.3,-2.42,-2.46,0.65,0.29,0.76,-0.11,-72.2,-116.8,-146.0,-2.54,3.35,-0.18,0.0,0.8208532146492453,3.5114811689655974,0.2250351206318859,0.35,0,10,0.0
9.064315551000618,600,30.52,98.2,3.7,1.5,-1.16,-2.04,0.76,0.22,0.77,-0.07,-73.5,-131.8,-151.0,-2.5,3.78,0.31,0.0,0.8038656604184558,2.466738737685854,0.237182221365422,0.35,0,10,0.0
9.07250401499914,601,30.53,98.2,3.8,1.7,0.0,-1.69,0.78,0.18,0.83,-0.08,-74.9,-148.2,-151.0,-2.46,4.19,0.08,0.0,0.8530533394811839,1.861316738225926,0.18423465145663998,0.35,0,10,0.0
9.08427599999959,602,30.54,98.2,3.8,1.9,0.39,-1.48,0.86,0.16,0.89,-0.08,-76.5,-162.0,-136.0,-2.42,4.54,-0.02,0.0,0.9077995373429092,1.7555910685578233,0.12689868452301634,0.35,0,10,0.0
9.092513436000445,603,30.55,98.2,3.9,2.0,0.32,-1.36,0.85,0.12,0.91,-0.1,-78.2,-172.9,-117.0,-2.37,4.83,0.07,0.0,0.9233092656309694,1.6353898617760843,0.10916117711025697,0.35,0,10,0.0
9.10438104700006,604,30.56,98.3,4.0,2.2,0.02,-1.32,0.8,0.11,0.92,-0.12,-80.0,-181.4,-84.0,-2.32,4.99,0.08,0.0,0.9342911751697112,1.543632080516598,0.09621568222008481,0.35,0,10,0.0
9.112732444998983,605,30.57,98.3,4.1,2.3,-0.21,-1.2,0.71,0.12,0.91,-0.15,-81.8,-187.0,-64.0,-2.27,5.14,-0.01,0.0,0.9300537618869137,1.4100354605470033,0.09844403359282461,0.35,0,10,0.0
9.124150511999687,606,30.58,98.3,4.2,2.4,-0.24,-1.0,0.61,0.14,0.91,-0.17,-83.7,-191.7,-46.0,-2.22,5.24,-0.14,0.0,0.9362691920596341,1.1957006314291216,0.09038403135170203,0.35,0,10,0.0
9.132468189000065,607,30.59,98.3,4.3,2.5,-0.19,-0.73,0.54,0.16,0.91,-0.19,-85.7,-194.6,-30.0,-2.16,5.31,0.04,0.0,0.9432921074619462,0.9276852914647294,0.08169389363040214,0.35,0,10,0.0
9.144398049998927,608,30.6,98.2,4.3,2.6,-0.12,-0.57,0.55,0.18,0.92,-0.21,-87.6,-195.1,-4.0,-2.11,5.27,-0.11,0.0,0.9606768447297979,0.8011242100947893,0.06302297323529948,0.35,0,10,0.0
9.152540174000023,609,30.61,98.2,4.4,2.6,-0.1,-0.35,0.66,0.18,0.93,-0.22,-89.5,-191.5,31.0,-2.06,5.14,-0.09,0.0,0.9724710792614863,0.7537240874484509,0.05020416392953875,0.35,0,10,0.0
9.164305907999733,610,30.62,98.2,4.4,2.7,-0.12,-0.17,0.77,0.17,0.92,-0.23,-91.4,-184.5,67.0,-2.01,4.89,-0.08,0.0,0.963431367560762,0.7976214641043707,0.0580589981176578,0.35,0,10,0.0
9.172746140999152,611,30.63,98.2,4.5,2.7,-0.04,0.0,0.84,0.17,0.91,-0.24,-93.2,-174.5,90.0,-1.96,4.62,-0.06,0.0,0.9563472172804185,0.8409518416651455,0.06384028543004117,0.35,0,10,0.0
9.184386802000517,612,30.64,98.2,4.6,2.7,-0.01,0.18,0.86,0.17,0.9,-0.24,-94.9,-164.9,92.0,-1.92,4.36,-0.09,0.0,0.9468368391650169,0.878692210048547,0.0718836502745338,0.35,0,10,0.0
9.192370630000369,613,30.65,98.2,4.7,2.7,0.04,0.31,0.84,0.16,0.89,-0.24,-96.4,-154.2,108.0,-1.88,4.05,-0.09,0.0,0.9355746896961247,0.8962700485902672,0.08148288374855761,0.35,0,10,0.0
9.204294174000097,614,30.66,98.2,4.8,2.7,-0.03,0.39,0.78,0.15,0.89,-0.24,-97.9,-142.2,114.0,-1.84,3.71,-0.01,0.0,0.9339164844888433,0.8725823743349392,0.08147826717672213,0.35,0,10,0.0
9.212514687998919,615,30.67,98.2,4.8,2.6,-0.19,0.41,0.71,0.15,0.86,-0.24,-99.2,-129.2,132.0,-1.8,3.33,0.02,0.0,0.9053728513711905,0.8416056083463322,0.10782146228848744,0.35,0,10,0.0
9.224308504999499,616,30.68,98.2,4.9,2.6,-0.34,0.38,0.57,0.14,0.84,-0.24,-100.4,-115.4,127.0,-1.77,2.99,-0.03,0.0,0.8847598544237865,0.7647875521999558,0.1258657700511736,0.35,0,10,0.0
9.232468535999942,617,30.69,98.1,5.0,2.6,-0.49,0.41,0.39,0.14,0.83,-0.26,-101.5,-101.3,140.0,-1.75,2.58,-0.06,0.0,0.8809653795694811,0.7485318964479737,0.12706704000736935,0.35,0,10,0.0
9.244240480998997,618,30.7,98.1,5.0,2.5,-0.7,0.5,0.11,0.15,0.79,-0.27,-102.4,-86.9,139.0,-1.72,2.2,0.02,0.0,0.8482334584299301,0.8672369918309527,0.15660298192398192,0.35,0,10,0.0
9.252236206999441,619,30.71,98.0,5.0,2.5,-1.11,0.52,-0.19,0.17,0.76,-0.26,-103.2,-74.1,124.0,-1.7,1.88,0.01,0.0,0.8210359310042405,1.2404031602668546,0.18012449916267803,0.35,0,10,0.0
9.26415600099972,620,30.72,97.8,5.0,2.4,-1.61,0.7,-0.55,0.21,0.72,-0.29,-103.8,-61.5,129.0,-1.69,1.51,0.13,0.0,0.804114419718985,1.8397282408007984,0.19310509023897493,0.35,0,10,0.0
9.272249198998907,621,30.73,97.6,4.9,2.3,-1.78,1.04,-0.85,0.24,0.71,-0.29,-104.4,-50.1,113.0,-1.67,1.24,-0.13,0.0,0.8036168241145776,2.229910312097776,0.18973063212651475,0.35,0,10,0.0
9.284346186999755,622,30.74,97.5,4.8,2.2,-1.37,1.38,-1.0,0.24,0.72,-0.27,-104.8,-41.6,93.0,-1.66,1.02,0.0,0.0,0.8055432949258531,2.1866183937761066,0.18404807808893442,0.35,0,10,0.0
9.292500916999415,623,30.75,97.4,4.7,2.0,-0.6,1.61,-0.89,0.23,0.77,-0.24,-105.2,-33.4,87.0,-1.65,0.8,-0.03,0.0,0.8386894538504701,1.9349935400408964,0.14788388078103099,0.35,0,10,0.0
9.304344399999536,624,30.76,97.3,4.7,1.8,0.22,1.72,-0.58,0.2,0.81,-0.23,-105.5,-28.4,47.0,-1.65,0.74,0.07,0.0,0.8654478609367523,1.8284419597023034,0.1187029642208538,0.35,0,10,0.0
9.312567920998845,625,30.77,97.4,4.7,1.6,0.99,1.74,-0.37,0.16,0.85,-0.21,-105.7,-26.8,19.0,-1.64,0.72,0.16,0.0,0.8900561780022651,2.0358290694456644,0.09221275421223418,0.35,0,10,0.0
9.324691310999697,626,30.78,97.5,4.7,1.5,1.43,1.72,-0.3,0.11,0.89,-0.21,-106.0,-25.0,19.0,-1.63,0.67,0.07,0.0,0.9210320298447824,2.2568340656769603,0.06001216432232259,0.35,0,10,0.0
9.332599678999031,627,30.79,97.7,4.7,1.3,1.35,1.64,-0.29,0.06,0.92,-0.19,-106.2,-26.2,-9.0,-1.62,0.74,0.0,0.0,0.9413288479590967,2.1438749963558976,0.03892103928384816,0.35,0,10,0.0
9.344248403000165,628,30.8,97.8,4.6,1.2,0.94,1.39,-0.33,0.03,0.93,-0.17,-106.5,-28.6,-15.0,-1.62,0.81,0.0,0.0,0.9458858282054976,1.7101461925812074,0.033676777856698314,0.35,0,10,0.0
9.352626964000592,629,30.81,97.9,4.6,1.0,0.74,1.01,-0.33,0.01,0.97,-0.14,-106.8,-32.8,-41.0,-1.61,0.96,0.07,0.0,0.9801020355044672,1.2948358969382954,0.0005286408534258547,0.35,0,10,0.0
9.364383512000131,630,30.82,97.9,4.5,0.9,0.55,0.52,-0.22,-0.02,0.98,-0.1,-107.2,-39.4,-60.0,-1.6,1.15,-0.16,0.0,0.985291834940288,0.7882258559575422,0.005604071483461759,0.35,0,10,0.0
9.372557284999857,631,30.83,98.0,4.5,0.9,0.51,-0.22,-0.13,-0.05,0.98,-0.1,-107.7,-45.2,-62.0,-1.58,1.31,-0.01,0.0,0.9863569333664157,0.5704384278780664,0.006535786511397634,0.35,0,10,0.0
9.384245248998923,632,30.84,98.1,4.5,1.0,0.5,-0.89,-0.08,-0.04,0.98,-0.21,-108.1,-50.0,-45.0,-1.57,1.39,0.42,0.0,1.0030453628824572,1.0239628899525608,0.022759731706890274,0.35,0,10,0.0
9.39257407200057,633,30.85,98.1,4.5,1.1,0.3,-1.16,-0.16,0.01,0.96,-0.32,-108.7,-52.0,-17.0,-1.56,1.41,0.04,0.0,1.0119782606360672,1.208801058900926,0.031058776871290328,0.35,0,10,0.0
9.404348505000598,634,30.86,98.1,4.4,1.2,0.09,-1.17,-0.37,0.1,0.94,-0.4,-109.2,-50.0,9.0,-1.54,1.34,-0.06,0.0,1.026450193628507,1.2304064369142418,0.04462009566645564,0.35,0,10,0.0
9.412549376998868,635,30.87,98.1,4.3,1.3,0.15,-0.96,-0.6,0.22,0.96,-0.46,-109.7,-48.1,18.0,-1.53,1.27,-0.07,0.0,1.0870142593360954,1.1419719786404567,0.10308047814656307,0.35,0,10,0.0
9.424245718999373,636,30.88,98.2,4.3,1.4,0.62,-0.3,-0.6,0.29,1.04,-0.47,-110.1,-44.3,31.0,-1.52,1.15,-0.13,0.0,1.1775398082442903,0.913454979733539,0.18973390651366273,0.35,0,10,0.0
9.432637789999717,637,30.89,98.3,4.2,1.4,1.0,0.12,-0.4,0.28,1.09,-0.4,-110.5,-40.8,33.0,-1.51,1.07,-0.17,0.0,1.194361754243663,1.0836973747315253,0.20242473546277484,0.35,0,10,0.0
9.444233291998898,638,30.9,98.4,4.2,1.3,1.31,0.44,0.05,0.26,1.15,-0.39,-110.9,-39.8,11.0,-1.5,1.08,-0.03,0.0,1.2418534535121284,1.3828231991111517,0.24491810603661535,0.35,0,10,0.0
9.452673035999396,639,30.91,98.5,4.3,1.3,1.55,0.76,0.65,0.21,1.12,-0.42,-111.3,-38.0,31.0,-1.49,0.96,0.08,0.0,1.214454610102823,1.8446137807140008,0.21316887737476375,0.35,0,10,0.0
9.464224273000582,640,30.92,98.7,4.4,1.2,1.92,1.04,0.96,0.15,1.05,-0.42,-111.7,-31.7,54.0,-1.48,0.77,0.0,0.0,1.1407892005098925,2.3852882425400916,0.13671339842619656,0.35,0,10,0.0
9.472594443999697,641,30.93,98.9,4.5,1.1,1.95,1.24,0.89,0.13,1.05,-0.39,-111.9,-24.9,64.0,-1.47,0.57,-0.26,0.0,1.1276080879454529,2.476327926588076,0.1210616401445217,0.35,0,10,0.0
9.48430588699921,642,30.94,99.1,4.6,1.0,1.46,1.51,0.71,0.13,1.14,-0.31,-112.1,-14.6,99.0,-1.47,0.24,-0.16,0.0,1.1885285019720815,2.2171603460282254,0.17834241308772736,0.35,0,10,0.0
9.492518027000187,643,30.95,99.2,4.7,0.8,1.44,1.89,0.62,0.13,1.33,-0.19,-112.2,-2.8,111.0,-1.47,-0.06,0.0,0.0,1.3497777594848717,2.455626193051377,0.33279983718850725,0.35,0,10,0.0
9.50425158699909,644,30.96,99.3,4.8,0.6,2.03,2.04,1.07,0.12,1.6,-0.01,-112.1,4.7,64.0,-1.47,-0.14,0.0,0.0,1.6045248517863477,3.070407139126666,0.5757959909001837,0.35,0,11,0.0
9.512630769999305,645,30.97,99.6,5.0,0.5,2.54,1.83,2.34,0.02,1.81,0.04,-112.1,4.0,8.0,-1.47,-0.08,-0.16,0.0,1.8105524018928587,3.9084651719057186,0.7661870701865607,0.35,0,11,0.0
9.524162200999854,646,30.98,99.8,5.3,0.3,1.77,1.72,3.39,-0.11,1.78,0.0,-112.1,5.2,35.0,-1.47,-0.24,-0.24,0.0,1.7833956375409243,4.193256491081842,0.7242496997179337,0.35,0,11,0.0
9.53255031899971,647,30.99,99.8,5.7,0.2,-0.23,1.39,3.71,-0.07,1.58,0.04,-111.9,14.7,88.0,-1.48,-0.54,-0.15,0.0,1.5820556248122253,3.968513575635089,0.5124514932494499,0.35,0,11,0.0
9.544260845999816,648,31.0,99.7,6.1,0.2,-2.4,1.16,3.67,0.06,1.24,0.03,-111.8,23.0,135.0,-1.48,-0.96,-0.06,0.0,1.241813190459821,4.535912256646947,0.16876487771910487,0.35,0,11,0.0
9.552405336999072,649,31.01,99.4,6.4,0.1,-3.06,1.56,2.95,0.2,0.92,0.0,-111.3,46.8,202.0,-1.5,-1.54,0.06,0.0,0.9414881836751856,4.52765943948968,0.12892892648421994,0.35,0,11,0.0
9.5641809560002,650,31.02,99.1,6.7,0.0,-2.41,2.33,2.07,0.31,0.74,0.0,-110.7,67.5,201.0,-1.52,-2.09,-0.06,0.0,0.8023091673413685,3.9397842580527174,0.26274578396167625,0.35,0,11,0.0
9.572616605999428,651,31.03,98.9,6.9,-0.2,-0.96,3.11,1.23,0.41,0.7,0.06,-109.9,90.0,225.0,-1.54,-2.74,-0.16,0.0,0.8134494452638098,3.4794539801526327,0.2465733959184503,0.35,0,11,0.0
9.584883943000023,652,31.04,98.8,7.1,-0.5,0.5,3.7,0.74,0.45,0.75,0.09,-108.8,113.3,232.0,-1.57,-3.37,-1.59,0.0,0.8792610533851707,3.806258004917691,0.1771465520411476,0.35,0,11,0.0
