host_time_s,seq,device_time_s,roll,pitch,yaw,gyro_x,gyro_y,gyro_z,accel_x,accel_y,accel_z,belt_length,belt_velocity,belt_acceleration,motor_pos,motor_vel,motor_iq_meas,motor_iq_set,acc_mag,gyro_mag,gyro_corrected,gyro_side_score,gyro_side_separation,dynamic_refractory_s,step_period_s,gait_cycle_s,cadence_spm,gait_speed_ratio,assist_pulse_s,acc_residual,threshold,gyro_threshold,belt_threshold,belt_ok,belt_ready,calibrated,imu_side,imu_heel_strike,heel_strike,hs_count,left_hs_count,right_hs_count,torque_cmd_nm
0.007914511999842944,1,13.64,95.4,8.1,26.5,-0.06,-0.04,0.03,0.14,0.98,-0.1,-129.2,0.0,3.0,-1.0,-0.02,0.26,0.0,0.9949874371066199,0.07810249675906654,0.0,0.0,2.0,0.45,0.6,1.2,100.0,1.0,0.18,0.0,0.2,1.0,-160.0,0,1,0,calibrating,0,0,0,0,0,0.0
0.016644528001052095,2,13.65,95.4,8.1,26.5,-0.03,-0.05,0.01,0.13,0.97,-0.09,-129.2,0.0,0.0,-1.0,0.0,-0.13,0.0,0.9828021163998376,0.05916079783099616,0.0,0.0,2.0,0.45,0.6,1.2,100.0,1.0,0.18,0.011941614292646618,0.2,1.0,-160.0,0,1,0,calibrating,0,0,0,0,0,0.0
0.024531065000701346,3,13.66,95.4,8.1,26.5,-0.01,-0.07,0.01,0.13,0.97,-0.09,-129.2,0.0,0.0,-1.0,0.0,-0.05,0.0,0.9828021163998376,0.07141428428542851,0.0,0.0,2.0,0.45,0.6,1.2,100.0,1.0,0.18,0.011702782006793644,0.2,1.0,-160.0,0,1,0,calibrating,0,0,0,0,0,0.0
0.03652581599999394,4,13.67,95.4,8.1,26.6,0.01,-0.1,0.01,0.13,0.97,-0.09,-129.2,0.0,1.0,-1.0,0.0,0.18,0.0,0.9828021163998376,0.10099504938362078,0.0,0.0,2.0,0.45,0.6,1.2,100.0,1.0,0.18,0.011468726366657744,0.2,1.0,-160.0,0,1,0,calibrating,0,0,0,0,0,0.0
0.044089124001402524,5,13.68,95.5,8.1,26.6,0.05,-0.13,0.03,0.13,0.98,-0.09,-129.2,0.1,4.0,-1.0,-0.02,-0.21,0.0,0.9926731586982696,0.14247806848775008,0.0,0.0,2.0,0.45,0.6,1.2,100.0,1.0,0.18,0.0015657303868612527,0.2,1.0,-160.0,0,1,0,calibrating,0,0,0,0,0,0.0
0.05248348700115457,6,13.69,95.5,8.1,26.6,0.06,-0.14,0.04,0.14,0.98,-0.09,-129.2,-0.2,-1.0,-1.0,0.0,0.02,0.0,0.9940321926376429,0.15748015748023622,0.0,0.0,2.0,0.45,0.6,1.2,100.0,1.0,0.18,0.0002025625185382296,0.2,1.0,-160.0,0,1,0,calibrating,0,0,0,0,0,0.0
0.06328905299960752,7,13.7,95.5,8.1,26.6,0.06,-0.14,0.06,0.14,0.98,-0.09,-129.2,0.2,0.0,-1.0,0.0,-0.05,0.0,0.9940321926376429,0.163707055437449,0.0,0.0,2.0,0.45,0.6,1.2,100.0,1.0,0.18,0.00019851126816750053,0.2,1.0,-160.0,0,1,0,calibrating,0,0,0,0,0,0.0
0.07248781199996301,8,13.71,95.5,8.1,26.6,0.01,-0.12,0.08,0.14,0.98,-0.09,-129.2,0.1,0.0,-1.0,0.0,-0.21,0.0,0.9940321926376429,0.1445683229480096,0.0,0.0,2.0,0.45,0.6,1.2,100.0,1.0,0.18,0.00019454104280414164,0.2,1.0,-160.0,0,1,0,calibrating,0,0,0,0,0,0.0
0.08353671199984092,9,13.72,95.5,8.1,26.6,0.0,-0.11,0.09,0.14,0.98,-0.09,-129.2,0.0,0.0,-1.0,0.0,0.02,0.0,0.9940321926376429,0.14212670403551894,0.0,0.0,2.0,0.45,0.6,1.2,100.0,1.0,0.18,0.00019065022194808545,0.2,1.0,-160.0,0,1,0,calibrating,0,0,0,0,0,0.0
0.09242531299969414,10,13.73,95.5,8.1,26.6,0.0,-0.1,0.09,0.14,0.98,-0.09,-129.2,0.2,0.0,-1.0,0.0,0.02,0.0,0.9940321926376429,0.13453624047073712,0.0,0.0,2.0,0.45,0.6,1.2,100.0,1.0,0.18,0.00018683721750911708,0.2,1.0,-160.0,0,1,0,calibrating,0,0,0,0,0,0.0
0.10356037200108403,11,13.74,95.5,8.1,26.6,0.0,-0.11,0.09,0.14,0.98,-0.09,-129.2,0.0,4.0,-1.0,-0.01,0.1,0.0,0.9940321926376429,0.14212670403551894,0.0,0.0,2.0,0.45,0.6,1.2,100.0,1.0,0.18,0.00018310047315894806,0.2,1.0,-160.0,0,1,0,calibrating,0,0,0,0,0,0.0
0.11232858500079601,12,13.75,95.5,8.1,26.7,-0.01,-0.11,0.09,0.14,0.98,-0.09,-129.2,0.2,-8.0,-1.0,0.02,0.03,0.0,0.9940321926376429,0.14247806848775008,0.0,0.0,2.0,0.45,0.6,1.2,100.0,1.0,0.18,0.0001794384636957247,0.2,1.0,-160.0,0,1,0,calibrating,0,0,0,0,0,0.0
0.12350294000134454,13,13.76,95.5,8.2,26.7,-0.01,-0.13,0.08,0.14,0.97,-0.09,-129.2,0.0,1.0,-1.0,0.0,0.27,0.0,0.9841747812253675,0.15297058540778355,0.0,0.0,2.0,0.45,0.6,1.2,100.0,1.0,0.18,0.009836112878451653,0.2,1.0,-160.0,0,1,0,calibrating,0,0,0,0,0,0.0
0.13231618300051196,14,13.77,95.5,8.2,26.7,-0.03,-0.13,0.08,0.14,0.97,-0.09,-129.2,-0.3,0.0,-1.0,0.0,-0.12,0.0,0.9841747812253675,0.15556349186104046,0.0,0.0,2.0,0.45,0.6,1.2,100.0,1.0,0.18,0.009639390620882593,0.2,1.0,-160.0,0,1,0,calibrating,0,0,0,0,0,0.0
0.14356817900079477,15,13.78,95.5,8.2,26.7,0.0,-0.14,0.07,0.14,0.97,-0.09,-129.2,0.2,1.0,-1.0,0.0,0.03,0.0,0.9841747812253675,0.15652475842498528,0.0,0.0,2.0,0.45,0.6,1.2,100.0,1.0,0.18,0.009446602808464988,0.2,1.0,-160.0,0,1,0,calibrating,0,0,0,0,0,0.0
0.15243034800005262,16,13.79,95.5,8.2,26.7,0.0,-0.16,0.07,0.14,0.97,-0.09,-129.2,0.0,0.0,-1.0,0.0,0.35,0.0,0.9841747812253675,0.1746424919657298,0.0,0.0,2.0,0.45,0.6,1.2,100.0,1.0,0.18,0.009257670752295666,0.2,1.0,-160.0,0,1,0,calibrating,0,0,0,0,0,0.0
0.1632856289998017,17,13.8,95.5,8.2,26.7,0.01,-0.16,0.07,0.14,0.97,-0.09,-129.2,0.1,-2.0,-1.0,0.0,-0.12,0.0,0.9841747812253675,0.17492855684535902,0.0,0.0,2.0,0.45,0.6,1.2,100.0,1.0,0.18,0.009072517337249786,0.2,1.0,-160.0,0,1,0,calibrating,0,0,0,0,0,0.0
0.17231757900117373,18,13.81,95.5,8.2,26.8,0.04,-0.19,0.07,0.14,0.97,-0.09,-129.2,-0.2,-2.0,-1.0,0.0,-0.12,0.0,0.9841747812253675,0.20639767440550294,0.0,0.0,2.0,0.45,0.6,1.2,100.0,1.0,0.18,0.008891066990504792,0.2,1.0,-160.0,0,1,0,calibrating,0,0,0,0,0,0.0
0.1834773190003034,19,13.82,95.5,8.2,26.8,0.08,-0.19,0.06,0.14,0.97,-0.09,-129.2,0.2,2.0,-1.0,0.0,-0.04,0.0,0.9841747812253675,0.21470910553583888,0.0,0.0,2.0,0.45,0.6,1.2,100.0,1.0,0.18,0.008713245650694645,0.2,1.0,-160.0,0,1,0,calibrating,0,0,0,0,0,0.0
0.19228450300033728,20,13.83,95.5,8.2,26.8,0.09,-0.21,0.06,0.14,0.97,-0.09,-129.2,0.1,2.0,-1.0,0.0,0.27,0.0,0.9841747812253675,0.23622023622035432,0.0,0.0,2.0,0.45,0.6,1.2,100.0,1.0,0.18,0.00853898073768078,0.2,1.0,-160.0,0,1,0,calibrating,0,0,0,0,0,0.0
0.20338312800049607,21,13.84,95.5,8.2,26.8,0.11,-0.21,0.06,0.14,0.97,-0.1,-129.2,-0.1,-1.0,-1.0,0.0,-0.04,0.0,0.9851395840184273,0.24454038521274965,0.0,0.0,2.0,0.45,0.6,1.2,100.0,1.0,0.18,0.007422694385728623,0.2,1.0,-160.0,0,1,0,calibrating,0,0,0,0,0,0.0
0.21229961800054298,22,13.85,95.5,8.2,26.8,0.13,-0.2,0.05,0.14,0.98,-0.1,-129.2,0.0,0.0,-1.0,0.0,0.03,0.0,0.9949874371066199,0.24372115213907883,0.0,0.0,2.0,0.45,0.6,1.2,100.0,1.0,0.18,0.002376655528414706,0.2,1.0,-160.0,0,1,0,calibrating,0,0,0,0,0,0.0
0.22339951100002509,23,13.86,95.6,8.2,26.9,0.13,-0.18,0.05,0.14,0.98,-0.1,-129.2,0.0,4.0,-1.0,-0.01,-0.04,0.0,0.9949874371066199,0.22759613353482083,0.0,0.0,2.0,0.45,0.6,1.2,100.0,1.0,0.18,0.002329122417846441,0.2,1.0,-160.0,0,1,0,calibrating,0,0,0,0,0,0.0
0.23226243400131352,24,13.87,95.6,8.2,26.9,0.14,-0.17,0.05,0.14,0.98,-0.1,-129.2,-0.2,-3.0,-1.0,0.0,0.11,0.0,0.9949874371066199,0.22583179581272433,0.0,0.0,2.0,0.45,0.6,1.2,100.0,1.0,0.18,0.002282539969489461,0.2,1.0,-160.0,0,1,0,calibrating,0,0,0,0,0,0.0
0.24326051000025473,25,13.88,95.6,8.2,26.9,0.14,-0.15,0.05,0.14,0.98,-0.1,-129.2,0.2,-1.0,-1.0,0.0,-0.12,0.0,0.9949874371066199,0.21118712081942875,0.0,0.0,2.0,0.45,0.6,1.2,100.0,1.0,0.18,0.0022368891700996762,0.2,1.0,-160.0,0,1,0,calibrating,0,0,0,0,0,0.0
0.2523915889996715,26,13.89,95.6,8.2,26.9,0.13,-0.13,0.04,0.14,0.98,-0.09,-129.2,0.0,2.0,-1.0,0.0,-0.03,0.0,0.9940321926376429,0.1881488772222678,0.0,0.0,2.0,0.45,0.6,1.2,100.0,1.0,0.18,0.0012560118071002213,0.2,1.0,-160.0,0,1,0,calibrating,0,0,0,0,0,0.0
0.26335335000112536,27,13.9,95.6,8.2,26.9,0.12,-0.13,0.04,0.14,0.98,-0.1,-129.2,-0.2,-3.0,-1.0,0.01,0.2,0.0,0.9949874371066199,0.18138357147217055,0.0,0.0,2.0,0.45,0.6,1.2,100.0,1.0,0.18,0.0021670311505557205,0.2,1.0,-160.0,0,1,0,calibrating,0,0,0,0,0,0.0
0.2722890170007304,28,13.91,95.7,8.2,26.9,0.14,-0.13,0.03,0.14,0.97,-0.09,-129.2,0.1,2.0,-1.0,0.0,0.12,0.0,0.9841747812253675,0.19339079605813717,0.0,0.0,2.0,0.45,0.6,1.2,100.0,1.0,0.18,0.008472712236082702,0.2,1.0,-160.0,0,1,0,calibrating,0,0,0,0,0,0.0
0.2835262980006519,29,13.92,95.7,8.2,27.0,0.12,-0.11,0.03,0.14,0.97,-0.09,-129.2,0.0,0.0,-1.0,0.0,-0.11,0.0,0.9841747812253675,0.16552945357246848,0.0,0.0,2.0,0.45,0.6,1.2,100.0,1.0,0.18,0.008303257991361002,0.2,1.0,-160.0,0,1,0,calibrating,0,0,0,0,0,0.0
0.2921415860000707,30,13.93,95.7,8.2,27.0,0.14,-0.1,0.03,0.14,0.97,-0.09,-129.2,-0.2,0.0,-1.0,0.0,-0.11,0.0,0.9841747812253675,0.1746424919657298,0.0,0.0,2.0,0.45,0.6,1.2,100.0,1.0,0.18,0.008137192831533802,0.2,1.0,-160.0,0,1,0,calibrating,0,0,0,0,0,0.0
0.3034618790006789,31,13.94,95.7,8.2,27.0,0.13,-0.09,0.03,0.14,0.97,-0.09,-129.2,0.0,-6.0,-1.0,0.03,-0.19,0.0,0.9841747812253675,0.1609347693943108,0.0,0.0,2.0,0.45,0.6,1.2,100.0,1.0,0.18,0.00797444897490307,0.2,1.0,-160.0,0,1,0,calibrating,0,0,0,0,0,0.0
0.31230383799993433,32,13.95,95.7,8.3,27.0,0.12,-0.08,0.03,0.14,0.97,-0.1,-129.2,0.2,0.0,-1.0,0.0,0.29,0.0,0.9851395840184273,0.14730919862656236,0.0,0.0,2.0,0.45,0.6,1.2,100.0,1.0,0.18,0.006869453258206426,0.2,1.0,-160.0,0,1,0,calibrating,0,0,0,0,0,0.0
0.32340321500123537,33,13.96,95.7,8.3,27.0,0.13,-0.06,0.03,0.14,0.97,-0.09,-129.2,0.1,4.0,-1.0,0.0,-0.03,0.0,0.9841747812253675,0.14628738838327796,0.0,0.0,2.0,0.45,0.6,1.2,100.0,1.0,0.18,0.007677570930240907,0.2,1.0,-160.0,0,1,0,calibrating,0,0,0,0,0,0.0
0.33224128400070185,34,13.97,95.7,8.3,27.0,0.12,-0.04,0.02,0.14,0.98,-0.1,-129.2,-0.5,4.0,-1.0,-0.02,-0.03,0.0,0.9949874371066199,0.12806248474865697,0.0,0.0,2.0,0.45,0.6,1.2,100.0,1.0,0.18,0.0030723832519912175,0.2,1.0,-160.0,0,1,0,calibrating,0,0,0,0,0,0.0
0.34353109299991047,35,13.98,95.8,8.3,27.0,0.12,-0.03,0.02,0.14,0.98,-0.1,-129.2,0.0,-3.0,-1.0,0.0,-0.03,0.0,0.9949874371066199,0.12529964086141668,0.0,0.0,2.0,0.45,0.6,1.2,100.0,1.0,0.18,0.0030109355869514243,0.2,1.0,-160.0,0,1,0,calibrating,0,0,0,0,0,0.0
0.35228190700036066,36,13.99,95.8,8.3,27.0,0.11,-0.02,0.02,0.14,0.98,-0.1,-129.2,0.1,0.0,-1.0,0.0,-0.03,0.0,0.9949874371066199,0.11357816691600546,0.0,0.0,2.0,0.45,0.6,1.2,100.0,1.0,0.18,0.0029507168752124224,0.2,1.0,-160.0,0,1,0,calibrating,0,0,0,0,0,0.0
0.36352620999969076,37,14.0,95.8,8.3,27.0,0.09,0.0,0.02,0.14,0.98,-0.1,-129.2,0.1,1.0,-1.0,0.0,-0.1,0.0,0.9949874371066199,0.09219544457292887,0.0,0.0,2.0,0.45,0.6,1.2,100.0,1.0,0.18,0.0028917025377082073,0.2,1.0,-160.0,0,1,0,calibrating,0,0,0,0,0,0.0
0.3723120260001451,38,14.01,95.8,8.3,27.0,0.09,0.02,0.03,0.14,0.98,-0.1,-129.2,0.0,-7.0,-1.0,0.02,0.13,0.0,0.9949874371066199,0.09695359714832658,0.0,0.0,2.0,0.45,0.6,1.2,100.0,1.0,0.18,0.0028338684869539943,0.2,1.0,-160.0,0,1,0,calibrating,0,0,0,0,0,0.0
0.3833926590014016,39,14.02,95.8,8.3,27.0,0.07,0.03,0.03,0.14,0.98,-0.09,-129.2,0.0,0.0,-1.0,0.0,0.05,0.0,0.9940321926376429,0.0818535277187245,0.0,0.0,2.0,0.45,0.6,1.2,100.0,1.0,0.18,0.0018410515376174885,0.2,1.0,-160.0,0,1,0,calibrating,0,0,0,0,0,0.0
0.3921315180014062,40,14.03,95.8,8.3,27.0,0.04,0.05,0.04,0.14,0.98,-0.1,-129.2,0.0,-2.0,-1.0,0.01,-0.1,0.0,0.9949874371066199,0.0754983443527075,0.0,0.0,2.0,0.45,0.6,1.2,100.0,1.0,0.18,0.0027403700864625513,0.2,1.0,-160.0,0,1,0,calibrating,0,0,0,0,0,0.0
0.4035604290002084,41,14.04,95.8,8.3,27.0,0.03,0.05,0.05,0.14,0.98,-0.09,-129.2,0.0,6.0,-1.0,-0.01,-0.03,0.0,0.9940321926376429,0.07681145747868609,0.0,0.0,2.0,0.45,0.6,1.2,100.0,1.0,0.18,0.0017494231051358167,0.2,1.0,-160.0,0,1,0,calibrating,0,0,0,0,0,0.0
0.412329826000132,42,14.05,95.8,8.3,27.0,0.02,0.05,0.04,0.14,0.98,-0.09,-129.2,-0.1,0.0,-1.0,0.0,0.05,0.0,0.9940321926376429,0.0670820393249937,0.0,0.0,2.0,0.45,0.6,1.2,100.0,1.0,0.18,0.0017144346430331137,0.2,1.0,-160.0,0,1,0,calibrating,0,0,0,0,0,0.0
0.4233774590011308,43,14.06,95.8,8.3,27.0,0.02,0.04,0.05,0.14,0.98,-0.09,-129.2,0.0,0.0,-1.0,0.0,-0.11,0.0,0.9940321926376429,0.0670820393249937,0.0,0.0,2.0,0.45,0.6,1.2,100.0,1.0,0.18,0.001680145950172407,0.2,1.0,-160.0,0,1,0,calibrating,0,0,0,0,0,0.0
0.43231385800027056,44,14.07,95.8,8.3,27.0,0.0,0.03,0.05,0.14,0.98,-0.09,-129.2,0.0,0.0,-1.0,0.0,-0.03,0.0,0.9940321926376429,0.05830951894845301,0.0,0.0,2.0,0.45,0.6,1.2,100.0,1.0,0.18,0.0016465430311689566,0.2,1.0,-160.0,0,1,0,calibrating,0,0,0,0,0,0.0
0.44359132800127554,45,14.08,95.8,8.3,27.0,0.0,0.02,0.05,0.14,0.98,-0.09,-129.2,0.1,2.0,-1.0,0.0,-0.02,0.0,0.9940321926376429,0.05385164807134505,0.0,0.0,2.0,0.45,0.6,1.2,100.0,1.0,0.18,0.0016136121705455642,0.2,1.0,-160.0,0,1,0,calibrating,0,0,0,0,0,0.0
0.45230257700131915,46,14.09,95.8,8.3,27.0,0.0,0.02,0.05,0.14,0.98,-0.09,-129.2,-0.1,-1.0,-1.0,0.0,0.29,0.0,0.9940321926376429,0.05385164807134505,0.0,0.0,2.0,0.45,0.6,1.2,100.0,1.0,0.18,0.0015813399271346062,0.2,1.0,-160.0,0,1,0,calibrating,0,0,0,0,0,0.0
0.46353629500117677,47,14.1,95.8,8.3,27.0,-0.01,0.02,0.05,0.14,0.98,-0.09,-129.2,0.0,0.0,-1.0,0.0,-0.02,0.0,0.9940321926376429,0.05477225575051661,0.0,0.0,2.0,0.45,0.6,1.2,100.0,1.0,0.18,0.0015497131285918675,0.2,1.0,-160.0,0,1,0,calibrating,0,0,0,0,0,0.0
0.4722979819998727,48,14.11,95.8,8.3,27.0,-0.01,0.0,0.05,0.14,0.98,-0.09,-129.2,0.0,1.0,-1.0,0.0,0.13,0.0,0.9940321926376429,0.050990195135927854,0.0,0.0,2.0,0.45,0.6,1.2,100.0,1.0,0.18,0.0015187188660200635,0.2,1.0,-160.0,0,1,0,calibrating,0,0,0,0,0,0.0
0.48344421300134854,49,14.12,95.8,8.3,27.0,-0.03,0.01,0.05,0.14,0.98,-0.09,-129.2,-0.1,4.0,-1.0,-0.02,0.29,0.0,0.9940321926376429,0.05916079783099616,0.0,0.0,2.0,0.45,0.6,1.2,100.0,1.0,0.18,0.0014883444886996111,0.2,1.0,-160.0,0,1,0,calibrating,0,0,0,0,0,0.0
0.49229265800022404,50,14.13,95.8,8.3,27.0,-0.01,0.0,0.04,0.14,0.98,-0.1,-129.2,0.0,-3.0,-1.0,0.0,-0.02,0.0,0.9949874371066199,0.04123105625617661,0.0,0.0,2.0,0.45,0.6,1.2,100.0,1.0,0.18,0.0023947171785230204,0.2,1.0,-160.0,0,1,0,calibrating,0,0,0,0,0,0.0
0.5035582529999374,51,14.14,95.8,8.3,27.0,0.0,0.0,0.0,0.14,0.98,-0.1,-129.2,0.0,0.0,-1.0,0.0,0.05,0.0,0.9949874371066199,0.0,0.0,0.0,2.0,0.45,0.6,1.2,100.0,1.0,0.18,0.0023468228349525777,0.2,1.0,-160.0,0,1,0,calibrating,0,0,0,0,0,0.0
0.5123027070003445,52,14.15,95.8,8.3,27.0,-0.05,0.02,0.0,0.15,0.98,-0.1,-129.2,0.0,0.0,-1.0,0.0,-0.03,0.0,0.9964436762808021,0.05385164807134505,0.0,0.0,2.0,0.45,0.6,1.2,100.0,1.0,0.18,0.00372700076895216,0.2,1.0,-160.0,0,1,0,calibrating,0,0,0,0,0,0.0
0.5233642450002662,53,14.16,95.8,8.3,27.0,-0.09,0.03,-0.01,0.14,0.98,-0.1,-129.2,0.0,-3.0,-1.0,0.0,-0.02,0.0,0.9949874371066199,0.09539392014169455,0.0,0.0,2.0,0.45,0.6,1.2,100.0,1.0,0.18,0.002225346362874525,0.2,1.0,-160.0,0,1,0,calibrating,0,0,0,0,0,0.0
0.5324235019998014,54,14.17,95.8,8.3,27.0,-0.12,0.05,-0.02,0.14,0.98,-0.1,-129.2,0.0,0.0,-1.0,0.0,0.04,0.0,0.9949874371066199,0.13152946437965904,0.0,0.0,2.0,0.45,0.6,1.2,100.0,1.0,0.18,0.002180839435617088,0.2,1.0,-160.0,0,1,0,calibrating,0,0,0,0,0,0.0
0.5433087380006327,55,14.18,95.8,8.3,27.0,-0.11,0.06,-0.02,0.14,0.97,-0.1,-129.2,0.0,0.0,-1.0,0.0,-0.11,0.0,0.9851395840184273,0.1268857754044952,0.0,0.0,2.0,0.45,0.6,1.2,100.0,1.0,0.18,0.007513673379524022,0.2,1.0,-160.0,0,1,0,calibrating,0,0,0,0,0,0.0
0.5523010169999907,56,14.19,95.8,8.3,26.9,-0.09,0.09,-0.02,0.14,0.97,-0.1,-129.2,0.0,0.0,-1.0,0.0,-0.03,0.0,0.9851395840184273,0.12884098726725127,0.0,0.0,2.0,0.45,0.6,1.2,100.0,1.0,0.18,0.007363399911933577,0.2,1.0,-160.0,0,1,0,calibrating,0,0,0,0,0,0.0
0.5632728580003459,57,14.2,95.7,8.3,26.9,-0.08,0.11,-0.01,0.14,0.97,-0.1,-129.2,0.0,-1.0,-1.0,0.0,0.05,0.0,0.9851395840184273,0.13638181696985854,0.0,0.0,2.0,0.45,0.6,1.2,100.0,1.0,0.18,0.0072161319136948565,0.2,1.0,-160.0,0,1,0,calibrating,0,0,0,0,0,0.0
0.5720423290003964,58,14.21,95.7,8.3,26.9,-0.08,0.11,0.0,0.14,0.97,-0.1,-129.2,0.0,-2.0,-1.0,0.0,-0.19,0.0,0.9851395840184273,0.13601470508735444,0.0,0.0,2.0,0.45,0.6,1.2,100.0,1.0,0.18,0.007071809275420948,0.2,1.0,-160.0,0,1,0,calibrating,0,0,0,0,0,0.0
0.5840412420002394,59,14.22,95.7,8.3,26.9,-0.06,0.11,0.0,0.14,0.97,-0.1,-129.2,0.0,0.0,-1.0,0.0,-0.03,0.0,0.9851395840184273,0.12529964086141668,0.0,0.0,2.0,0.45,0.6,1.2,100.0,1.0,0.18,0.0069303730899125116,0.2,1.0,-160.0,0,1,0,calibrating,0,0,0,0,0,0.0
0.5965064740012167,60,14.23,95.7,8.3,26.9,-0.09,0.11,-0.02,0.14,0.98,-0.1,-129.2,0.0,0.0,-1.0,0.0,0.12,0.0,0.9949874371066199,0.14352700094407325,0.0,0.0,2.0,0.45,0.6,1.2,100.0,1.0,0.18,0.0028591303983144245,0.2,1.0,-160.0,0,1,0,calibrating,0,0,0,0,0,0.0
0.604478156001278,61,14.24,95.7,8.3,26.9,-0.12,0.13,-0.02,0.14,0.97,-0.1,-129.2,0.2,1.0,-1.0,0.0,-0.11,0.0,0.9851395840184273,0.17804493814764855,0.0,0.0,2.0,0.45,0.6,1.2,100.0,1.0,0.18,0.006848948236080621,0.2,1.0,-160.0,0,1,0,calibrating,0,0,0,0,0,0.0
0.6162339450002037,62,14.25,95.7,8.3,26.9,-0.12,0.15,-0.02,0.15,0.97,-0.1,-129.2,0.1,3.0,-1.0,-0.01,0.04,0.0,0.986610358753647,0.19313207915827965,0.0,0.0,2.0,0.45,0.6,1.2,100.0,1.0,0.18,0.005270610030843725,0.2,1.0,-160.0,0,1,0,calibrating,0,0,0,0,0,0.0
0.6244185360010306,63,14.26,95.7,8.3,26.9,-0.11,0.19,-0.03,0.15,0.97,-0.1,-129.2,0.1,2.0,-1.0,-0.01,0.12,0.0,0.986610358753647,0.22158519806160337,0.0,0.0,2.0,0.45,0.6,1.2,100.0,1.0,0.18,0.005165197830226842,0.2,1.0,-160.0,0,1,0,calibrating,0,0,0,0,0,0.0
0.6364160089997313,64,14.27,95.7,8.4,26.8,-0.07,0.22,-0.04,0.15,0.97,-0.1,-129.2,0.0,-2.0,-1.0,0.0,-0.03,0.0,0.986610358753647,0.23430749027719963,0.0,0.0,2.0,0.45,0.6,1.2,100.0,1.0,0.18,0.005061893873622325,0.2,1.0,-160.0,0,1,0,calibrating,0,0,0,0,0,0.0
0.6442581900009827,65,14.28,95.7,8.4,26.8,-0.06,0.26,-0.05,0.15,0.98,-0.1,-129.2,0.1,3.0,-1.0,-0.01,0.04,0.0,0.9964436762808021,0.2714774392099646,0.0,0.0,2.0,0.45,0.6,1.2,100.0,1.0,0.18,0.004675995180462134,0.2,1.0,-160.0,0,1,0,calibrating,0,0,0,0,0,0.0
0.6523037599999952,66,14.29,95.7,8.4,26.8,-0.08,0.31,-0.06,0.15,0.98,-0.1,-129.2,0.1,-1.0,-1.0,0.0,0.05,0.0,0.9964436762808021,0.3257299494980466,0.0,0.0,2.0,0.45,0.6,1.2,100.0,1.0,0.18,0.004582475276852849,0.2,1.0,-160.0,0,1,0,calibrating,0,0,0,0,0,0.0
0.663608902001215,67,14.3,95.7,8.4,26.7,-0.08,0.36,-0.07,0.15,0.98,-0.1,-129.2,0.1,0.0,-1.0,0.0,-0.03,0.0,0.9964436762808021,0.37536648758246915,0.0,0.0,2.0,0.45,0.6,1.2,100.0,1.0,0.18,0.004490825771315765,0.2,1.0,-160.0,0,1,0,calibrating,0,0,0,0,0,0.0
0.6723124910004117,68,14.31,95.7,8.4,26.7,-0.09,0.41,-0.09,0.14,0.97,-0.1,-129.2,0.3,5.0,-1.0,-0.02,0.05,0.0,0.9851395840184273,0.42930175867331355,0.0,0.0,2.0,0.45,0.6,1.2,100.0,1.0,0.18,0.006677001161237928,0.2,1.0,-160.0,0,1,0,calibrating,0,0,0,0,0,0.0
0.6834426690002147,69,14.32,95.6,8.4,26.7,-0.09,0.42,-0.1,0.14,0.97,-0.1,-129.2,0.0,0.0,-1.0,-0.01,0.05,0.0,0.9851395840184273,0.4410215414239989,0.0,0.0,2.0,0.45,0.6,1.2,100.0,1.0,0.18,0.006543461138013185,0.2,1.0,-160.0,0,1,0,calibrating,0,0,0,0,0,0.0
0.6923073600009957,70,14.33,95.6,8.3,26.6,-0.08,0.43,-0.09,0.14,0.97,-0.1,-129.2,0.1,-2.0,-1.0,0.0,-0.03,0.0,0.9851395840184273,0.4465422712353221,0.0,0.0,2.0,0.45,0.6,1.2,100.0,1.0,0.18,0.0064125919152528965,0.2,1.0,-160.0,0,1,0,calibrating,0,0,0,0,0,0.0
0.7034244110000145,71,14.34,95.6,8.3,26.6,-0.07,0.44,-0.08,0.14,0.97,-0.1,-129.2,0.4,4.0,-1.01,-0.03,0.04,0.0,0.9851395840184273,0.452658811910251,0.0,0.0,2.0,0.45,0.6,1.2,100.0,1.0,0.18,0.006284340076947892,0.2,1.0,-160.0,0,1,0,calibrating,0,0,0,0,0,0.0
0.7121352630001638,72,14.35,95.6,8.3,26.5,-0.06,0.47,-0.05,0.15,0.98,-0.1,-129.2,0.0,-3.0,-1.01,0.0,0.05,0.0,0.9964436762808021,0.4764451699828638,0.0,0.0,2.0,0.45,0.6,1.2,100.0,1.0,0.18,0.004919357141718428,0.2,1.0,-160.0,0,1,0,calibrating,0,0,0,0,0,0.0
0.7235244340008649,73,14.36,95.6,8.3,26.5,-0.03,0.48,0.0,0.15,0.99,-0.1,-129.2,0.3,4.0,-1.01,-0.02,-0.03,0.0,1.0062802790475425,0.4809365862564419,0.0,0.0,2.0,0.45,0.6,1.2,100.0,1.0,0.18,0.014460840710289635,0.2,1.0,-160.0,0,1,0,calibrating,0,0,0,0,0,0.0
0.7324135670005489,74,14.37,95.6,8.4,26.4,-0.04,0.52,0.04,0.15,0.98,-0.11,-129.2,0.0,0.0,-1.01,0.0,-0.03,0.0,0.9974968671630001,0.5230678732248808,0.0,0.0,2.0,0.45,0.6,1.2,100.0,1.0,0.18,0.005563880249232378,0.2,1.0,-160.0,0,1,0,calibrating,0,0,0,0,0,0.0
0.7433653780008171,75,14.38,95.6,8.4,26.4,-0.03,0.57,0.03,0.15,0.98,-0.11,-129.2,0.3,-1.0,-1.01,0.0,0.22,0.0,0.9974968671630001,0.5715767664977295,0.0,0.0,2.0,0.45,0.6,1.2,100.0,1.0,0.18,0.005452602644247739,0.2,1.0,-160.0,0,1,0,calibrating,0,0,0,0,0,0.0
0.7523881160013843,76,14.39,95.6,8.4,26.3,-0.07,0.64,0.0,0.15,0.97,-0.11,-129.2,0.0,1.0,-1.01,0.0,-0.18,0.0,0.987674035297071,0.6438167441127949,0.0,0.0,2.0,0.45,0.6,1.2,100.0,1.0,0.18,0.0042828246372477174,0.2,1.0,-160.0,0,1,0,calibrating,0,0,0,0,0,0.0
0.7634501499996986,77,14.4,95.6,8.4,26.2,-0.09,0.73,-0.04,0.15,0.97,-0.11,-129.2,0.0,0.0,-1.01,0.0,0.3,0.0,0.987674035297071,0.7366138744281158,0.0,0.0,2.0,0.45,0.6,1.2,100.0,1.0,0.18,0.004197168144502772,0.2,1.0,-160.0,0,1,0,calibrating,0,0,0,0,0,0.0
0.7722826280005393,78,14.41,95.6,8.4,26.2,-0.03,0.76,0.0,0.15,0.97,-0.1,-129.2,0.1,2.0,-1.01,-0.02,-0.03,0.0,0.986610358753647,0.7605918747922568,0.0,0.0,2.0,0.45,0.6,1.2,100.0,1.0,0.18,0.005155627794168227,0.2,1.0,-160.0,0,1,0,calibrating,0,0,0,0,0,0.0
0.7835243110002921,79,14.42,95.6,8.4,26.1,0.04,0.78,0.03,0.14,0.97,-0.1,-129.2,0.0,4.0,-1.01,-0.02,-0.03,0.0,0.9851395840184273,0.7816009211867653,0.0,0.0,2.0,0.45,0.6,1.2,100.0,1.0,0.18,0.006493874478800232,0.2,1.0,-160.0,0,1,0,calibrating,0,0,0,0,0,0.0
0.7923384010009613,80,14.43,95.6,8.4,26.0,0.09,0.8,0.03,0.14,0.97,-0.1,-129.2,0.0,-1.0,-1.01,0.0,0.21,0.0,0.9851395840184273,0.8056053624449133,0.0,0.0,2.0,0.45,0.6,1.2,100.0,1.0,0.18,0.0063639969892241854,0.2,1.0,-160.0,0,1,0,calibrating,0,0,0,0,0,0.0
0.8034557820010377,81,14.44,95.6,8.4,25.9,0.08,0.83,0.01,0.13,0.97,-0.1,-129.2,0.0,-1.0,-1.01,0.01,-0.03,0.0,0.9837682653958706,0.8339064695755753,0.0,0.0,2.0,0.45,0.6,1.2,100.0,1.0,0.18,0.007580609299545293,0.2,1.0,-160.0,0,1,0,calibrating,0,0,0,0,0,0.0
0.8123014120010339,82,14.45,95.6,8.4,25.8,0.04,0.84,-0.02,0.13,0.98,-0.09,-129.2,0.0,-2.0,-1.01,0.0,-0.02,0.0,0.9926731586982696,0.8411896337925235,0.0,0.0,2.0,0.45,0.6,1.2,100.0,1.0,0.18,0.0012977983227966394,0.2,1.0,-160.0,0,1,0,calibrating,0,0,0,0,0,0.0
0.8235731439999654,83,14.46,95.5,8.4,25.8,0.0,0.81,-0.03,0.13,0.98,-0.09,-129.2,0.0,0.0,-1.01,0.0,0.22,0.0,0.9926731586982696,0.8105553651663778,0.0,0.0,2.0,0.45,0.6,1.2,100.0,1.0,0.18,0.0012718423563407022,0.2,1.0,-160.0,0,1,0,calibrating,0,0,0,0,0,0.0
0.8324272870013374,84,14.47,95.5,8.4,25.7,0.0,0.79,-0.03,0.12,0.98,-0.09,-129.2,0.1,3.0,-1.01,-0.01,0.29,0.0,0.9914131328563284,0.7905694150420949,0.0,0.0,2.0,0.45,0.6,1.2,100.0,1.0,0.18,1.1580184111514846e-05,0.2,1.0,-160.0,0,1,0,calibrating,0,0,0,0,0,0.0
0.8436306960011279,85,14.48,95.5,8.4,25.6,0.0,0.74,-0.04,0.12,0.98,-0.09,-129.2,-0.2,0.0,-1.01,0.0,0.22,0.0,0.9914131328563284,0.7410802925459562,0.0,0.0,2.0,0.45,0.6,1.2,100.0,1.0,0.18,1.1348580429282329e-05,0.2,1.0,-160.0,0,1,0,calibrating,0,0,0,0,0,0.0
0.8524039029998676,86,14.49,95.5,8.4,25.5,0.03,0.66,-0.04,0.11,0.97,-0.09,-129.2,0.2,-4.0,-1.01,0.0,0.22,0.0,0.9803570778037969,0.6618912297349165,0.0,0.0,2.0,0.45,0.6,1.2,100.0,1.0,0.18,0.010823812342660166,0.2,1.0,-160.0,0,1,0,calibrating,0,0,0,0,0,0.0
0.8634934140009136,87,14.5,95.5,8.4,25.5,0.03,0.61,-0.07,0.11,0.97,-0.09,-129.2,0.1,6.0,-1.01,-0.02,0.13,0.0,0.9803570778037969,0.6147357155721473,0.0,0.0,2.0,0.45,0.6,1.2,100.0,1.0,0.18,0.010607336095806996,0.2,1.0,-160.0,0,1,0,calibrating,0,0,0,0,0,0.0
0.8721736900006363,88,14.51,95.5,8.4,25.4,0.04,0.56,-0.11,0.11,0.97,-0.09,-129.2,-0.1,0.0,-1.01,0.0,-0.18,0.0,0.9803570778037969,0.5721013896155122,0.0,0.0,2.0,0.45,0.6,1.2,100.0,1.0,0.18,0.010395189373890834,0.2,1.0,-160.0,0,1,0,calibrating,0,0,0,0,0,0.0
0.8835477869997703,89,14.52,95.5,8.3,25.4,0.06,0.52,-0.16,0.11,0.97,-0.09,-129.2,0.0,2.0,-1.01,-0.01,-0.11,0.0,0.9803570778037969,0.5473572873361604,0.0,0.0,2.0,0.45,0.6,1.2,100.0,1.0,0.18,0.01018728558641302,0.2,1.0,-160.0,0,1,0,calibrating,0,0,0,0,0,0.0
0.8923207509997155,90,14.53,95.5,8.3,25.3,0.05,0.49,-0.19,0.12,0.98,-0.09,-129.2,0.0,-3.0,-1.01,0.0,0.14,0.0,0.9914131328563284,0.5279204485526204,0.0,0.0,2.0,0.45,0.6,1.2,100.0,1.0,0.18,0.0008513940767961303,0.2,1.0,-160.0,0,1,0,calibrating,0,0,0,0,0,0.0
0.9033961620007176,91,14.54,95.5,8.3,25.3,0.0,0.48,-0.22,0.12,0.98,-0.09,-129.2,0.0,0.0,-1.01,0.0,0.14,0.0,0.9914131328563284,0.5280151512977634,0.0,0.0,2.0,0.45,0.6,1.2,100.0,1.0,0.18,0.0008343661952602277,0.2,1.0,-160.0,0,1,0,calibrating,0,0,0,0,0,0.0
0.9122908110002754,92,14.55,95.5,8.3,25.2,-0.07,0.47,-0.23,0.12,0.98,-0.1,-129.2,-0.2,1.0,-1.01,0.0,-0.18,0.0,0.9923708984044222,0.5279204485526204,0.0,0.0,2.0,0.45,0.6,1.2,100.0,1.0,0.18,0.0017562891084869081,0.2,1.0,-160.0,0,1,0,calibrating,0,0,0,0,0,0.0
0.9235805810003512,93,14.56,95.5,8.2,25.2,-0.15,0.47,-0.24,0.13,0.98,-0.1,-129.2,-0.2,-2.0,-1.01,0.01,0.22,0.0,0.9936297097007516,0.5486346689738081,0.0,0.0,2.0,0.45,0.6,1.2,100.0,1.0,0.18,0.002954798396719971,0.2,1.0,-160.0,0,1,0,calibrating,0,0,0,0,0,0.0
0.9322935020009027,94,14.57,95.4,8.2,25.1,-0.21,0.47,-0.27,0.12,0.98,-0.09,-129.2,-0.1,3.0,-1.01,0.0,0.3,0.0,0.9914131328563284,0.5812916651733447,0.0,0.0,2.0,0.45,0.6,1.2,100.0,1.0,0.18,0.0007234571212507701,0.2,1.0,-160.0,0,1,0,calibrating,0,0,0,0,0,0.0
0.9433751390006364,95,14.58,95.4,8.2,25.0,-0.27,0.47,-0.29,0.13,0.98,-0.09,-129.2,-0.7,-5.0,-1.0,0.02,0.06,0.0,0.9926731586982696,0.6147357155721473,0.0,0.0,2.0,0.45,0.6,1.2,100.0,1.0,0.18,0.0019438133039281213,0.2,1.0,-160.0,0,1,0,calibrating,0,0,0,0,0,0.0
0.9524272700000438,96,14.59,95.4,8.1,25.0,-0.29,0.5,-0.32,0.13,0.98,-0.09,-129.2,-0.3,3.0,-1.0,0.0,0.14,0.0,0.9926731586982696,0.6606814663663572,0.0,0.0,2.0,0.45,0.6,1.2,100.0,1.0,0.18,0.0019049370378495523,0.2,1.0,-160.0,0,1,0,calibrating,0,0,0,0,0,0.0
0.9636202689998754,97,14.6,95.3,8.1,24.9,-0.29,0.54,-0.32,0.14,0.98,-0.08,-129.2,-0.5,-2.0,-1.0,0.02,-0.02,0.0,0.9931767214348108,0.6914477565225011,0.0,0.0,2.0,0.45,0.6,1.2,100.0,1.0,0.18,0.002360329778902992,0.2,1.0,-160.0,0,1,0,calibrating,0,0,0,0,0,0.0
0.9721387280005729,98,14.61,95.3,8.1,24.9,-0.26,0.58,-0.33,0.14,0.97,-0.09,-129.2,-0.1,7.0,-1.0,-0.01,0.14,0.0,0.9841747812253675,0.7161703707917552,0.0,0.0,2.0,0.45,0.6,1.2,100.0,1.0,0.18,0.006508778221929523,0.2,1.0,-160.0,0,1,0,calibrating,0,0,0,0,0,0.0
0.9835729599999468,99,14.62,95.3,8.1,24.8,-0.19,0.65,-0.33,0.15,0.97,-0.09,-129.2,-0.1,2.0,-1.0,0.0,-0.02,0.0,0.9856469956328178,0.7533259586659683,0.0,0.0,2.0,0.45,0.6,1.2,100.0,1.0,0.18,0.004935832538189633,0.2,1.0,-160.0,0,1,0,calibrating,0,0,0,0,0,0.0
0.9923001530005422,100,14.63,95.2,8.1,24.7,-0.11,0.73,-0.34,0.16,0.97,-0.1,-129.2,-0.1,-1.0,-1.0,0.0,0.22,0.0,0.9881801455200362,0.812773031048644,0.0,0.0,2.0,0.45,0.6,1.2,100.0,1.0,0.18,0.002354628997951802,0.2,1.0,-160.0,0,1,0,calibrating,0,0,0,0,0,0.0
1.0035679080010595,101,14.64,95.2,8.0,24.7,-0.04,0.87,-0.37,0.16,0.98,-0.1,-129.2,-0.3,-2.0,-1.0,0.02,-0.01,0.0,0.9979979959899719,0.946255779374689,0.0,0.0,2.0,0.45,0.6,1.2,100.0,1.0,0.18,0.007313957042544228,0.2,1.0,-160.0,0,1,0,calibrating,0,0,0,0,0,0.0
1.0122947159998148,102,14.65,95.2,8.0,24.6,-0.07,1.02,-0.39,0.18,0.99,-0.1,-129.2,-0.6,-7.0,-1.0,0.03,0.13,0.0,1.0111874208078342,1.0942577392917996,0.0,0.0,2.0,0.45,0.6,1.2,100.0,1.0,0.18,0.02009331422319849,0.2,1.0,-160.0,0,1,0,calibrating,0,0,0,0,0,0.0
1.02351222300058,103,14.66,95.2,8.0,24.4,-0.1,1.17,-0.4,0.17,0.99,-0.11,-129.2,-0.1,3.0,-1.0,0.0,-0.01,0.0,1.0104949282406122,1.2405240827972668,0.0,0.0,2.0,0.45,0.6,1.2,100.0,1.0,0.18,0.019012805222856977,0.2,1.0,-160.0,0,1,0,calibrating,0,0,0,0,0,0.0
1.0322757230005664,104,14.67,95.2,8.0,24.3,-0.11,1.34,-0.39,0.17,0.99,-0.1,-129.2,-0.1,1.0,-1.0,0.0,0.21,0.0,1.0094552986635912,1.3999285696063213,0.0,0.0,2.0,0.45,0.6,1.2,100.0,1.0,0.18,0.01761371213291929,0.2,1.0,-160.0,0,1,0,calibrating,0,0,0,0,0,0.0
1.0433014709997224,105,14.68,95.2,8.0,24.2,-0.11,1.5,-0.37,0.17,0.99,-0.1,-129.2,-0.2,1.0,-1.0,0.0,-0.01,0.0,1.0094552986635912,1.5488705562441298,0.0,0.0,2.0,0.45,0.6,1.2,100.0,1.0,0.18,0.01726143789026091,0.2,1.0,-160.0,0,1,0,calibrating,0,0,0,0,0,0.0
1.0524119159999827,106,14.69,95.1,8.0,24.0,-0.09,1.64,-0.35,0.17,0.99,-0.11,-129.2,0.0,-3.0,-1.0,0.01,0.22,0.0,1.0104949282406122,1.6793451104522858,0.0,0.0,2.0,0.45,0.6,1.2,100.0,1.0,0.18,0.017935046117936282,0.2,1.0,-160.0,0,1,0,calibrating,0,0,0,0,0,0.0
1.0634302790003858,107,14.7,95.1,8.0,23.8,-0.11,1.8,-0.34,0.18,0.99,-0.11,-129.2,-0.3,0.0,-1.0,0.0,-0.09,0.0,1.0122252713699653,1.8351294232287816,0.0,0.0,2.0,0.45,0.6,1.2,100.0,1.0,0.18,0.019272081462343604,0.2,1.0,-160.0,0,1,0,calibrating,0,0,0,0,0,0.0
1.0722768790001282,108,14.71,95.1,8.0,23.6,-0.16,1.99,-0.34,0.18,0.99,-0.12,-129.2,0.0,0.0,-1.0,0.0,-0.09,0.0,1.0133607452432722,2.0251666598085207,0.0,0.0,2.0,0.45,0.6,1.2,100.0,1.0,0.18,0.019999404228937534,0.2,1.0,-160.0,0,1,0,calibrating,0,0,0,0,0,0.0
1.0835148510013823,109,14.72,95.1,8.0,23.4,-0.26,2.21,-0.37,0.18,0.99,-0.12,-129.2,0.0,-1.0,-1.0,0.0,0.13,0.0,1.0133607452432722,2.255792543652895,0.0,0.0,2.0,0.45,0.6,1.2,100.0,1.0,0.18,0.019599416144358783,0.2,1.0,-160.0,0,1,0,calibrating,0,0,0,0,0,0.0
1.092297901001075,110,14.73,95.0,8.0,23.2,-0.33,2.43,-0.4,0.18,0.99,-0.12,-129.2,0.0,0.0,-1.0,0.0,0.14,0.0,1.0133607452432722,2.4847132631352054,0.0,0.0,2.0,0.45,0.6,1.2,100.0,1.0,0.18,0.019207427821471557,0.2,1.0,-160.0,0,1,0,calibrating,0,0,0,0,0,0.0
1.1044974500000535,111,14.74,95.0,8.0,22.9,-0.32,2.65,-0.4,0.17,0.99,-0.11,-129.2,0.1,-1.0,-1.0,0.0,-0.01,0.0,1.0104949282406122,2.6990553903171386,0.0,0.0,2.0,0.45,0.6,1.2,100.0,1.0,0.18,0.016014778602435276,0.2,1.0,-160.0,0,1,0,calibrating,0,0,0,0,0,0.0
1.112317945000541,112,14.75,94.9,8.0,22.7,-0.28,2.85,-0.37,0.16,0.98,-0.11,-129.2,-0.1,0.0,-1.0,0.0,-0.09,0.0,0.9990495483208027,2.887524891667603,0.0,0.0,2.0,0.45,0.6,1.2,100.0,1.0,0.18,0.004478010708973357,0.2,1.0,-160.0,0,1,0,calibrating,0,0,0,0,0,0.0
1.1233840700006112,113,14.76,94.9,8.0,22.4,-0.2,3.03,-0.33,0.15,0.98,-0.1,-129.2,0.0,-3.0,-1.0,0.01,-0.01,0.0,0.9964436762808021,3.0544721311545797,0.0,0.0,2.0,0.45,0.6,1.2,100.0,1.0,0.18,0.0018346958955932635,0.2,1.0,-160.0,0,1,0,calibrating,0,0,0,0,0,0.0
1.1322561430006317,114,14.77,94.8,8.0,22.0,-0.13,3.17,-0.28,0.15,0.98,-0.1,-129.2,0.1,0.0,-1.0,0.0,-0.17,0.0,0.9964436762808021,3.1849960753508,0.0,0.0,2.0,0.45,0.6,1.2,100.0,1.0,0.18,0.0017980019776814293,0.2,1.0,-160.0,0,1,0,calibrating,0,0,0,0,0,0.0
1.143238779000967,115,14.78,94.8,8.0,21.7,-0.09,3.29,-0.24,0.14,0.98,-0.1,-129.2,0.0,4.0,-1.0,0.0,-0.01,0.0,0.9949874371066199,3.2999696968305634,0.0,0.0,2.0,0.45,0.6,1.2,100.0,1.0,0.18,0.00033492754742914244,0.2,1.0,-160.0,0,1,0,calibrating,0,0,0,0,0,0.0
1.1524240930011729,116,14.79,94.7,8.0,21.4,-0.1,3.41,-0.23,0.13,0.98,-0.09,-129.2,0.0,-1.0,-1.0,0.0,-0.09,0.0,0.9926731586982696,3.4192104351735946,0.0,0.0,2.0,0.45,0.6,1.2,100.0,1.0,0.18,0.0019397638437027576,0.2,1.0,-160.0,0,1,0,calibrating,0,0,0,0,0,0.0
1.1634704690004583,117,14.8,94.7,8.1,21.0,-0.09,3.47,-0.24,0.12,0.97,-0.08,-129.2,0.0,0.0,-1.0,0.0,0.06,0.0,0.9806630410084801,3.479453980152633,0.0,0.0,2.0,0.45,0.6,1.2,100.0,1.0,0.18,0.01367088390282234,0.2,1.0,-160.0,0,1,0,calibrating,0,0,0,0,0,0.0
1.172288177000155,118,14.81,94.6,8.0,20.7,-0.04,3.48,-0.24,0.12,0.97,-0.07,-129.2,0.3,3.0,-1.0,-0.01,-0.01,0.0,0.9798979538707079,3.4884953776664234,0.0,0.0,2.0,0.45,0.6,1.2,100.0,1.0,0.18,0.014147251619782697,0.2,1.0,-160.0,0,1,0,calibrating,0,0,0,0,0,0.0
1.183559236000292,119,14.82,94.6,8.0,20.3,0.0,3.45,-0.24,0.11,0.97,-0.06,-129.2,-0.1,7.0,-1.0,-0.03,0.06,0.0,0.9780593029055038,3.458337751001195,0.0,0.0,2.0,0.45,0.6,1.2,100.0,1.0,0.18,0.015666184533287053,0.2,1.0,-160.0,0,1,0,calibrating,0,0,0,0,0,0.0
1.192190321000453,120,14.83,94.5,8.0,20.0,0.07,3.42,-0.21,0.1,0.97,-0.06,-129.2,0.4,0.0,-1.0,0.0,-0.17,0.0,0.976985158536198,3.4271562555564925,0.0,0.0,2.0,0.45,0.6,1.2,100.0,1.0,0.18,0.016405522324541066,0.2,1.0,-160.0,0,1,0,calibrating,0,0,0,0,0,0.0
1.2034817639996618,121,14.84,94.5,8.0,19.6,0.15,3.35,-0.18,0.09,0.97,-0.06,-129.2,0.0,-1.0,-1.0,0.0,-0.09,0.0,0.976012295004525,3.3581840330750192,0.0,0.0,2.0,0.45,0.6,1.2,100.0,1.0,0.18,0.017030818139089687,0.2,1.0,-160.0,0,1,0,calibrating,0,0,0,0,0,0.0
1.2122865960009221,122,14.85,94.4,8.0,19.3,0.21,3.24,-0.14,0.09,0.97,-0.06,-129.2,0.2,1.0,-1.0,-0.01,0.06,0.0,0.976012295004525,3.249815379371573,0.0,0.0,2.0,0.45,0.6,1.2,100.0,1.0,0.18,0.016690201776307867,0.2,1.0,-160.0,0,1,0,calibrating,0,0,0,0,0,0.0
1.2234525000003487,123,14.86,94.4,8.0,19.0,0.25,3.13,-0.14,0.09,0.98,-0.06,-129.2,0.0,-4.0,-1.0,0.01,-0.01,0.0,0.9859513172565875,3.1430876538843138,0.0,0.0,2.0,0.45,0.6,1.2,100.0,1.0,0.18,0.006616155933760526,0.2,1.0,-160.0,0,1,0,calibrating,0,0,0,0,0,0.0
1.2324276279996411,124,14.87,94.4,8.0,18.7,0.2,3.03,-0.12,0.09,0.99,-0.06,-129.2,0.2,1.0,-1.0,0.0,-0.09,0.0,0.9958915603618699,3.0389636391375268,0.0,0.0,2.0,0.45,0.6,1.2,100.0,1.0,0.18,0.0032576054280913924,0.2,1.0,-160.0,0,1,0,calibrating,0,0,0,0,0,0.0
1.243366769000204,125,14.88,94.3,8.0,18.4,0.13,2.92,-0.11,0.08,0.99,-0.06,-129.2,0.0,-1.0,-1.0,0.0,-0.01,0.0,0.9950376877284598,2.924961538208665,0.0,0.0,2.0,0.45,0.6,1.2,100.0,1.0,0.18,0.0023556581387876863,0.2,1.0,-160.0,0,1,0,calibrating,0,0,0,0,0,0.0
1.2524225800007116,126,14.89,94.3,7.9,18.1,0.09,2.8,-0.1,0.08,1.0,-0.06,-129.2,0.1,8.0,-1.0,-0.04,0.22,0.0,1.004987562112089,2.803230279516829,0.0,0.0,2.0,0.45,0.6,1.2,100.0,1.0,0.18,0.012059421871968512,0.2,1.0,-160.0,0,1,0,calibrating,0,0,0,0,0,0.0
1.2632878470012656,127,14.9,94.3,7.9,17.8,0.06,2.66,-0.08,0.08,0.99,-0.05,-129.2,0.5,-2.0,-1.0,0.0,-0.01,0.0,0.9944847912361455,2.6618790355686714,0.0,0.0,2.0,0.45,0.6,1.2,100.0,1.0,0.18,0.0015255179761045623,0.2,1.0,-160.0,0,1,0,calibrating,0,0,0,0,0,0.0
1.2723267119999946,128,14.91,94.2,7.9,17.5,0.05,2.53,-0.07,0.08,0.99,-0.05,-129.2,0.2,2.0,-1.0,-0.01,0.14,0.0,0.9944847912361455,2.5314620281568514,0.0,0.0,2.0,0.45,0.6,1.2,100.0,1.0,0.18,0.0014950076165825,0.2,1.0,-160.0,0,1,0,calibrating,0,0,0,0,0,0.0
1.2833806420003384,129,14.92,94.2,7.9,17.3,0.01,2.39,-0.05,0.08,0.99,-0.05,-129.2,0.1,-1.0,-1.0,0.0,0.06,0.0,0.9944847912361455,2.390543871172416,0.0,0.0,2.0,0.45,0.6,1.2,100.0,1.0,0.18,0.001465107464250881,0.2,1.0,-160.0,0,1,0,calibrating,0,0,0,0,0,0.0
1.2921369659998163,130,14.93,94.1,7.8,17.0,0.01,2.24,-0.02,0.07,0.98,-0.04,-129.2,0.4,-1.0,-1.0,0.0,0.22,0.0,0.9833107342035884,2.240111604362604,0.0,0.0,2.0,0.45,0.6,1.2,100.0,1.0,0.18,0.009514770576940279,0.2,1.0,-160.0,0,1,0,calibrating,0,0,0,0,0,0.0
1.3035765490003541,131,14.94,94.1,7.8,16.8,0.04,2.05,0.0,0.07,0.97,-0.04,-129.2,0.1,4.0,-1.01,-0.02,-0.02,0.0,0.973344748791506,2.0503902067655315,0.0,0.0,2.0,0.45,0.6,1.2,100.0,1.0,0.18,0.01909114086924213,0.2,1.0,-160.0,0,1,0,calibrating,0,0,0,0,0,0.0
1.3122925750012655,132,14.95,94.0,7.8,16.6,0.09,1.86,0.04,0.07,0.98,-0.04,-129.2,0.7,3.0,-1.01,-0.02,0.13,0.0,0.9833107342035884,1.8626057016985642,0.0,0.0,2.0,0.45,0.6,1.2,100.0,1.0,0.18,0.008942652348016611,0.2,1.0,-160.0,0,1,0,calibrating,0,0,0,0,0,0.0
1.3234234250012378,133,14.96,94.0,7.8,16.4,0.12,1.67,0.07,0.07,0.98,-0.05,-129.2,0.4,-1.0,-1.01,0.0,-0.1,0.0,0.9837682653958705,1.675768480429203,0.0,0.0,2.0,0.45,0.6,1.2,100.0,1.0,0.18,0.008315418732619761,0.2,1.0,-160.0,0,1,0,calibrating,0,0,0,0,0,0.0
1.3324303059998783,134,14.97,94.0,7.8,16.3,0.12,1.51,0.09,0.08,0.98,-0.05,-129.2,0.0,-3.0,-1.01,0.0,-0.1,0.0,0.9845303448853163,1.5174320413119002,0.0,0.0,2.0,0.45,0.6,1.2,100.0,1.0,0.18,0.007402272458310488,0.2,1.0,-160.0,0,1,0,calibrating,0,0,0,0,0,0.0
1.3436600840013853,135,14.98,94.0,7.8,16.1,0.1,1.36,0.08,0.08,0.98,-0.05,-129.2,0.0,0.0,-1.01,0.0,-0.1,0.0,0.9845303448853163,1.366016105322335,0.0,0.0,2.0,0.45,0.6,1.2,100.0,1.0,0.18,0.007254227009144243,0.2,1.0,-160.0,0,1,0,calibrating,0,0,0,0,0,0.0
1.3522710070010362,136,14.99,94.0,7.8,16.0,0.04,1.21,0.08,0.08,0.99,-0.05,-129.2,0.1,0.0,-1.01,0.0,-0.01,0.0,0.9944847912361455,1.2133012816279392,0.0,0.0,2.0,0.45,0.6,1.2,100.0,1.0,0.18,0.002646214954851289,0.2,1.0,-160.0,0,1,0,calibrating,0,0,0,0,0,0.0
1.363275183000951,137,15.0,94.0,7.7,15.9,0.0,1.07,0.07,0.09,0.99,-0.06,-129.2,0.3,5.0,-1.01,-0.03,0.38,0.0,0.9958915603618699,1.0722872749408154,0.0,0.0,2.0,0.45,0.6,1.2,100.0,1.0,0.18,0.0039719243989640995,0.2,1.0,-160.0,0,1,0,calibrating,0,0,0,0,0,0.0
1.372307814001033,138,15.01,93.9,7.7,15.8,0.0,0.94,0.09,0.09,0.99,-0.06,-129.2,0.1,-2.0,-1.01,0.0,0.14,0.0,0.9958915603618699,0.9442986815621421,0.0,0.0,2.0,0.45,0.6,1.2,100.0,1.0,0.18,0.0038924859109847887,0.2,1.0,-160.0,0,1,0,calibrating,0,0,0,0,0,0.0
1.3834560369996325,139,15.02,93.9,7.7,15.7,-0.03,0.81,0.1,0.09,0.99,-0.06,-129.2,0.0,-4.0,-1.01,0.0,0.14,0.0,0.9958915603618699,0.8167006795638168,0.0,0.0,2.0,0.45,0.6,1.2,100.0,1.0,0.18,0.0038146361927651196,0.2,1.0,-160.0,0,1,0,calibrating,0,0,0,0,0,0.0
1.3964015569999901,140,15.03,93.9,7.7,15.6,-0.04,0.72,0.12,0.09,0.98,-0.06,-129.2,0.0,2.0,-1.01,0.0,-0.03,0.0,0.9859513172565875,0.7310266752998826,0.0,0.0,2.0,0.45,0.6,1.2,100.0,1.0,0.18,0.0060030947742669705,0.2,1.0,-160.0,0,1,0,calibrating,0,0,0,0,0,0.0
1.4044789830004447,141,15.04,93.9,7.7,15.6,-0.03,0.62,0.13,0.09,0.98,-0.06,-129.2,0.1,0.0,-1.01,0.0,-0.18,0.0,0.9859513172565875,0.6341923998283171,0.0,0.0,2.0,0.45,0.6,1.2,100.0,1.0,0.18,0.005883032878781669,0.2,1.0,-160.0,0,1,0,calibrating,0,0,0,0,0,0.0
1.4122817059997033,142,15.05,93.9,7.7,15.5,-0.02,0.54,0.15,0.09,0.98,-0.07,-129.1,0.3,2.0,-1.01,-0.01,-0.02,0.0,0.986610358753647,0.5608029957123981,0.0,0.0,2.0,0.45,0.6,1.2,100.0,1.0,0.18,0.005119511554087741,0.2,1.0,-160.0,0,1,0,calibrating,0,0,0,0,0,0.0
1.4235064420008712,143,15.06,93.9,7.7,15.5,-0.01,0.47,0.17,0.09,0.98,-0.06,-129.1,0.0,-2.0,-1.01,0.0,-0.03,0.0,0.9859513172565875,0.4998999899979995,0.0,0.0,2.0,0.45,0.6,1.2,100.0,1.0,0.18,0.005662981990124383,0.2,1.0,-160.0,0,1,0,calibrating,0,0,0,0,0,0.0
1.4324329430000944,144,15.07,93.9,7.7,15.4,0.02,0.41,0.17,0.1,0.97,-0.06,-129.1,0.1,4.0,-1.01,0.0,-0.18,0.0,0.976985158536198,0.44429719783046123,0.0,0.0,2.0,0.45,0.6,1.2,100.0,1.0,0.18,0.014336557896303614,0.2,1.0,-160.0,0,1,0,calibrating,0,0,0,0,0,0.0
1.4433603270008462,145,15.08,93.9,7.7,15.4,0.08,0.33,0.17,0.1,0.97,-0.06,-129.1,0.3,4.0,-1.01,0.0,-0.02,0.0,0.976985158536198,0.37973675092095055,0.0,0.0,2.0,0.45,0.6,1.2,100.0,1.0,0.18,0.014049826738377513,0.2,1.0,-160.0,0,1,0,calibrating,0,0,0,0,0,0.0
1.4522872580000694,146,15.09,93.9,7.7,15.3,0.13,0.27,0.17,0.11,0.97,-0.06,-129.1,0.4,-1.0,-1.01,0.0,-0.26,0.0,0.9780593029055038,0.3445286635390443,0.0,0.0,2.0,0.45,0.6,1.2,100.0,1.0,0.18,0.012716168721690235,0.2,1.0,-160.0,0,1,0,calibrating,0,0,0,0,0,0.0
1.4634587150012521,147,15.1,93.9,7.7,15.3,0.16,0.21,0.18,0.11,0.97,-0.06,-129.1,0.0,1.0,-1.01,0.0,0.06,0.0,0.9780593029055038,0.3195309061734091,0.0,0.0,2.0,0.45,0.6,1.2,100.0,1.0,0.18,0.012461845347256473,0.2,1.0,-160.0,0,1,0,calibrating,0,0,0,0,0,0.0
1.4722938890008663,148,15.11,93.9,7.7,15.3,0.19,0.16,0.2,0.11,0.98,-0.06,-129.1,-0.1,-1.0,-1.01,0.0,-0.01,0.0,0.9879777325425912,0.3189043743820395,0.0,0.0,2.0,0.45,0.6,1.2,100.0,1.0,0.18,0.0024925473959656053,0.2,1.0,-160.0,0,1,0,calibrating,0,0,0,0,0,0.0
1.483439585999804,149,15.12,93.9,7.8,15.3,0.18,0.12,0.21,0.12,0.98,-0.07,-129.1,0.0,3.0,-1.01,-0.01,0.15,0.0,0.9897979591815695,0.30149626863362666,0.0,0.0,2.0,0.45,0.6,1.2,100.0,1.0,0.18,0.0006588743418475262,0.2,1.0,-160.0,0,1,0,calibrating,0,0,0,0,0,0.0
1.4922109550007008,150,15.13,93.9,7.8,15.3,0.16,0.11,0.21,0.12,0.98,-0.07,-129.1,0.0,-4.0,-1.01,0.01,-0.11,0.0,0.9897979591815695,0.2860069929215018,0.0,0.0,2.0,0.45,0.6,1.2,100.0,1.0,0.18,0.0006456968550105913,0.2,1.0,-160.0,0,1,0,calibrating,0,0,0,0,0,0.0
1.5033111419998022,151,15.14,94.0,7.8,15.3,0.13,0.13,0.22,0.12,0.98,-0.07,-129.1,0.0,0.0,-1.01,0.0,-0.18,0.0,0.9897979591815695,0.286705423736629,0.0,0.0,2.0,0.45,0.6,1.2,100.0,1.0,0.18,0.0006327829179103572,0.2,1.0,-160.0,0,1,0,calibrating,0,0,0,0,0,0.0
1.5122854790006386,152,15.15,94.0,7.8,15.3,0.12,0.14,0.22,0.13,0.98,-0.07,-129.1,0.1,3.0,-1.01,0.0,0.14,0.0,0.9910600385445879,0.2870540018881465,0.0,0.0,2.0,0.45,0.6,1.2,100.0,1.0,0.18,0.0006167105162058206,0.2,1.0,-160.0,0,1,0,calibrating,0,0,0,0,0,0.0
1.5235192920008558,153,15.16,94.0,7.8,15.3,0.18,0.14,0.24,0.13,0.97,-0.07,-129.1,0.0,0.0,-1.01,0.0,0.3,0.0,0.981172767661231,0.33105890714493696,0.0,0.0,2.0,0.45,0.6,1.2,100.0,1.0,0.18,0.00908514915980807,0.2,1.0,-160.0,0,1,0,calibrating,0,0,0,0,0,0.0
1.5324122060010268,154,15.17,94.0,7.9,15.2,0.24,0.15,0.23,0.13,0.97,-0.06,-129.1,0.0,-2.0,-1.01,0.0,0.14,0.0,0.9805100713404223,0.3646916505762094,0.0,0.0,2.0,0.45,0.6,1.2,100.0,1.0,0.18,0.009552888571004448,0.2,1.0,-160.0,0,1,0,calibrating,0,0,0,0,0,0.0
1.5433812829996896,155,15.18,94.0,7.9,15.2,0.27,0.15,0.22,0.14,0.97,-0.06,-129.1,0.3,0.0,-1.01,0.02,0.07,0.0,0.9818859404228171,0.37920970451717084,0.0,0.0,2.0,0.45,0.6,1.2,100.0,1.0,0.18,0.008013479098837428,0.2,1.0,-160.0,0,1,0,calibrating,0,0,0,0,0,0.0
1.552454853999734,156,15.19,94.1,7.9,15.2,0.27,0.14,0.2,0.13,0.97,-0.06,-129.1,-0.1,4.0,-1.01,0.0,0.16,0.0,0.9805100713404223,0.3640054944640259,0.0,0.0,2.0,0.45,0.6,1.2,100.0,1.0,0.18,0.009201561217607623,0.2,1.0,-160.0,0,1,0,calibrating,0,0,0,0,0,0.0
1.563444134000747,157,15.2,94.1,7.9,15.2,0.27,0.1,0.17,0.13,0.97,-0.05,-129.1,0.0,1.0,-1.01,0.0,0.23,0.0,0.9799489782636644,0.3343650699460098,0.0,0.0,2.0,0.45,0.6,1.2,100.0,1.0,0.18,0.009567401208478099,0.2,1.0,-160.0,0,1,0,calibrating,0,0,0,0,0,0.0
1.5722972490002576,158,15.21,94.1,7.9,15.2,0.27,0.06,0.15,0.13,0.97,-0.05,-129.1,-0.1,-1.0,-1.01,0.0,0.06,0.0,0.9799489782636644,0.31464265445104544,0.0,0.0,2.0,0.45,0.6,1.2,100.0,1.0,0.18,0.009376053184308564,0.2,1.0,-160.0,0,1,0,calibrating,0,0,0,0,0,0.0
1.583487846000935,159,15.22,94.1,8.0,15.2,0.25,0.02,0.14,0.13,0.97,-0.06,-129.1,0.0,-3.0,-1.01,0.02,-0.01,0.0,0.9805100713404223,0.2872281323269014,0.0,0.0,2.0,0.45,0.6,1.2,100.0,1.0,0.18,0.008638660905399775,0.2,1.0,-160.0,0,1,0,calibrating,0,0,0,0,0,0.0
1.5923271480005496,160,15.23,94.1,8.0,15.2,0.2,0.0,0.11,0.13,0.97,-0.06,-129.1,0.3,4.0,-1.01,0.0,0.15,0.0,0.9805100713404223,0.22825424421026658,0.0,0.0,2.0,0.45,0.6,1.2,100.0,1.0,0.18,0.008465887687291729,0.2,1.0,-160.0,0,1,0,calibrating,0,0,0,0,0,0.0
1.6034335250005824,161,15.24,94.1,8.0,15.2,0.17,-0.03,0.09,0.13,0.97,-0.06,-129.1,-0.1,0.0,-1.01,0.0,0.22,0.0,0.9805100713404223,0.19467922333931786,0.0,0.0,2.0,0.45,0.6,1.2,100.0,1.0,0.18,0.008296569933545883,0.2,1.0,-160.0,0,1,0,calibrating,0,0,0,0,0,0.0
1.6121195720006654,162,15.25,94.2,8.0,15.2,0.18,-0.03,0.06,0.13,0.97,-0.06,-129.1,-0.3,-1.0,-1.01,-0.01,0.07,0.0,0.9805100713404223,0.19209372712298545,0.0,0.0,2.0,0.45,0.6,1.2,100.0,1.0,0.18,0.008130638534874945,0.2,1.0,-160.0,0,1,0,calibrating,0,0,0,0,0,0.0
1.6235573960002512,163,15.26,94.2,8.0,15.2,0.21,-0.02,0.05,0.14,0.97,-0.06,-129.1,0.3,4.0,-1.01,0.0,-0.18,0.0,0.9818859404228171,0.21679483388678797,0.0,0.0,2.0,0.45,0.6,1.2,100.0,1.0,0.18,0.006619674063430447,0.2,1.0,-160.0,0,1,0,calibrating,0,0,0,0,0,0.0
1.6324475860001257,164,15.27,94.2,8.0,15.2,0.27,0.0,0.05,0.14,0.96,-0.06,-129.1,-0.2,-2.0,-1.01,0.0,-0.02,0.0,0.9720082304178294,0.2745906043549196,0.0,0.0,2.0,0.45,0.6,1.2,100.0,1.0,0.18,0.01616743638704976,0.2,1.0,-160.0,0,1,0,calibrating,0,0,0,0,0,0.0
1.6432598210012657,165,15.28,94.2,8.0,15.2,0.36,0.02,0.05,0.15,0.97,-0.06,-129.1,0.4,-1.0,-1.01,0.03,0.23,0.0,0.9833615815151617,0.3640054944640259,0.0,0.0,2.0,0.45,0.6,1.2,100.0,1.0,0.18,0.0047178035839230414,0.2,1.0,-160.0,0,1,0,calibrating,0,0,0,0,0,0.0
1.652394444001402,166,15.29,94.3,8.0,15.2,0.41,0.07,0.06,0.16,0.96,-0.07,-129.1,-0.5,6.0,-1.01,-0.03,0.23,0.0,0.9757561170702441,0.4202380277890138,0.0,0.0,2.0,0.45,0.6,1.2,100.0,1.0,0.18,0.01207680266826383,0.2,1.0,-160.0,0,1,0,calibrating,0,0,0,0,0,0.0
1.6635942550001346,167,15.3,94.3,8.1,15.2,0.45,0.14,0.06,0.16,0.96,-0.07,-129.1,-0.1,-2.0,-1.01,0.0,0.15,0.0,0.9757561170702441,0.47507894080878815,0.0,0.0,2.0,0.45,0.6,1.2,100.0,1.0,0.18,0.011835266614898532,0.2,1.0,-160.0,0,1,0,calibrating,0,0,0,0,0,0.0
1.6723021930010873,168,15.31,94.3,8.1,15.2,0.5,0.2,0.05,0.16,0.95,-0.07,-129.1,0.1,-4.0,-1.01,0.01,-0.01,0.0,0.96591925128346,0.5408326913195984,0.0,0.0,2.0,0.45,0.6,1.2,100.0,1.0,0.18,0.021238689753648954,0.2,1.0,-160.0,0,1,0,calibrating,0,0,0,0,0,0.0
1.6834321480000654,169,15.32,94.4,8.1,15.1,0.55,0.26,0.03,0.16,0.95,-0.08,-129.1,-0.1,3.0,-1.01,0.0,0.15,0.0,0.9666954018717581,0.6090976933136425,0.0,0.0,2.0,0.45,0.6,1.2,100.0,1.0,0.18,0.020053288382043788,0.2,1.0,-160.0,0,1,0,calibrating,0,0,0,0,0,0.0
1.6922968380004022,170,15.33,94.5,8.1,15.1,0.57,0.31,-0.06,0.17,0.94,-0.09,-129.1,0.0,-1.0,-1.01,0.0,0.0,0.0,0.9594790253048786,0.6516133823057964,0.0,0.0,2.0,0.45,0.6,1.2,100.0,1.0,0.18,0.026724271649944842,0.2,1.0,-160.0,0,1,0,calibrating,0,0,0,0,0,0.0
1.7034368610002275,171,15.34,94.5,8.1,15.1,0.64,0.33,-0.01,0.16,0.95,-0.09,-129.1,0.0,0.0,-1.01,0.0,-0.1,0.0,0.9675742865537508,0.7201388754955533,0.0,0.0,2.0,0.45,0.6,1.2,100.0,1.0,0.18,0.018256430193051232,0.2,1.0,-160.0,0,1,0,calibrating,0,0,0,0,0,0.0
1.7121401410004182,172,15.35,94.6,8.1,15.0,0.67,0.38,-0.01,0.16,0.96,-0.08,-129.1,0.0,0.0,-1.01,0.0,-0.09,0.0,0.9765244492586962,0.7703246069028303,0.0,0.0,2.0,0.45,0.6,1.2,100.0,1.0,0.18,0.009120142138343668,0.2,1.0,-160.0,0,1,0,calibrating,0,0,0,0,0,0.0
1.7235663139999815,173,15.36,94.7,8.2,15.0,0.67,0.41,-0.01,0.16,0.96,-0.08,-129.1,-0.3,-1.0,-1.01,0.0,-0.56,0.0,0.9765244492586962,0.7855571271397135,0.0,0.0,2.0,0.45,0.6,1.2,100.0,1.0,0.18,0.008937739295576841,0.2,1.0,-160.0,0,1,0,calibrating,0,0,0,0,0,0.0
1.7324598860013793,174,15.37,94.7,8.2,15.0,0.69,0.43,0.0,0.16,0.96,-0.09,-129.1,-0.1,-4.0,-1.01,0.01,0.06,0.0,0.9773944955850733,0.8130190649671137,0.0,0.0,2.0,0.45,0.6,1.2,100.0,1.0,0.18,0.007906339109815752,0.2,1.0,-160.0,0,1,0,calibrating,0,0,0,0,0,0.0
1.7432680809997692,175,15.38,94.8,8.2,14.9,0.73,0.42,-0.01,0.16,0.97,-0.09,-129.1,-0.1,-1.0,-1.01,0.0,0.05,0.0,0.9872183142547548,0.8422588675698226,0.0,0.0,2.0,0.45,0.6,1.2,100.0,1.0,0.18,0.0018791299686684582,0.2,1.0,-160.0,0,1,0,calibrating,0,0,0,0,0,0.0
1.752439220999804,176,15.39,94.9,8.2,14.9,0.74,0.4,-0.02,0.16,0.97,-0.08,-129.1,-0.1,2.0,-1.01,0.0,0.0,0.0,0.9863569333664157,0.8414273587185052,0.0,0.0,2.0,0.45,0.6,1.2,100.0,1.0,0.18,0.0009973940987229035,0.2,1.0,-160.0,0,1,0,calibrating,0,0,0,0,0,0.0
1.7635861640010262,177,15.4,94.9,8.2,14.8,0.71,0.37,-0.05,0.16,0.97,-0.08,-129.1,-0.2,0.0,-1.01,-0.01,-0.09,0.0,0.9863569333664157,0.8021845174272563,0.0,0.0,2.0,0.45,0.6,1.2,100.0,1.0,0.18,0.0009774462167484455,0.2,1.0,-160.0,0,1,0,calibrating,0,0,0,0,0,0.0
1.7721837890003371,178,15.41,95.0,8.2,14.8,0.7,0.35,-0.09,0.16,0.98,-0.09,-129.1,0.0,2.0,-1.01,0.01,-0.1,0.0,0.9970456358662826,0.7877816956492452,0.0,0.0,2.0,0.45,0.6,1.2,100.0,1.0,0.18,0.011432825742282882,0.2,1.0,-160.0,0,1,0,calibrating,0,0,0,0,0,0.0
1.7835006690002047,179,15.42,95.1,8.2,14.8,0.7,0.34,-0.1,0.16,0.99,-0.09,-129.1,-0.1,0.0,-1.01,0.0,1.16,0.0,1.0068763578513502,0.7846018098373212,0.0,0.0,2.0,0.45,0.6,1.2,100.0,1.0,0.18,0.020838276772803477,0.2,1.0,-160.0,0,1,0,calibrating,0,0,0,0,0,0.0
1.7922960110008717,180,15.43,95.1,8.2,14.7,0.67,0.35,-0.12,0.16,1.0,-0.09,-129.2,-0.7,-2.0,-1.01,0.01,-0.1,0.0,1.0167103815738285,0.7653757247260982,0.0,0.0,2.0,0.45,0.6,1.2,100.0,1.0,0.18,0.030058854485376152,0.2,1.0,-160.0,0,1,0,calibrating,0,0,0,0,0,0.0
1.8033551650005393,181,15.44,95.2,8.2,14.7,0.63,0.36,-0.14,0.16,1.0,-0.09,-129.2,-0.1,3.0,-1.01,0.0,-0.09,0.0,1.0167103815738285,0.7389857914736926,0.0,0.0,2.0,0.45,0.6,1.2,100.0,1.0,0.18,0.029457677395668624,0.2,1.0,-160.0,0,1,0,calibrating,0,0,0,0,0,0.0
1.8121353030001046,182,15.45,95.3,8.2,14.7,0.57,0.4,-0.14,0.16,1.01,-0.09,-129.2,0.1,1.0,-1.01,0.02,0.07,0.0,1.0265476121447072,0.7102816342831905,0.0,0.0,2.0,0.45,0.6,1.2,100.0,1.0,0.18,0.03850900980721639,0.2,1.0,-160.0,0,1,0,calibrating,0,0,0,0,0,0.0
1.8235825350002415,183,15.46,95.3,8.2,14.6,0.54,0.43,-0.11,0.16,1.01,-0.09,-129.2,-0.3,1.0,-1.01,0.0,0.23,0.0,1.0265476121447072,0.6989992846920517,0.0,0.0,2.0,0.45,0.6,1.2,100.0,1.0,0.18,0.03773882961107211,0.2,1.0,-160.0,0,1,0,calibrating,0,0,0,0,0,0.0
1.8324138130010397,184,15.47,95.4,8.2,14.6,0.52,0.44,-0.06,0.16,1.01,-0.08,-129.2,0.0,1.0,-1.01,0.0,-0.09,0.0,1.0257192598367255,0.6838128398911504,0.0,0.0,2.0,0.45,0.6,1.2,100.0,1.0,0.18,0.03617226775702853,0.2,1.0,-160.0,0,1,0,calibrating,0,0,0,0,0,0.0
1.8434414800012746,185,15.48,95.4,8.2,14.5,0.52,0.46,0.0,0.16,1.0,-0.08,-129.2,-0.1,0.0,-1.01,0.0,0.14,0.0,1.0158740079360236,0.6942621983083913,0.0,0.0,2.0,0.45,0.6,1.2,100.0,1.0,0.18,0.025800475539200063,0.2,1.0,-160.0,0,1,0,calibrating,0,0,0,0,0,0.0
1.8525734260001627,186,15.49,95.4,8.3,14.5,0.5,0.46,0.03,0.15,1.0,-0.08,-129.2,-0.4,-5.0,-1.01,0.03,-0.02,0.0,1.014347080638575,0.6800735254367721,0.0,0.0,2.0,0.45,0.6,1.2,100.0,1.0,0.18,0.023788077276916564,0.2,1.0,-160.0,0,1,0,calibrating,0,0,0,0,0,0.0
1.8634821260002354,187,15.5,95.5,8.3,14.4,0.46,0.45,0.06,0.15,1.0,-0.08,-129.2,-1.1,0.0,-1.0,0.0,0.22,0.0,1.014347080638575,0.646297145282261,0.0,0.0,2.0,0.45,0.6,1.2,100.0,1.0,0.18,0.023312315731378264,0.2,1.0,-160.0,0,1,0,calibrating,0,0,0,0,0,0.0
1.8723969200000283,188,15.51,95.5,8.3,14.4,0.4,0.42,0.08,0.14,1.0,-0.08,-129.2,0.0,4.0,-1.0,0.0,-0.09,0.0,1.012916580968048,0.5854912467321779,0.0,0.0,2.0,0.45,0.6,1.2,100.0,1.0,0.18,0.021444179739634195,0.2,1.0,-160.0,0,1,0,calibrating,0,0,0,0,0,0.0
1.8836254730013025,189,15.52,95.5,8.3,14.3,0.34,0.41,0.1,0.14,1.0,-0.08,-129.2,0.0,0.0,-1.0,0.0,0.22,0.0,1.012916580968048,0.5419409561935691,0.0,0.0,2.0,0.45,0.6,1.2,100.0,1.0,0.18,0.021015296144841544,0.2,1.0,-160.0,0,1,0,calibrating,0,0,0,0,0,0.0
1.8925742360006552,190,15.53,95.5,8.3,14.3,0.28,0.41,0.13,0.15,1.0,-0.08,-129.2,0.0,0.0,-1.0,0.0,-0.1,0.0,1.014347080638575,0.5132250968142537,0.0,0.0,2.0,0.45,0.6,1.2,100.0,1.0,0.18,0.021996879899061184,0.2,1.0,-160.0,0,1,0,calibrating,0,0,0,0,0,0.0
1.9033712689997628,191,15.54,95.6,8.3,14.2,0.23,0.44,0.17,0.15,1.0,-0.08,-129.2,-0.5,-3.0,-1.0,0.0,0.22,0.0,1.014347080638575,0.524785670536077,0.0,0.0,2.0,0.45,0.6,1.2,100.0,1.0,0.18,0.021556942301079962,0.2,1.0,-160.0,0,1,0,calibrating,0,0,0,0,0,0.0
1.9125764800010074,192,15.55,95.6,8.4,14.2,0.19,0.47,0.2,0.16,0.99,-0.08,-129.2,-0.6,-3.0,-1.0,0.01,0.05,0.0,1.0060318086422517,0.5449770637375485,0.0,0.0,2.0,0.45,0.6,1.2,100.0,1.0,0.18,0.01297683689866147,0.2,1.0,-160.0,0,1,0,calibrating,0,0,0,0,0,0.0
1.923579337000774,193,15.56,95.6,8.4,14.2,0.22,0.51,0.22,0.16,0.99,-0.08,-129.2,-0.3,2.0,-1.0,0.01,0.05,0.0,1.0060318086422517,0.5974110812497538,0.0,0.0,2.0,0.45,0.6,1.2,100.0,1.0,0.18,0.012717300160688283,0.2,1.0,-160.0,0,1,0,calibrating,0,0,0,0,0,0.0
1.9324953810009902,194,15.57,95.6,8.4,14.1,0.23,0.55,0.25,0.16,0.99,-0.09,-129.2,0.1,1.0,-1.0,0.0,-0.02,0.0,1.0068763578513502,0.6464518543557595,0.0,0.0,2.0,0.45,0.6,1.2,100.0,1.0,0.18,0.013290612382391043,0.2,1.0,-160.0,0,1,0,calibrating,0,0,0,0,0,0.0
1.9433513790008874,195,15.58,95.6,8.5,14.0,0.22,0.62,0.26,0.17,0.99,-0.09,-129.2,-0.3,-2.0,-1.0,0.0,-0.02,0.0,1.0085137579626764,0.7073895673530958,0.0,0.0,2.0,0.45,0.6,1.2,100.0,1.0,0.18,0.014629452243842933,0.2,1.0,-160.0,0,1,0,calibrating,0,0,0,0,0,0.0
1.9525990399997681,196,15.59,95.6,8.5,14.0,0.16,0.68,0.25,0.17,0.98,-0.09,-129.2,-0.3,3.0,-1.0,-0.01,-0.18,0.0,0.9986991538997116,0.7419568720619818,0.0,0.0,2.0,0.45,0.6,1.2,100.0,1.0,0.18,0.004718551217260614,0.2,1.0,-160.0,0,1,0,calibrating,0,0,0,0,0,0.0
1.9634718420002173,197,15.6,95.6,8.6,13.9,0.19,0.75,0.23,0.17,0.97,-0.09,-129.2,0.0,-3.0,-1.0,0.01,0.13,0.0,0.9888882646689665,0.8071554992688831,0.0,0.0,2.0,0.45,0.6,1.2,100.0,1.0,0.18,0.004990491253214824,0.2,1.0,-160.0,0,1,0,calibrating,0,0,0,0,0,0.0
1.9724565480009915,198,15.61,95.6,8.6,13.8,0.22,0.84,0.21,0.17,0.97,-0.09,-129.2,-0.1,-1.0,-1.0,0.01,0.21,0.0,0.9888882646689665,0.8933644273195569,0.0,0.0,2.0,0.45,0.6,1.2,100.0,1.0,0.18,0.004890681428150523,0.2,1.0,-160.0,0,1,0,calibrating,0,0,0,0,0,0.0
1.983491569000762,199,15.62,95.6,8.7,13.7,0.25,0.95,0.19,0.18,0.97,-0.1,-129.2,-0.2,1.0,-1.0,0.0,-0.1,0.0,0.9916148445843275,1.0005498488331304,0.0,0.0,2.0,0.45,0.6,1.2,100.0,1.0,0.18,0.002120819482533731,0.2,1.0,-160.0,0,1,0,calibrating,0,0,0,0,0,0.0
1.9924973460001638,200,15.63,95.6,8.7,13.6,0.24,1.04,0.17,0.18,0.97,-0.1,-129.2,-0.1,-1.0,-1.0,0.02,-0.18,0.0,0.9916148445843275,1.0807867504739315,0.0,0.0,2.0,0.45,0.6,1.2,100.0,1.0,0.18,0.0020784030928830965,0.2,1.0,-160.0,0,1,0,calibrating,0,0,0,0,0,0.0
2.003247313999964,201,15.64,95.7,8.8,13.5,0.2,1.13,0.15,0.17,0.98,-0.1,-129.2,-0.4,2.0,-1.0,0.0,-0.1,0.0,0.9996499387285531,1.1573245007343445,0.0,0.0,2.0,0.45,0.6,1.2,100.0,1.0,0.18,0.00583755723031576,0.2,1.0,-160.0,0,1,0,calibrating,0,0,0,0,0,0.0
2.0125492050010507,202,15.65,95.7,8.8,13.4,0.14,1.19,0.11,0.17,0.98,-0.09,-129.2,-0.5,-3.0,-1.0,0.02,0.06,0.0,0.9986991538997116,1.203245610837621,0.0,0.0,2.0,0.45,0.6,1.2,100.0,1.0,0.18,0.004789036953444792,0.2,1.0,-160.0,0,1,0,calibrating,0,0,0,0,0,0.0
2.023577166000905,203,15.66,95.6,8.8,13.3,0.07,1.24,0.06,0.16,0.98,-0.08,-129.2,-0.7,-4.0,-1.0,0.03,0.13,0.0,0.9961927524329817,1.2434226956268732,0.0,0.0,2.0,0.45,0.6,1.2,100.0,1.0,0.18,0.0022369827769804784,0.2,1.0,-160.0,0,1,0,calibrating,0,0,0,0,0,0.0
2.0323980180000945,204,15.67,95.6,8.8,13.2,0.01,1.24,0.01,0.15,0.98,-0.07,-129.2,-1.4,-6.0,-1.0,0.04,-0.1,0.0,0.9938812806366764,1.2400806425390245,0.0,0.0,2.0,0.45,0.6,1.2,100.0,1.0,0.18,7.29992389383316e-05,0.2,1.0,-160.0,0,1,0,calibrating,0,0,0,0,0,0.0
2.0434948689999146,205,15.68,95.6,8.8,13.0,-0.05,1.22,-0.01,0.14,0.99,-0.07,-129.2,-1.0,0.0,-1.0,0.03,0.04,0.0,1.002297361066066,1.2210651088291729,0.0,0.0,2.0,0.45,0.6,1.2,100.0,1.0,0.18,0.008176219566642162,0.2,1.0,-160.0,0,1,0,calibrating,0,0,0,0,0,0.0
2.0524188420004066,206,15.69,95.5,8.8,12.9,-0.1,1.17,-0.02,0.14,0.99,-0.06,-129.3,-2.0,-6.0,-1.0,0.07,-0.02,0.0,1.0016486409914407,1.1744360348695027,0.0,0.0,2.0,0.45,0.6,1.2,100.0,1.0,0.18,0.0073769495021766,0.2,1.0,-160.0,0,1,0,calibrating,0,0,0,0,0,0.0
2.0635390220013505,207,15.7,95.5,8.8,12.8,-0.13,1.14,-0.04,0.14,0.99,-0.06,-129.3,-3.6,-15.0,-1.0,0.12,0.08,0.0,1.0016486409914407,1.1480853626799707,0.0,0.0,2.0,0.45,0.6,1.2,100.0,1.0,0.18,0.007229410512133105,0.2,1.0,-160.0,0,1,0,calibrating,0,0,0,0,0,0.0
2.072424415000569,208,15.71,95.4,8.8,12.7,-0.15,1.1,-0.06,0.14,0.99,-0.05,-129.3,-5.6,-21.0,-1.0,0.19,1.04,0.0,1.0010993956645864,1.1118003417880389,0.0,0.0,2.0,0.45,0.6,1.2,100.0,1.0,0.18,0.00654656188157321,0.2,1.0,-160.0,0,1,0,calibrating,0,0,0,0,0,0.0
2.0835591400009434,209,15.72,95.4,8.8,12.6,-0.22,1.05,-0.06,0.14,0.99,-0.05,-129.4,-7.7,-12.0,-1.0,0.19,0.03,0.0,1.0010993956645864,1.074476616776745,0.0,0.0,2.0,0.45,0.6,1.2,100.0,1.0,0.18,0.006415630643941794,0.2,1.0,-160.0,0,1,0,calibrating,0,0,0,0,0,0.0
2.092424706001111,210,15.73,95.3,8.8,12.5,-0.28,1.01,-0.07,0.13,0.99,-0.04,-129.5,-5.5,15.0,-1.0,0.11,-0.07,0.0,0.9992997548283498,1.0504284840006957,0.0,0.0,2.0,0.45,0.6,1.2,100.0,1.0,0.18,0.004523670011551073,0.2,1.0,-160.0,0,1,0,calibrating,0,0,0,0,0,0.0
2.1033806490013376,211,15.74,95.2,8.8,12.4,-0.28,0.92,-0.08,0.13,0.99,-0.03,-129.5,-2.8,22.0,-1.0,0.03,0.08,0.0,0.9989494481704267,0.9649870465451855,0.0,0.0,2.0,0.45,0.6,1.2,100.0,1.0,0.18,0.004089896086555522,0.2,1.0,-160.0,0,1,0,calibrating,0,0,0,0,0,0.0
2.1122676320010214,212,15.75,95.2,8.8,12.3,-0.29,0.8,-0.07,0.12,0.99,-0.03,-129.5,-0.4,20.0,-1.0,0.0,0.06,0.0,0.9976973488989535,0.8538149682454624,0.0,0.0,2.0,0.45,0.6,1.2,100.0,1.0,0.18,0.0027810408787806162,0.2,1.0,-160.0,0,1,0,calibrating,0,0,0,0,0,0.0
2.123400718999619,213,15.76,95.1,8.8,12.2,-0.32,0.67,-0.06,0.12,1.0,-0.03,-129.5,-0.2,3.0,-1.0,0.0,-0.09,0.0,1.0076209604806758,0.7449161026585478,0.0,0.0,2.0,0.45,0.6,1.2,100.0,1.0,0.18,0.012450559411293138,0.2,1.0,-160.0,0,1,0,calibrating,0,0,0,0,0,0.0
2.1322530140005256,214,15.77,95.0,8.8,12.1,-0.4,0.56,-0.06,0.12,1.0,-0.02,-129.5,0.0,5.0,-1.0,0.0,0.04,0.0,1.0073728207570423,0.6907966415668217,0.0,0.0,2.0,0.45,0.6,1.2,100.0,1.0,0.18,0.0119583712939062,0.2,1.0,-160.0,0,1,0,calibrating,0,0,0,0,0,0.0
2.1432751129996177,215,15.78,94.9,8.8,12.1,-0.49,0.43,-0.06,0.13,0.99,-0.02,-129.5,0.0,2.0,-1.0,0.0,0.06,0.0,0.9986991538997116,0.6546754921333163,0.0,0.0,2.0,0.45,0.6,1.2,100.0,1.0,0.18,0.003219010347844109,0.2,1.0,-160.0,0,1,0,calibrating,0,0,0,0,0,0.0
2.1524827700013702,216,15.79,94.8,8.8,12.0,-0.52,0.32,-0.05,0.14,0.99,-0.03,-129.5,-0.1,-1.0,-1.0,0.0,-0.06,0.0,1.000299955013495,0.6126173356998641,0.0,0.0,2.0,0.45,0.6,1.2,100.0,1.0,0.18,0.004723415232394945,0.2,1.0,-160.0,0,1,0,calibrating,0,0,0,0,0,0.0
2.1634396509998624,217,15.8,94.7,8.7,12.0,-0.52,0.25,-0.07,0.15,0.98,-0.04,-129.5,0.1,0.0,-1.0,0.0,0.01,0.0,0.9922197337283712,0.5812056434688156,0.0,0.0,2.0,0.45,0.6,1.2,100.0,1.0,0.18,0.003289669931674233,0.2,1.0,-160.0,0,1,0,calibrating,0,0,0,0,0,0.0
2.1723104270004114,218,15.81,94.7,8.7,12.0,-0.52,0.2,-0.09,0.16,0.98,-0.05,-129.5,-0.1,0.0,-1.0,0.0,0.0,0.0,0.9942333730065591,0.5643580423808985,0.0,0.0,2.0,0.45,0.6,1.2,100.0,1.0,0.18,0.0012505100404165415,0.2,1.0,-160.0,0,1,0,calibrating,0,0,0,0,0,0.0
2.1835398610000993,219,15.82,94.6,8.7,11.9,-0.52,0.17,-0.11,0.17,0.97,-0.05,-129.5,0.0,1.0,-1.0,0.0,0.06,0.0,0.9860527369263775,0.5580322571321482,0.0,0.0,2.0,0.45,0.6,1.2,100.0,1.0,0.18,0.009242523198186303,0.2,1.0,-160.0,0,1,0,calibrating,0,0,0,0,0,0.0
2.192200049999883,220,15.83,94.5,8.7,11.9,-0.52,0.19,-0.16,0.18,0.96,-0.07,-129.5,0.0,0.0,-1.0,0.0,0.09,0.0,0.9792343948207701,0.5762811813689565,0.0,0.0,2.0,0.45,0.6,1.2,100.0,1.0,0.18,0.015739647997717765,0.2,1.0,-160.0,0,1,0,calibrating,0,0,0,0,0,0.0
2.2034442180010956,221,15.84,94.5,8.8,11.9,-0.51,0.24,-0.2,0.19,0.97,-0.08,-129.5,0.0,0.0,-1.0,0.0,0.22,0.0,0.9916652661054535,0.5980802621722272,0.0,0.0,2.0,0.45,0.6,1.2,100.0,1.0,0.18,0.0032426011787737297,0.2,1.0,-160.0,0,1,0,calibrating,0,0,0,0,0,0.0
2.2123173720010527,222,15.85,94.4,8.8,11.9,-0.5,0.34,-0.22,0.2,0.97,-0.09,-129.5,0.1,1.0,-1.0,0.0,0.04,0.0,0.9944847912361455,0.6434283176858165,0.0,0.0,2.0,0.45,0.6,1.2,100.0,1.0,0.18,0.00041461452711999414,0.2,1.0,-160.0,0,1,0,calibrating,0,0,0,0,0,0.0
2.223442395999882,223,15.86,94.4,8.8,11.8,-0.52,0.47,-0.23,0.21,0.98,-0.09,-129.5,-0.1,-3.0,-1.0,0.0,0.06,0.0,1.0062802790475425,0.7376991256603196,0.0,0.0,2.0,0.45,0.6,1.2,100.0,1.0,0.18,0.01115325581859139,0.2,1.0,-160.0,0,1,0,calibrating,0,0,0,0,0,0.0
2.232440416000827,224,15.87,94.3,8.8,11.8,-0.48,0.62,-0.22,0.22,0.97,-0.1,-129.5,0.0,3.0,-1.0,0.0,0.02,0.0,0.9996499387285531,0.8143709228600933,0.0,0.0,2.0,0.45,0.6,1.2,100.0,1.0,0.18,0.004432457189610051,0.2,1.0,-160.0,0,1,0,calibrating,0,0,0,0,0,0.0
2.243525846000921,225,15.88,94.3,8.8,11.7,-0.48,0.8,-0.18,0.23,0.98,-0.11,-129.5,0.0,1.0,-1.0,0.0,0.0,0.0,1.0126203632161461,0.9501578816175763,0.0,0.0,2.0,0.45,0.6,1.2,100.0,1.0,0.18,0.01705482404365899,0.2,1.0,-160.0,0,1,0,calibrating,0,0,0,0,0,0.0
2.2524204760011344,226,15.89,94.3,8.9,11.6,-0.44,1.01,-0.12,0.22,0.99,-0.11,-129.5,0.0,0.0,-1.0,0.0,0.18,0.0,1.0200980345045274,1.1081967334368028,0.0,0.0,2.0,0.45,0.6,1.2,100.0,1.0,0.18,0.024041845425399444,0.2,1.0,-160.0,0,1,0,calibrating,0,0,0,0,0,0.0
2.2632771490007144,227,15.9,94.2,8.9,11.5,-0.42,1.22,-0.06,0.22,1.01,-0.11,-129.5,0.0,-1.0,-1.0,0.0,0.02,0.0,1.0395191195932858,1.2916655913974018,0.0,0.0,2.0,0.45,0.6,1.2,100.0,1.0,0.18,0.04259367190387464,0.2,1.0,-160.0,0,1,0,calibrating,0,0,0,0,0,0.0
2.2723134179996123,228,15.91,94.2,8.9,11.4,-0.44,1.44,0.0,0.21,1.01,-0.09,-129.5,0.0,1.0,-1.0,0.0,0.04,0.0,1.035519193448388,1.5057224179774968,0.0,0.0,2.0,0.45,0.6,1.2,100.0,1.0,0.18,0.0378218708437974,0.2,1.0,-160.0,0,1,0,calibrating,0,0,0,0,0,0.0
2.2833966730013344,229,15.92,94.1,9.0,11.2,-0.42,1.6,0.05,0.2,1.01,-0.09,-129.5,-0.1,-1.0,-1.0,0.0,0.09,0.0,1.0335376142163382,1.6549622352186772,0.0,0.0,2.0,0.45,0.6,1.2,100.0,1.0,0.18,0.03512348577951252,0.2,1.0,-160.0,0,1,0,calibrating,0,0,0,0,0,0.0
2.2921449929999653,230,15.93,94.1,9.0,11.0,-0.41,1.72,0.08,0.19,1.0,-0.08,-129.5,0.0,0.0,-1.0,0.02,0.0,0.0,1.0210288928331068,1.77,0.0,0.0,2.0,0.45,0.6,1.2,100.0,1.0,0.18,0.02216246910835551,0.2,1.0,-160.0,0,1,0,calibrating,0,0,0,0,0,0.0
2.303566235001199,231,15.94,94.0,9.0,10.9,-0.4,1.82,0.11,0.18,0.99,-0.08,-129.5,0.1,0.0,-1.0,0.0,0.0,0.0,1.0094057657849989,1.8666815475597331,0.0,0.0,2.0,0.45,0.6,1.2,100.0,1.0,0.18,0.010328555219042634,0.2,1.0,-160.0,0,1,0,calibrating,0,0,0,0,0,0.0
2.3123176480003167,232,15.95,93.9,9.1,10.7,-0.39,1.87,0.16,0.17,0.97,-0.08,-129.5,0.0,1.0,-1.0,0.0,-0.08,0.0,0.9880283396745257,1.9169246203228756,0.0,0.0,2.0,0.45,0.6,1.2,100.0,1.0,0.18,0.010827893473601913,0.2,1.0,-160.0,0,1,0,calibrating,0,0,0,0,0,0.0
2.32343929200033,233,15.96,93.9,9.1,10.5,-0.28,1.9,0.2,0.16,0.97,-0.06,-129.5,0.0,1.0,-1.0,0.0,-0.08,0.0,0.9849365461794988,1.9309065228539677,0.0,0.0,2.0,0.45,0.6,1.2,100.0,1.0,0.18,0.013641293229256335,0.2,1.0,-160.0,0,1,0,calibrating,0,0,0,0,0,0.0
2.33240875500087,234,15.97,93.8,9.2,10.3,-0.24,1.9,0.22,0.15,0.96,-0.06,-129.5,0.0,0.0,-1.0,0.0,0.0,0.0,0.9734988443752771,1.9276929216034384,0.0,0.0,2.0,0.45,0.6,1.2,100.0,1.0,0.18,0.024577415132808422,0.2,1.0,-160.0,0,1,0,calibrating,0,0,0,0,0,0.0
2.3433607229999325,235,15.98,93.8,9.2,10.1,-0.23,1.91,0.22,0.15,0.96,-0.06,-129.5,0.0,-1.0,-1.0,0.01,-0.03,0.0,0.9734988443752771,1.936336747572591,0.0,0.0,2.0,0.45,0.6,1.2,100.0,1.0,0.18,0.024085866830152236,0.2,1.0,-160.0,0,1,0,calibrating,0,0,0,0,0,0.0
2.3524078160007775,236,15.99,93.7,9.2,9.9,-0.25,1.91,0.21,0.14,0.96,-0.05,-129.5,0.2,2.0,-1.0,0.0,-0.01,0.0,0.9714422267947795,1.9377048278827196,0.0,0.0,2.0,0.45,0.6,1.2,100.0,1.0,0.18,0.02561963472243678,0.2,1.0,-160.0,0,1,0,calibrating,0,0,0,0,0,0.0
2.363377911000498,237,16.0,93.6,9.2,9.7,-0.25,1.91,0.21,0.14,0.96,-0.04,-129.5,0.1,0.0,-1.0,0.0,0.02,0.0,0.9709788875150684,1.9377048278827196,0.0,0.0,2.0,0.45,0.6,1.2,100.0,1.0,0.18,0.025561314522104972,0.2,1.0,-160.0,0,1,0,calibrating,0,0,0,0,0,0.0
2.372302794999996,238,16.01,93.6,9.3,9.5,-0.27,1.89,0.2,0.13,0.97,-0.04,-129.5,0.0,0.0,-1.0,0.0,-0.08,0.0,0.9794896630388705,1.9196353820452468,0.0,0.0,2.0,0.45,0.6,1.2,100.0,1.0,0.18,0.016709528218336933,0.2,1.0,-160.0,0,1,0,calibrating,0,0,0,0,0,0.0
2.4000287220005703,240,16.03,93.4,9.3,9.1,-0.31,1.78,0.12,0.13,0.96,-0.03,-129.5,0.1,2.0,-1.0,0.0,0.02,0.0,0.9692264957170744,1.8107733154649701,0.0,0.0,2.0,0.45,0.6,1.2,100.0,1.0,0.18,0.02643324162933025,0.2,1.0,-160.0,0,1,0,calibrating,0,0,0,0,0,0.0
2.408496334999654,241,16.04,93.4,9.3,9.0,-0.34,1.73,0.04,0.13,0.96,-0.04,-129.5,-0.1,0.0,-1.0,0.0,0.05,0.0,0.9695875411740809,1.7635475610257865,0.0,0.0,2.0,0.45,0.6,1.2,100.0,1.0,0.18,0.025550752248877373,0.2,1.0,-160.0,0,1,0,calibrating,0,0,0,0,0,0.0
2.416395604999707,242,16.05,93.3,9.3,8.8,-0.36,1.7,-0.03,0.13,0.95,-0.04,-129.5,0.1,0.0,-1.0,0.0,0.0,0.0,0.9596874491208063,1.7379585725787596,0.0,0.0,2.0,0.45,0.6,1.2,100.0,1.0,0.18,0.034741827416108984,0.2,1.0,-160.0,0,1,0,calibrating,0,0,0,0,0,0.0
2.424529814001289,243,16.06,93.2,9.3,8.6,-0.35,1.64,-0.09,0.13,0.96,-0.04,-129.5,0.0,0.0,-1.0,0.0,0.0,0.0,0.9695875411740809,1.6793451104522858,0.0,0.0,2.0,0.45,0.6,1.2,100.0,1.0,0.18,0.024344900655577595,0.2,1.0,-160.0,0,1,0,calibrating,0,0,0,0,0,0.0
2.4322484840013203,244,16.07,93.1,9.3,8.5,-0.36,1.58,-0.14,0.13,0.97,-0.04,-129.5,0.1,1.0,-1.0,0.0,-0.08,0.0,0.9794896630388705,1.626530048907797,0.0,0.0,2.0,0.45,0.6,1.2,100.0,1.0,0.18,0.01415392321497222,0.2,1.0,-160.0,0,1,0,calibrating,0,0,0,0,0,0.0
2.443356597001184,245,16.08,93.1,9.3,8.3,-0.4,1.53,-0.19,0.13,0.97,-0.04,-129.5,0.0,0.0,-1.0,0.0,-0.19,0.0,0.9794896630388705,1.5927962832704,0.0,0.0,2.0,0.45,0.6,1.2,100.0,1.0,0.18,0.013870844750672795,0.2,1.0,-160.0,0,1,0,calibrating,0,0,0,0,0,0.0
2.452170443000796,246,16.09,93.0,9.2,8.1,-0.42,1.47,-0.24,0.13,0.97,-0.04,-129.5,0.5,3.0,-1.0,-0.02,-0.01,0.0,0.9794896630388705,1.5475464451834717,0.0,0.0,2.0,0.45,0.6,1.2,100.0,1.0,0.18,0.013593427855659312,0.2,1.0,-160.0,0,1,0,calibrating,0,0,0,0,0,0.0
2.463533043001007,247,16.1,92.9,9.2,8.0,-0.43,1.41,-0.31,0.12,0.97,-0.04,-129.5,0.7,-1.0,-1.0,-0.01,0.0,0.0,0.9782126558167197,1.5063532122314471,0.0,0.0,2.0,0.45,0.6,1.2,100.0,1.0,0.18,0.014573026376253795,0.2,1.0,-160.0,0,1,0,calibrating,0,0,0,0,0,0.0
2.4722943010001472,248,16.11,92.9,9.1,7.9,-0.47,1.32,-0.37,0.12,0.96,-0.04,-129.5,0.1,-4.0,-1.0,0.0,-0.06,0.0,0.9682974749528164,1.4492066795319432,0.0,0.0,2.0,0.45,0.6,1.2,100.0,1.0,0.18,0.023998443095353927,0.2,1.0,-160.0,0,1,0,calibrating,0,0,0,0,0,0.0
2.4834377280003537,249,16.12,92.8,9.1,7.7,-0.49,1.24,-0.43,0.12,0.96,-0.04,-129.5,0.3,6.0,-1.0,-0.03,-0.11,0.0,0.9682974749528164,1.400928263688045,0.0,0.0,2.0,0.45,0.6,1.2,100.0,1.0,0.18,0.023518474233446884,0.2,1.0,-160.0,0,1,0,calibrating,0,0,0,0,0,0.0
2.492137447999994,250,16.13,92.7,9.0,7.6,-0.5,1.16,-0.5,0.12,0.96,-0.05,-129.5,1.4,4.0,-1.0,-0.03,0.0,0.0,0.9687620966986683,1.3585286158193355,0.0,0.0,2.0,0.45,0.6,1.2,100.0,1.0,0.18,0.022592775437843104,0.2,1.0,-160.0,0,1,0,calibrating,0,0,0,0,0,0.0
2.503482256001007,251,16.14,92.7,9.0,7.5,-0.52,1.1,-0.58,0.13,0.96,-0.05,-129.5,1.0,-2.0,-1.0,-0.02,0.02,0.0,0.970051545022222,1.3478872356395397,0.0,0.0,2.0,0.45,0.6,1.2,100.0,1.0,0.18,0.020877260572003564,0.2,1.0,-160.0,0,1,0,calibrating,0,0,0,0,0,0.0
2.512310066000282,252,16.15,92.6,8.9,7.4,-0.52,1.08,-0.63,0.14,0.97,-0.05,-129.5,1.3,1.0,-1.0,-0.03,0.05,0.0,0.9813256340277675,1.3541417946433822,0.0,0.0,2.0,0.45,0.6,1.2,100.0,1.0,0.18,0.00941110813512891,0.2,1.0,-160.0,0,1,0,calibrating,0,0,0,0,0,0.0
2.5235447220002243,253,16.16,92.5,8.8,7.3,-0.52,1.11,-0.65,0.14,0.97,-0.05,-129.5,1.3,-1.0,-1.0,-0.03,-0.07,0.0,0.9813256340277675,1.3874436925511608,0.0,0.0,2.0,0.45,0.6,1.2,100.0,1.0,0.18,0.009222885972426376,0.2,1.0,-160.0,0,1,0,calibrating,0,0,0,0,0,0.0
2.53251295300106,254,16.17,92.5,8.8,7.1,-0.49,1.13,-0.67,0.14,0.97,-0.06,-129.5,0.8,-3.0,-1.0,-0.01,0.11,0.0,0.9818859404228171,1.402105559506844,0.0,0.0,2.0,0.45,0.6,1.2,100.0,1.0,0.18,0.008489327985829243,0.2,1.0,-160.0,0,1,0,calibrating,0,0,0,0,0,0.0
2.543291432000842,255,16.18,92.4,8.7,7.0,-0.47,1.16,-0.67,0.15,0.98,-0.06,-129.4,1.1,3.0,-1.0,-0.03,0.1,0.0,0.9932270636667125,1.4196478436570106,0.0,0.0,2.0,0.45,0.6,1.2,100.0,1.0,0.18,0.002794759352904852,0.2,1.0,-160.0,0,1,0,calibrating,0,0,0,0,0,0.0
2.552135845000521,256,16.19,92.4,8.6,6.9,-0.49,1.2,-0.67,0.15,0.99,-0.06,-129.4,1.7,0.0,-1.0,-0.03,-0.02,0.0,1.0030952098380292,1.4591093173576817,0.0,0.0,2.0,0.45,0.6,1.2,100.0,1.0,0.18,0.01240964741373718,0.2,1.0,-160.0,0,1,0,calibrating,0,0,0,0,0,0.0
2.5635445670013723,257,16.2,92.3,8.6,6.8,-0.52,1.23,-0.67,0.15,0.99,-0.06,-129.4,0.8,-1.0,-1.0,-0.02,-0.07,0.0,1.0030952098380292,1.4940548852033515,0.0,0.0,2.0,0.45,0.6,1.2,100.0,1.0,0.18,0.012161454465462462,0.2,1.0,-160.0,0,1,0,calibrating,0,0,0,0,0,0.0
2.57247906900011,258,16.21,92.2,8.5,6.7,-0.58,1.26,-0.65,0.15,0.99,-0.06,-129.4,0.9,0.0,-1.0,-0.01,0.01,0.0,1.0030952098380292,1.5318289721767244,0.0,0.0,2.0,0.45,0.6,1.2,100.0,1.0,0.18,0.011918225376153169,0.2,1.0,-160.0,0,1,0,calibrating,0,0,0,0,0,0.0
2.582999858999756,259,16.22,92.2,8.5,6.5,-0.61,1.25,-0.65,0.14,0.98,-0.05,-129.4,0.4,-3.0,-1.0,0.0,0.16,0.0,0.9912113800799504,1.5352849898308782,0.0,0.0,2.0,0.45,0.6,1.2,100.0,1.0,0.18,3.370770571287096e-05,0.2,1.0,-160.0,0,1,0,calibrating,0,0,0,0,0,0.0
2.595774422001341,260,16.23,92.1,8.4,6.4,-0.62,1.21,-0.66,0.14,0.98,-0.06,-129.4,0.4,1.0,-1.0,-0.02,-0.02,0.0,0.991766101457395,1.5113239229232098,0.0,0.0,2.0,0.45,0.6,1.2,100.0,1.0,0.18,0.0005766605014941861,0.2,1.0,-160.0,0,1,0,calibrating,0,0,0,0,0,0.0
2.6044455760002165,261,16.24,92.0,8.3,6.3,-0.65,1.16,-0.67,0.14,0.97,-0.05,-129.4,0.3,-1.0,-1.0,0.0,0.16,0.0,0.9813256340277675,1.4889593681494468,0.0,0.0,2.0,0.45,0.6,1.2,100.0,1.0,0.18,0.009666530789570582,0.2,1.0,-160.0,0,1,0,calibrating,0,0,0,0,0,0.0
2.612412102000235,262,16.25,92.0,8.3,6.2,-0.67,1.09,-0.68,0.14,0.97,-0.06,-129.4,0.1,-2.0,-1.0,0.0,0.11,0.0,0.9818859404228171,1.4489306401619093,0.0,0.0,2.0,0.45,0.6,1.2,100.0,1.0,0.18,0.008924099906630567,0.2,1.0,-160.0,0,1,0,calibrating,0,0,0,0,0,0.0
2.623396588000105,263,16.26,91.9,8.2,6.1,-0.65,1.04,-0.69,0.15,0.97,-0.06,-129.4,0.2,0.0,-1.0,0.0,0.01,0.0,0.9833615815151617,1.4071957930579526,0.0,0.0,2.0,0.45,0.6,1.2,100.0,1.0,0.18,0.0072994896380002006,0.2,1.0,-160.0,0,1,0,calibrating,0,0,0,0,0,0.0
2.6325251430007484,264,16.27,91.8,8.2,6.0,-0.61,1.01,-0.69,0.15,0.97,-0.07,-129.4,0.2,-1.0,-1.0,0.0,0.06,0.0,0.9840223574695851,1.3668577102244401,0.0,0.0,2.0,0.45,0.6,1.2,100.0,1.0,0.18,0.0065059394099052925,0.2,1.0,-160.0,0,1,0,calibrating,0,0,0,0,0,0.0
2.6435028440009773,265,16.28,91.8,8.1,5.8,-0.56,1.0,-0.71,0.15,0.97,-0.07,-129.4,0.9,2.0,-1.0,-0.02,-0.13,0.0,0.9840223574695851,1.3482210501249414,0.0,0.0,2.0,0.45,0.6,1.2,100.0,1.0,0.18,0.006375820621707162,0.2,1.0,-160.0,0,1,0,calibrating,0,0,0,0,0,0.0
2.656511541999862,266,16.29,91.8,8.0,5.7,-0.5,1.04,-0.68,0.16,0.97,-0.08,-129.4,0.3,-4.0,-1.0,0.0,0.17,0.0,0.9863569333664157,1.3394028520202577,0.0,0.0,2.0,0.45,0.6,1.2,100.0,1.0,0.18,0.00396041983037887,0.2,1.0,-160.0,0,1,0,calibrating,0,0,0,0,0,0.0
2.664577757999723,267,16.3,91.7,8.0,5.6,-0.44,1.08,-0.67,0.16,0.97,-0.08,-129.4,-0.1,2.0,-1.0,-0.01,-0.08,0.0,0.9863569333664157,1.344953530795767,0.0,0.0,2.0,0.45,0.6,1.2,100.0,1.0,0.18,0.003881211433771292,0.2,1.0,-160.0,0,1,0,calibrating,0,0,0,0,0,0.0
2.6765512479996687,268,16.31,91.7,7.9,5.5,-0.37,1.11,-0.66,0.16,0.97,-0.08,-129.4,0.0,2.0,-1.0,0.0,0.26,0.0,0.9863569333664157,1.343354011420668,0.0,0.0,2.0,0.45,0.6,1.2,100.0,1.0,0.18,0.003803587205095882,0.2,1.0,-160.0,0,1,0,calibrating,0,0,0,0,0,0.0
2.684396476000984,269,16.32,91.7,7.9,5.4,-0.33,1.15,-0.68,0.16,0.97,-0.08,-129.4,-0.3,-2.0,-1.0,0.0,0.21,0.0,0.9863569333664157,1.3761540611428649,0.0,0.0,2.0,0.45,0.6,1.2,100.0,1.0,0.18,0.0037275154609939243,0.2,1.0,-160.0,0,1,0,calibrating,0,0,0,0,0,0.0
2.6925488010001573,270,16.33,91.7,7.8,5.3,-0.31,1.17,-0.73,0.16,0.97,-0.09,-129.4,0.0,-2.0,-1.0,0.01,0.21,0.0,0.9872183142547548,1.4134709052541548,0.0,0.0,2.0,0.45,0.6,1.2,100.0,1.0,0.18,0.002808811881201856,0.2,1.0,-160.0,0,1,0,calibrating,0,0,0,0,0,0.0
2.703526803999921,271,16.34,91.7,7.8,5.2,-0.33,1.24,-0.77,0.16,0.97,-0.09,-129.4,0.1,2.0,-1.0,0.0,-0.18,0.0,0.9872183142547548,1.4964624953536256,0.0,0.0,2.0,0.45,0.6,1.2,100.0,1.0,0.18,0.002752635643577861,0.2,1.0,-160.0,0,1,0,calibrating,0,0,0,0,0,0.0
2.7123929429999407,272,16.35,91.6,7.7,5.1,-0.36,1.32,-0.8,0.16,0.97,-0.09,-129.4,-0.1,1.0,-1.0,0.0,0.08,0.0,0.9872183142547548,1.584929020492716,0.0,0.0,2.0,0.45,0.6,1.2,100.0,1.0,0.18,0.0026975829307063215,0.2,1.0,-160.0,0,1,0,calibrating,0,0,0,0,0,0.0
2.72368157100027,273,16.36,91.6,7.7,4.9,-0.36,1.41,-0.82,0.16,0.96,-0.1,-129.4,-0.3,-1.0,-1.0,0.0,-0.02,0.0,0.9783659846908006,1.670359242797788,0.0,0.0,2.0,0.45,0.6,1.2,100.0,1.0,0.18,0.011318914244767275,0.2,1.0,-160.0,0,1,0,calibrating,0,0,0,0,0,0.0
2.7325604050001857,274,16.37,91.6,7.6,4.8,-0.36,1.51,-0.8,0.16,0.96,-0.09,-129.4,0.3,1.0,-1.0,0.0,-0.13,0.0,0.9773944955850733,1.7463390277950042,0.0,0.0,2.0,0.45,0.6,1.2,100.0,1.0,0.18,0.012044595283484671,0.2,1.0,-160.0,0,1,0,calibrating,0,0,0,0,0,0.0
2.7435912100008863,275,16.38,91.6,7.5,4.6,-0.35,1.61,-0.78,0.16,0.96,-0.09,-129.4,0.0,0.0,-1.0,0.0,0.01,0.0,0.9773944955850733,1.8229097618916852,0.0,0.0,2.0,0.45,0.6,1.2,100.0,1.0,0.18,0.011803703377815,0.2,1.0,-160.0,0,1,0,calibrating,0,0,0,0,0,0.0
2.752535584000725,276,16.39,91.6,7.5,4.5,-0.34,1.71,-0.77,0.16,0.96,-0.1,-129.4,-0.1,0.0,-1.0,0.0,0.11,0.0,0.9783659846908006,1.9059380892358493,0.0,0.0,2.0,0.45,0.6,1.2,100.0,1.0,0.18,0.010615569986645923,0.2,1.0,-160.0,0,1,0,calibrating,0,0,0,0,0,0.0
2.763593146000858,277,16.4,91.6,7.4,4.3,-0.37,1.79,-0.77,0.16,0.97,-0.1,-129.4,0.0,4.0,-1.0,-0.01,-0.04,0.0,0.9881801455200362,1.9834061611278713,0.0,0.0,2.0,0.45,0.6,1.2,100.0,1.0,0.18,0.0007853809742621731,0.2,1.0,-160.0,0,1,0,calibrating,0,0,0,0,0,0.0
2.7723685310011206,278,16.41,91.6,7.4,4.1,-0.41,1.88,-0.78,0.15,0.97,-0.1,-129.4,-0.3,-5.0,-1.0,0.02,-0.08,0.0,0.986610358753647,2.076270695261097,0.0,0.0,2.0,0.45,0.6,1.2,100.0,1.0,0.18,0.0023080643858383043,0.2,1.0,-160.0,0,1,0,calibrating,0,0,0,0,0,0.0
2.7836987900009262,279,16.42,91.5,7.3,3.9,-0.47,1.96,-0.79,0.15,0.97,-0.1,-129.4,-0.3,3.0,-1.0,0.0,0.02,0.0,0.986610358753647,2.164855653386618,0.0,0.0,2.0,0.45,0.6,1.2,100.0,1.0,0.18,0.002261903098121576,0.2,1.0,-160.0,0,1,0,calibrating,0,0,0,0,0,0.0
2.7925371510009427,280,16.43,91.5,7.3,3.7,-0.5,2.02,-0.8,0.15,0.97,-0.1,-129.4,-0.1,0.0,-1.0,0.0,0.02,0.0,0.986610358753647,2.2294393914165953,0.0,0.0,2.0,0.45,0.6,1.2,100.0,1.0,0.18,0.002216665036159138,0.2,1.0,-160.0,0,1,0,calibrating,0,0,0,0,0,0.0
2.803357329001301,281,16.44,91.5,7.2,3.5,-0.47,2.08,-0.82,0.15,0.97,-0.09,-129.4,0.0,2.0,-1.0,0.0,-0.04,0.0,0.9856469956328178,2.284666277599422,0.0,0.0,2.0,0.45,0.6,1.2,100.0,1.0,0.18,0.0031164275938485586,0.2,1.0,-160.0,0,1,0,calibrating,0,0,0,0,0,0.0
2.812298651000674,282,16.45,91.4,7.1,3.3,-0.43,2.13,-0.84,0.14,0.97,-0.1,-129.4,-0.1,0.0,-1.0,0.0,0.11,0.0,0.9851395840184273,2.3296780893505433,0.0,0.0,2.0,0.45,0.6,1.2,100.0,1.0,0.18,0.003551362424074278,0.2,1.0,-160.0,0,1,0,calibrating,0,0,0,0,0,0.0
2.823582148001151,283,16.46,91.4,7.1,3.1,-0.4,2.18,-0.86,0.14,0.97,-0.1,-129.4,-0.9,-6.0,-1.0,0.03,-0.08,0.0,0.9851395840184273,2.377393530739074,0.0,0.0,2.0,0.45,0.6,1.2,100.0,1.0,0.18,0.0034803351755927636,0.2,1.0,-160.0,0,1,0,calibrating,0,0,0,0,0,0.0
2.8325640530001692,284,16.47,91.4,7.0,2.9,-0.4,2.18,-0.87,0.13,0.97,-0.11,-129.4,-0.2,6.0,-1.0,0.0,0.06,0.0,0.9848350115628506,2.381029189237293,0.0,0.0,2.0,0.45,0.6,1.2,100.0,1.0,0.18,0.0037092094785460272,0.2,1.0,-160.0,0,1,0,calibrating,0,0,0,0,0,0.0
2.843566274001205,285,16.48,91.4,6.9,2.7,-0.44,2.11,-0.84,0.12,0.97,-0.11,-129.4,-0.3,0.0,-1.0,0.01,0.05,0.0,0.9835649444749441,2.313287703680629,0.0,0.0,2.0,0.45,0.6,1.2,100.0,1.0,0.18,0.0048796910351234235,0.2,1.0,-160.0,0,1,0,calibrating,0,0,0,0,0,0.0
2.852542235999863,286,16.49,91.4,6.9,2.5,-0.5,2.05,-0.83,0.13,0.97,-0.12,-129.4,-0.9,-5.0,-1.0,0.03,0.05,0.0,0.9860020283954795,2.26746554549347,0.0,0.0,2.0,0.45,0.6,1.2,100.0,1.0,0.18,0.0023937549722963247,0.2,1.0,-160.0,0,1,0,calibrating,0,0,0,0,0,0.0
2.8634926440008712,287,16.5,91.3,6.8,2.3,-0.58,2.05,-0.83,0.14,0.97,-0.12,-129.4,-0.7,3.0,-1.0,0.0,0.1,0.0,0.9873702446397703,2.2864382781960244,0.0,0.0,2.0,0.45,0.6,1.2,100.0,1.0,0.18,0.0010050279534452589,0.2,1.0,-160.0,0,1,0,calibrating,0,0,0,0,0,0.0
2.8723532620006154,288,16.51,91.3,6.7,2.0,-0.65,2.17,-0.83,0.16,1.01,-0.11,-129.4,-0.2,2.0,-1.0,0.0,0.1,0.0,1.0284940447080868,2.412529792562156,0.0,0.0,2.0,0.45,0.6,1.2,100.0,1.0,0.18,0.039316396672573695,0.2,1.0,-160.0,0,1,0,calibrating,0,0,0,0,0,0.0
2.8835872460003884,289,16.52,91.3,6.7,1.8,-0.66,2.36,-0.77,0.16,1.03,-0.11,-129.4,-1.0,-8.0,-1.0,0.05,0.05,0.0,1.0481412118603104,2.5686767021172594,0.0,0.0,2.0,0.45,0.6,1.2,100.0,1.0,0.18,0.05778429254830131,0.2,1.0,-160.0,0,1,0,calibrating,0,0,0,0,0,0.0
2.8925169480007753,290,16.53,91.2,6.6,1.6,-0.66,2.55,-0.66,0.15,1.06,-0.09,-129.4,-1.2,0.0,-1.0,0.03,-0.03,0.0,1.074337004854622,2.71545576285087,0.0,0.0,2.0,0.45,0.6,1.2,100.0,1.0,0.18,0.08230048383176058,0.2,1.0,-160.0,0,1,0,calibrating,0,0,0,0,0,0.0
2.9033907690009073,291,16.54,91.1,6.6,1.3,-0.69,2.65,-0.51,0.14,1.08,-0.08,-129.4,-1.1,0.0,-1.0,0.03,0.01,0.0,1.091970695577496,2.785444309261989,0.0,0.0,2.0,0.45,0.6,1.2,100.0,1.0,0.18,0.09793549106354194,0.2,1.0,-160.0,0,1,0,calibrating,0,0,0,0,0,0.0
2.9125007610000466,292,16.55,91.1,6.6,1.1,-0.72,2.65,-0.34,0.13,1.09,-0.05,-129.5,-1.4,-2.0,-1.0,0.03,0.08,0.0,1.0988630487917956,2.7670381276737044,0.0,0.0,2.0,0.45,0.6,1.2,100.0,1.0,0.18,0.10273128739228476,0.2,1.0,-160.0,0,1,0,calibrating,0,0,0,0,0,0.0
2.9234630999999354,293,16.56,91.0,6.6,0.8,-0.65,2.55,-0.13,0.11,1.07,-0.03,-129.5,-1.9,-2.0,-1.0,0.04,0.01,0.0,1.076057619275102,2.6347485648539597,0.0,0.0,2.0,0.45,0.6,1.2,100.0,1.0,0.18,0.07832734071807923,0.2,1.0,-160.0,0,1,0,calibrating,0,0,0,0,0,0.0
2.932398554001338,294,16.57,90.9,6.5,0.5,-0.49,2.42,-0.03,0.1,1.01,-0.03,-129.5,-2.5,-10.0,-1.0,0.09,0.15,0.0,1.0153817016275208,2.4692913963321543,0.0,0.0,2.0,0.45,0.6,1.2,100.0,1.0,0.18,0.01729839460908822,0.2,1.0,-160.0,0,1,0,calibrating,0,0,0,0,0,0.0
2.9435701279999194,295,16.58,90.9,6.5,0.3,-0.33,2.26,0.01,0.11,0.98,-0.04,-129.5,-6.0,-31.0,-0.99,0.21,-0.03,0.0,0.9869650449737316,2.283987740772704,0.0,0.0,2.0,0.45,0.6,1.2,100.0,1.0,0.18,0.010895896803806981,0.2,1.0,-160.0,0,1,0,calibrating,0,0,0,0,0,0.0
2.9525328510007967,296,16.59,90.8,6.6,0.1,-0.27,2.14,0.11,0.12,0.97,-0.04,-129.6,-7.6,-12.0,-0.99,0.21,-0.06,0.0,0.9782126558167197,2.1597685061135605,0.0,0.0,2.0,0.45,0.6,1.2,100.0,1.0,0.18,0.01925532024160248,0.2,1.0,-160.0,0,1,0,calibrating,0,0,0,0,0,0.0
2.9634931860000506,297,16.6,90.8,6.6,0.0,-0.18,2.07,0.22,0.11,0.99,-0.02,-129.7,-8.1,-19.0,-0.99,0.27,-0.09,0.0,0.9962931295557548,2.0894257584322062,0.0,0.0,2.0,0.45,0.6,1.2,100.0,1.0,0.18,0.0011513495725160583,0.2,1.0,-160.0,0,1,0,calibrating,0,0,0,0,0,0.0
2.972536946999753,298,16.61,90.7,6.6,-0.2,-0.15,2.05,0.37,0.1,1.04,-0.01,-129.8,-14.3,-55.0,-0.99,0.48,-0.04,0.0,1.04484448603608,2.088516219711975,0.0,0.0,2.0,0.45,0.6,1.2,100.0,1.0,0.18,0.04645200676965289,0.2,1.0,-160.0,0,1,0,calibrating,0,0,0,0,0,0.0
2.9836333010007365,299,16.62,90.7,6.6,-0.4,-0.26,1.98,0.52,0.09,1.09,0.01,-130.0,-20.8,-59.0,-0.98,0.64,-0.02,0.0,1.0937549999885716,2.063589106387219,0.0,0.0,2.0,0.45,0.6,1.2,100.0,1.0,0.18,0.09345527030770162,0.2,1.0,-160.0,0,1,0,calibrating,0,0,0,0,0,0.0
2.99247683700014,300,16.63,90.6,6.7,-0.6,-0.57,1.89,0.65,0.07,1.11,0.03,-130.3,-27.5,-62.0,-0.97,0.81,-0.12,0.0,1.1126095451684745,2.078340684296008,0.0,0.0,2.0,0.45,0.6,1.2,100.0,1.0,0.18,0.11006361917785257,0.2,1.0,-160.0,0,1,0,calibrating,0,0,0,0,0,0.0
3.003336499001307,301,16.64,90.5,6.7,-0.8,-0.85,1.74,0.7,0.06,1.1,0.04,-130.6,-33.8,-75.0,-0.96,1.05,0.0,0.0,1.1023611023616537,2.0591503102007875,0.0,0.0,2.0,0.45,0.6,1.2,100.0,1.0,0.18,0.0978188728436109,0.2,1.0,-160.0,0,1,0,calibrating,0,0,0,0,0,0.0
3.01254986999993,302,16.65,90.3,6.8,-1.0,-1.03,1.53,0.72,0.06,1.07,0.05,-131.0,-42.6,-75.0,-0.95,1.24,-0.04,0.0,1.072846680565308,1.979949494305347,0.0,0.0,2.0,0.45,0.6,1.2,100.0,1.0,0.18,0.06693836202631998,0.2,1.0,-160.0,0,1,0,calibrating,0,0,0,0,0,0.0
3.02342473400131,303,16.66,90.2,6.8,-1.1,-1.04,1.31,0.69,0.08,1.01,0.04,-131.5,-49.4,-73.0,-0.94,1.44,0.05,0.0,1.0139526616169021,1.8093645293306708,0.0,0.0,2.0,0.45,0.6,1.2,100.0,1.0,0.18,0.007883456216355667,0.2,1.0,-160.0,0,1,0,calibrating,0,0,0,0,0,0.0
3.0324011299999256,304,16.67,90.0,6.8,-1.2,-0.89,1.08,0.6,0.11,0.95,0.03,-132.0,-57.7,-84.0,-0.92,1.69,0.02,0.0,0.9568176419778223,1.5226621424334421,0.0,0.0,2.0,0.45,0.6,1.2,100.0,1.0,0.18,0.04826653215426968,0.2,1.0,-160.0,0,1,0,calibrating,0,0,0,0,0,0.0
3.043747126999733,305,16.68,89.9,6.9,-1.4,-0.64,0.97,0.48,0.15,0.92,0.02,-132.6,-65.2,-68.0,-0.9,1.83,-0.14,0.0,0.9323625904121207,1.2573384588089238,0.0,0.0,2.0,0.45,0.6,1.2,100.0,1.0,0.18,0.07126715204557177,0.2,1.0,-160.0,0,1,0,calibrating,0,0,0,0,0,0.0
3.0526350750005804,306,16.69,89.9,7.0,-1.4,-0.29,0.94,0.39,0.19,0.91,0.01,-133.3,-71.9,-72.0,-0.88,2.04,-0.06,0.0,0.9296773633901172,1.0582060290888538,0.0,0.0,2.0,0.45,0.6,1.2,100.0,1.0,0.18,0.07247333148622381,0.2,1.0,-160.0,0,1,0,calibrating,0,0,0,0,0,0.0
3.063695908000227,307,16.7,89.8,7.1,-1.5,0.07,1.01,0.33,0.22,0.92,0.0,-134.1,-79.9,-75.0,-0.86,2.26,-0.1,0.0,0.9459386872308374,1.0648474069086142,0.0,0.0,2.0,0.45,0.6,1.2,100.0,1.0,0.18,0.055087767492593476,0.2,1.0,-160.0,0,1,0,calibrating,0,0,0,0,0,0.0
3.0725419059999695,308,16.71,89.9,7.2,-1.7,0.29,1.17,0.24,0.23,0.94,-0.01,-135.0,-87.1,-68.0,-0.84,2.44,-0.11,0.0,0.9677809669548166,1.2290646850349252,0.0,0.0,2.0,0.45,0.6,1.2,100.0,1.0,0.18,0.03258057801324188,0.2,1.0,-160.0,0,1,0,calibrating,0,0,0,0,0,0.0
3.083562224999696,309,16.72,89.9,7.3,-1.8,0.32,1.46,0.14,0.22,0.96,-0.02,-135.9,-93.1,-65.0,-0.81,2.6,0.02,0.0,0.9850888284819801,1.5011995203836164,0.0,0.0,2.0,0.45,0.6,1.2,100.0,1.0,0.18,0.014967262156356798,0.2,1.0,-160.0,0,1,0,calibrating,0,0,0,0,0,0.0
3.0924300950009638,310,16.73,89.9,7.3,-2.0,0.26,1.82,0.09,0.2,0.98,-0.03,-136.9,-98.7,-54.0,-0.78,2.73,0.13,0.0,1.000649788887201,1.8406792224611002,0.0,0.0,2.0,0.45,0.6,1.2,100.0,1.0,0.18,0.000581824283886867,0.2,1.0,-160.0,0,1,0,calibrating,0,0,0,0,0,0.0
3.103543422999792,311,16.74,89.9,7.4,-2.2,0.26,2.1,0.11,0.17,0.99,-0.02,-137.9,-103.0,-40.0,-0.76,2.83,0.01,0.0,1.0046890066085126,2.1188912194824914,0.0,0.0,2.0,0.45,0.6,1.2,100.0,1.0,0.18,0.00452862116509456,0.2,1.0,-160.0,0,1,0,calibrating,0,0,0,0,0,0.0
3.112511571000141,312,16.75,90.0,7.4,-2.4,0.34,2.29,0.14,0.14,0.99,-0.02,-138.9,-106.2,-33.0,-0.73,2.91,-0.17,0.0,1.0000499987500624,2.319331800325257,0.0,0.0,2.0,0.45,0.6,1.2,100.0,1.0,0.18,0.00010817895948878054,0.2,1.0,-160.0,0,1,0,calibrating,0,0,0,0,0,0.0
3.123340295000162,313,16.76,90.0,7.4,-2.6,0.36,2.45,0.1,0.12,0.99,-0.02,-140.0,-109.9,-41.0,-0.7,3.04,-0.17,0.0,0.9974467404327911,2.478326047960599,0.0,0.0,2.0,0.45,0.6,1.2,100.0,1.0,0.18,0.002657208531224753,0.2,1.0,-160.0,0,1,0,calibrating,0,0,0,0,0,0.0
3.1325524679996306,314,16.77,90.0,7.4,-2.9,0.26,2.57,0.05,0.11,1.0,-0.01,-141.1,-113.2,-32.0,-0.67,3.12,-0.09,0.0,1.006081507632458,2.5836021365527624,0.0,0.0,2.0,0.45,0.6,1.2,100.0,1.0,0.18,0.0058580074950731476,0.2,1.0,-160.0,0,1,0,calibrating,0,0,0,0,0,0.0
3.143625411001267,315,16.78,90.0,7.4,-3.1,0.13,2.66,0.04,0.09,1.01,0.0,-142.2,-115.5,-27.0,-0.63,3.17,-0.03,0.0,1.0140019723846694,2.6634751735279982,0.0,0.0,2.0,0.45,0.6,1.2,100.0,1.0,0.18,0.01350290280233879,0.2,1.0,-160.0,0,1,0,calibrating,0,0,0,0,0,0.0
3.152517436999915,316,16.79,89.9,7.4,-3.4,0.03,2.69,0.06,0.07,1.0,0.02,-143.5,-116.7,-9.0,-0.6,3.17,0.09,0.0,1.002646498024104,2.6908363012268137,0.0,0.0,2.0,0.45,0.6,1.2,100.0,1.0,0.18,0.0021044798729381586,0.2,1.0,-160.0,0,1,0,calibrating,0,0,0,0,0,0.0
3.1633885210012522,317,16.8,89.9,7.4,-3.7,0.0,2.67,0.08,0.06,0.99,0.04,-144.6,-117.7,-9.0,-0.57,3.21,0.0,0.0,0.992622788374315,2.671198233003309,0.0,0.0,2.0,0.45,0.6,1.2,100.0,1.0,0.18,0.007760845181314147,0.2,1.0,-160.0,0,1,0,calibrating,0,0,0,0,0,0.0
3.172622616000808,318,16.81,89.8,7.3,-3.9,0.06,2.58,0.12,0.06,0.97,0.05,-145.8,-116.8,13.0,-0.54,3.13,0.1,0.0,0.973139250056229,2.5834860169933185,0.0,0.0,2.0,0.45,0.6,1.2,100.0,1.0,0.18,0.026699495829412112,0.2,1.0,-160.0,0,1,0,calibrating,0,0,0,0,0,0.0
3.1834399880008277,319,16.82,89.8,7.3,-4.2,0.12,2.43,0.16,0.06,0.96,0.06,-146.9,-112.4,39.0,-0.51,2.98,-0.1,0.0,0.9637427042525407,2.4382165613415063,0.0,0.0,2.0,0.45,0.6,1.2,100.0,1.0,0.18,0.03537412080043856,0.2,1.0,-160.0,0,1,0,calibrating,0,0,0,0,0,0.0
3.1923266330013575,320,16.83,89.7,7.3,-4.4,0.19,2.29,0.16,0.07,0.95,0.06,-148.0,-107.3,49.0,-0.48,2.83,-0.02,0.0,0.9544631999192007,2.3034322217074243,0.0,0.0,2.0,0.45,0.6,1.2,100.0,1.0,0.18,0.04376055263110301,0.2,1.0,-160.0,0,1,0,calibrating,0,0,0,0,0,0.0
3.203602937999676,321,16.84,89.7,7.3,-4.7,0.22,2.11,0.14,0.07,0.95,0.07,-149.1,-101.6,50.0,-0.45,2.7,0.12,0.0,0.9551439682058407,2.1260526804385633,0.0,0.0,2.0,0.45,0.6,1.2,100.0,1.0,0.18,0.04221818865757365,0.2,1.0,-160.0,0,1,0,calibrating,0,0,0,0,0,0.0
3.212504593000631,322,16.85,89.6,7.3,-4.9,0.22,2.01,0.11,0.08,0.95,0.07,-150.0,-97.0,40.0,-0.43,2.6,-0.04,0.0,0.955928867646542,2.0249938271510852,0.0,0.0,2.0,0.45,0.6,1.2,100.0,1.0,0.18,0.0406046234325349,0.2,1.0,-160.0,0,1,0,calibrating,0,0,0,0,0,0.0
3.2233952620008495,323,16.86,89.6,7.3,-5.1,0.24,1.93,0.05,0.09,0.95,0.07,-151.0,-94.7,36.0,-0.4,2.51,-0.04,0.0,0.9568176419778223,1.9455076458343719,0.0,0.0,2.0,0.45,0.6,1.2,100.0,1.0,0.18,0.03892153211922944,0.2,1.0,-160.0,0,1,0,calibrating,0,0,0,0,0,0.0
3.2325985040006344,324,16.87,89.5,7.2,-5.3,0.25,1.89,-0.03,0.09,0.95,0.07,-151.9,-91.6,25.0,-0.38,2.48,-0.01,0.0,0.9568176419778223,1.9066987176793295,0.0,0.0,2.0,0.45,0.6,1.2,100.0,1.0,0.18,0.038143101476844854,0.2,1.0,-160.0,0,1,0,calibrating,0,0,0,0,0,0.0
3.243634684000426,325,16.88,89.5,7.2,-5.5,0.28,1.88,-0.13,0.1,0.94,0.07,-152.8,-89.4,19.0,-0.35,2.42,0.09,0.0,0.9478923989567593,1.9051771571168912,0.0,0.0,2.0,0.45,0.6,1.2,100.0,1.0,0.18,0.046126977607949704,0.2,1.0,-160.0,0,1,0,calibrating,0,0,0,0,0,0.0
3.252420617000098,326,16.89,89.5,7.2,-5.7,0.29,1.92,-0.27,0.1,0.95,0.07,-153.7,-87.4,25.0,-0.33,2.34,-0.12,0.0,0.9578100020358944,1.960459129897892,0.0,0.0,2.0,0.45,0.6,1.2,100.0,1.0,0.18,0.03548518703823822,0.2,1.0,-160.0,0,1,0,calibrating,0,0,0,0,0,0.0
3.263606570000775,327,16.9,89.4,7.1,-5.9,0.26,2.03,-0.4,0.1,0.95,0.06,-154.6,-85.4,19.0,-0.3,2.29,-0.07,0.0,0.9571311299921239,2.0853057329801783,0.0,0.0,2.0,0.45,0.6,1.2,100.0,1.0,0.18,0.03544077790036848,0.2,1.0,-160.0,0,1,0,calibrating,0,0,0,0,0,0.0
3.2726168019999022,328,16.91,89.4,7.1,-6.1,0.26,2.17,-0.5,0.09,0.96,0.06,-155.4,-85.2,0.0,-0.28,2.33,-0.03,0.0,0.9660745312862771,2.2419857269840056,0.0,0.0,2.0,0.45,0.6,1.2,100.0,1.0,0.18,0.025967429074090997,0.2,1.0,-160.0,0,1,0,calibrating,0,0,0,0,0,0.0
3.2834754230007093,329,16.92,89.4,7.0,-6.3,0.29,2.33,-0.55,0.09,0.97,0.05,-156.3,-84.9,8.0,-0.26,2.28,0.01,0.0,0.9754486147409304,2.4115347810056567,0.0,0.0,2.0,0.45,0.6,1.2,100.0,1.0,0.18,0.01626147870704897,0.2,1.0,-160.0,0,1,0,calibrating,0,0,0,0,0,0.0
3.2924813460012956,330,16.93,89.3,6.9,-6.6,0.35,2.53,-0.61,0.09,0.98,0.05,-157.1,-84.2,6.0,-0.23,2.28,-0.08,0.0,0.985393322486001,2.6259284072495195,0.0,0.0,2.0,0.45,0.6,1.2,100.0,1.0,0.18,0.0061904355427387925,0.2,1.0,-160.0,0,1,0,calibrating,0,0,0,0,0,0.0
3.303440239000338,331,16.94,89.3,6.9,-6.9,0.18,2.82,-0.55,0.11,0.99,0.05,-158.0,-84.2,-9.0,-0.21,2.33,0.09,0.0,0.9973464794142505,2.8787670972136663,0.0,0.0,2.0,0.45,0.6,1.2,100.0,1.0,0.18,0.0056474669578004955,0.2,1.0,-160.0,0,1,0,calibrating,0,0,0,0,0,0.0
3.312506909000149,332,16.95,89.2,6.8,-7.2,0.07,3.12,-0.54,0.11,0.99,0.05,-158.8,-86.1,-5.0,-0.19,2.33,0.0,0.0,0.9973464794142505,3.1671596107553532,0.0,0.0,2.0,0.45,0.6,1.2,100.0,1.0,0.18,0.00553451761864443,0.2,1.0,-160.0,0,1,0,calibrating,0,0,0,0,0,0.0
3.3234238990007725,333,16.96,89.2,6.7,-7.5,0.01,3.37,-0.58,0.11,0.98,0.06,-159.7,-86.6,-10.0,-0.16,2.38,0.04,0.0,0.9879777325425912,3.4195613753813516,0.0,0.0,2.0,0.45,0.6,1.2,100.0,1.0,0.18,0.0037575446679545266,0.2,1.0,-160.0,0,1,0,calibrating,0,0,0,0,0,0.0
3.332584574000066,334,16.97,89.1,6.7,-7.9,-0.08,3.61,-0.54,0.1,0.98,0.07,-160.6,-87.2,-7.0,-0.14,2.38,0.22,0.0,0.9875727821279806,3.6510409474559444,0.0,0.0,2.0,0.45,0.6,1.2,100.0,1.0,0.18,0.004079245180913849,0.2,1.0,-160.0,0,1,0,calibrating,0,0,0,0,0,0.0
3.3445322860006854,335,16.98,89.0,6.6,-8.2,-0.08,3.74,-0.58,0.09,0.98,0.08,-161.4,-87.2,2.0,-0.12,2.35,0.09,0.0,0.9873702446397703,3.7855514789789875,0.0,0.0,2.0,0.45,0.6,1.2,100.0,1.0,0.18,0.004196147015741669,0.2,1.0,-160.0,0,1,0,calibrating,0,0,0,0,0,0.0
3.3525668590009445,336,16.99,88.9,6.5,-8.6,-0.17,3.95,-0.57,0.08,0.99,0.07,-162.3,-86.1,8.0,-0.09,2.31,-0.04,0.0,0.9956907150315303,3.994533765034413,0.0,0.0,2.0,0.45,0.6,1.2,100.0,1.0,0.18,0.004041836908497909,0.2,1.0,-160.0,0,1,0,calibrating,0,0,0,0,0,0.0
3.3636645790011244,337,17.0,88.8,6.4,-9.0,-0.29,4.08,-0.6,0.06,0.99,0.07,-163.0,-84.6,21.0,-0.07,2.25,-0.06,0.0,0.9942836617384397,4.134065795315792,0.0,0.0,2.0,0.45,0.6,1.2,100.0,1.0,0.18,0.0025820879430991095,0.2,1.0,-160.0,0,1,0,calibrating,0,0,0,0,0,0.0
3.3724564260010084,338,17.01,88.7,6.3,-9.4,-0.46,4.23,-0.54,0.03,0.99,0.08,-164.0,-81.9,27.0,-0.05,2.18,-0.12,0.0,0.9936800289831732,4.289067497720222,0.0,0.0,2.0,0.45,0.6,1.2,100.0,1.0,0.18,0.001938886084075997,0.2,1.0,-160.0,0,1,0,calibrating,0,0,0,0,0,0.0
3.383613312000307,339,17.02,88.6,6.3,-9.9,-0.48,4.26,-0.51,0.01,0.98,0.09,-164.8,-78.2,32.0,-0.03,2.08,-0.1,0.0,0.9841747812253675,4.317186583876124,0.0,0.0,2.0,0.45,0.6,1.2,100.0,1.0,0.18,0.007415034440255153,0.2,1.0,-160.0,0,1,0,calibrating,0,0,0,0,0,0.0
3.392502816999695,340,17.03,88.5,6.2,-10.3,-0.45,4.23,-0.47,0.0,1.0,0.08,-165.5,-73.2,54.0,-0.01,1.89,-0.1,0.0,1.0031948963187562,4.279754665865791,0.0,0.0,2.0,0.45,0.6,1.2,100.0,1.0,0.18,0.011372979040070952,0.2,1.0,-160.0,0,1,0,calibrating,0,0,0,0,0,0.0
3.4036887960010063,341,17.04,88.4,6.2,-10.7,-0.48,4.15,-0.41,0.0,1.01,0.09,-166.2,-66.1,69.0,0.0,1.68,-0.08,0.0,1.0140019723846694,4.197737485836865,0.0,0.0,2.0,0.45,0.6,1.2,100.0,1.0,0.18,0.02173645400386437,0.2,1.0,-160.0,0,1,0,calibrating,0,0,0,0,0,0.0
3.4123713900007715,342,17.05,88.3,6.1,-11.1,-0.57,4.05,-0.35,0.0,1.0,0.08,-166.8,-55.7,103.0,0.01,1.35,-0.13,0.0,1.0031948963187562,4.1048629696982575,0.0,0.0,2.0,0.45,0.6,1.2,100.0,1.0,0.18,0.010710790379192203,0.2,1.0,-160.0,0,1,0,calibrating,0,0,0,0,0,0.0
3.423618056000123,343,17.06,88.2,6.1,-11.5,-0.57,3.93,-0.3,0.0,1.0,0.07,-167.2,-39.1,162.0,0.02,0.8,-0.18,0.0,1.0024470060806208,3.9824364401707655,0.0,0.0,2.0,0.45,0.6,1.2,100.0,1.0,0.18,0.009763642138235551,0.2,1.0,-160.0,0,1,0,calibrating,0,0,0,0,0,0.0
3.4325715739996667,344,17.07,88.1,6.0,-11.9,-0.48,3.81,-0.26,0.0,1.0,0.07,-167.5,-17.7,212.0,0.03,0.16,-0.18,0.0,1.0024470060806208,3.8489089363090936,0.0,0.0,2.0,0.45,0.6,1.2,100.0,1.0,0.18,0.009568369295470891,0.2,1.0,-160.0,0,1,0,calibrating,0,0,0,0,0,0.0
3.4433843750011874,345,17.08,88.0,6.0,-12.3,-0.33,3.7,-0.29,0.01,1.0,0.07,-167.5,7.7,215.0,0.02,-0.41,-0.17,0.0,1.002496882788171,3.7259898013816413,0.0,0.0,2.0,0.45,0.6,1.2,100.0,1.0,0.18,0.009425881082960719,0.2,1.0,-160.0,0,1,0,calibrating,0,0,0,0,0,0.0
3.4525455710008828,346,17.09,87.9,5.9,-12.7,-0.2,3.59,-0.36,0.02,1.01,0.07,-167.3,21.3,157.0,0.02,-0.75,-0.43,0.0,1.0126203632161461,3.613543966800459,0.0,0.0,2.0,0.45,0.6,1.2,100.0,1.0,0.18,0.019158374280717316,0.2,1.0,-160.0,0,1,0,calibrating,0,0,0,0,0,0.0
3.463573957000335,347,17.1,87.9,5.8,-13.0,-0.09,3.45,-0.44,0.03,1.03,0.07,-167.0,37.0,164.0,0.01,-1.22,-0.11,0.0,1.032811696293182,3.479109081359767,0.0,0.0,2.0,0.45,0.6,1.2,100.0,1.0,0.18,0.03856271321059779,0.2,1.0,-160.0,0,1,0,calibrating,0,0,0,0,0,0.0
3.4725338610005565,348,17.11,87.8,5.7,-13.4,-0.04,3.29,-0.51,0.02,1.03,0.05,-166.5,55.7,185.0,0.0,-1.76,0.12,0.0,1.031406806260265,3.32953450199874,0.0,0.0,2.0,0.45,0.6,1.2,100.0,1.0,0.18,0.0364146667141273,0.2,1.0,-160.0,0,1,0,calibrating,0,0,0,0,0,0.0
3.4833541300013167,349,17.12,87.8,5.5,-13.7,0.0,3.14,-0.62,0.01,1.02,0.05,-165.8,75.2,192.0,-0.02,-2.29,-0.02,0.0,1.0212737145349429,3.2006249389767616,0.0,0.0,2.0,0.45,0.6,1.2,100.0,1.0,0.18,0.025755943489028987,0.2,1.0,-160.0,0,1,0,calibrating,0,0,0,0,0,0.0
3.4924731080009224,350,17.13,87.7,5.4,-14.0,0.03,2.96,-0.72,0.0,1.01,0.04,-164.9,96.2,205.0,-0.05,-2.86,-0.36,0.0,1.0107917688624102,3.046456958501137,0.0,0.0,2.0,0.45,0.6,1.2,100.0,1.0,0.18,0.014968517860166397,0.2,1.0,-160.0,0,1,0,calibrating,0,0,0,0,0,0.0
3.5033878539998113,351,17.14,87.7,5.3,-14.3,0.08,2.68,-0.82,-0.01,1.0,0.04,-163.8,118.6,222.0,-0.08,-3.5,-0.13,0.0,1.0008496390567367,2.803783158519931,0.0,0.0,2.0,0.45,0.6,1.2,100.0,1.0,0.18,0.004925860293403139,0.2,1.0,-160.0,0,1,0,calibrating,0,0,0,0,0,0.0
3.5125467010002467,352,17.15,87.7,5.1,-14.5,0.14,2.39,-0.91,0.0,1.0,0.03,-162.4,142.7,234.0,-0.12,-4.17,-0.01,0.0,1.0004498987955368,2.5612106512350756,0.0,0.0,2.0,0.45,0.6,1.2,100.0,1.0,0.18,0.004435597631559096,0.2,1.0,-160.0,0,1,0,calibrating,0,0,0,0,0,0.0
3.5236215370005084,353,17.16,87.7,5.0,-14.7,0.2,2.16,-0.96,0.0,1.0,0.02,-160.8,165.1,223.0,-0.17,-4.75,-0.03,0.0,1.000199980003999,2.372172000509238,0.0,0.0,2.0,0.45,0.6,1.2,100.0,1.0,0.18,0.004101965263220819,0.2,1.0,-160.0,0,1,0,calibrating,0,0,0,0,0,0.0
3.532608004001304,354,17.17,87.7,4.8,-14.9,0.21,2.02,-0.99,0.0,1.0,0.01,-159.1,186.8,219.0,-0.22,-5.34,-0.12,0.0,1.0000499987500624,2.259336185697029,0.0,0.0,2.0,0.45,0.6,1.2,100.0,1.0,0.18,0.003872944329098682,0.2,1.0,-160.0,0,1,0,calibrating,0,0,0,0,0,0.0
3.5443958530013333,355,17.18,87.7,4.6,-15.1,0.23,1.89,-1.02,0.0,1.01,-0.01,-157.0,207.4,204.0,-0.27,-5.86,-0.14,0.0,1.0100495037373167,2.159953703207548,0.0,0.0,2.0,0.45,0.6,1.2,100.0,1.0,0.18,0.01359500033002592,0.2,1.0,-160.0,0,1,0,calibrating,0,0,0,0,0,0.0
3.552581107000151,356,17.19,87.8,4.5,-15.3,0.12,1.77,-0.98,0.0,0.99,0.0,-154.8,227.4,201.0,-0.34,-6.42,-0.02,0.0,0.99,2.026746160721663,0.0,0.0,2.0,0.45,0.6,1.2,100.0,1.0,0.18,0.006325413339145047,0.2,1.0,-160.0,0,1,0,calibrating,0,0,0,0,0,0.0
3.563649797000835,357,17.2,87.8,4.3,-15.5,0.04,1.63,-0.95,0.0,0.98,0.0,-152.4,246.9,194.0,-0.4,-6.93,-0.22,0.0,0.98,1.8870612072744222,0.0,0.0,2.0,0.45,0.6,1.2,100.0,1.0,0.18,0.015998905072362124,0.2,1.0,-160.0,0,1,0,calibrating,0,0,0,0,0,0.0
3.5724221609998494,358,17.21,87.8,4.2,-15.6,0.0,1.43,-0.93,-0.01,0.97,-0.01,-149.8,263.6,165.0,-0.48,-7.33,-0.19,0.0,0.9701030873056739,1.705813588877753,0.0,0.0,2.0,0.45,0.6,1.2,100.0,1.0,0.18,0.025377901411354542,0.2,1.0,-160.0,0,1,0,calibrating,0,0,0,0,0,0.0
3.583530793001046,359,17.22,87.8,4.0,-15.8,0.06,1.21,-0.93,-0.02,0.96,-0.01,-147.1,278.6,158.0,-0.55,-7.75,-0.02,0.0,0.9602603813549739,1.5272851731094623,0.0,0.0,2.0,0.45,0.6,1.2,100.0,1.0,0.18,0.03451619521481342,0.2,1.0,-160.0,0,1,0,calibrating,0,0,0,0,0,0.0
3.5925505150007666,360,17.23,87.8,3.9,-15.9,0.11,1.01,-0.92,-0.01,0.96,-0.02,-144.2,291.6,117.0,-0.63,-8.0,-0.17,0.0,0.9602603813549739,1.370620297529553,0.0,0.0,2.0,0.45,0.6,1.2,100.0,1.0,0.18,0.033825871310517175,0.2,1.0,-160.0,0,1,0,calibrating,0,0,0,0,0,0.0
3.603373060001104,361,17.24,87.9,3.8,-15.9,0.09,0.84,-0.91,-0.02,0.97,-0.03,-141.2,293.8,30.0,-0.71,-7.95,0.08,0.0,0.9706698717895801,1.2416923934694937,0.0,0.0,2.0,0.45,0.6,1.2,100.0,1.0,0.18,0.022948053258392775,0.2,1.0,-160.0,0,1,0,calibrating,0,0,0,0,0,0.0
3.6124911099996098,362,17.25,87.8,3.7,-16.0,-0.11,0.71,-0.91,-0.01,0.97,-0.03,-138.3,292.0,5.0,-0.79,-7.94,0.13,0.0,0.9705153270299238,1.1594395197680645,0.0,0.0,2.0,0.45,0.6,1.2,100.0,1.0,0.18,0.02264054605768806,0.2,1.0,-160.0,0,1,0,calibrating,0,0,0,0,0,0.0
3.6232963040001778,363,17.26,87.8,3.6,-16.1,-0.28,0.54,-0.86,-0.02,0.98,-0.04,-135.4,291.3,-8.0,-0.87,-7.88,0.12,0.0,0.9810198774744576,1.0533755265810953,0.0,0.0,2.0,0.45,0.6,1.2,100.0,1.0,0.18,0.01189327570089116,0.2,1.0,-160.0,0,1,0,calibrating,0,0,0,0,0,0.0
3.632562914999653,364,17.27,87.8,3.6,-16.1,-0.48,0.38,-0.86,-0.02,0.98,-0.04,-132.5,285.6,-58.0,-0.95,-7.63,0.04,0.0,0.9810198774744576,1.0556514576317317,0.0,0.0,2.0,0.45,0.6,1.2,100.0,1.0,0.18,0.011655410186873327,0.2,1.0,-160.0,0,1,0,calibrating,0,0,0,0,0,0.0
3.643476807999832,365,17.28,87.7,3.5,-16.1,-0.6,0.22,-0.85,-0.02,0.98,-0.05,-129.7,276.4,-70.0,-1.02,-7.43,0.02,0.0,0.9814784765851974,1.063437821407533,0.0,0.0,2.0,0.45,0.6,1.2,100.0,1.0,0.18,0.010972874854610848,0.2,1.0,-160.0,0,1,0,calibrating,0,0,0,0,0,0.0
3.6523575730006996,366,17.29,87.6,3.4,-16.2,-0.76,0.1,-0.72,-0.03,0.98,-0.05,-127.0,272.1,-35.0,-1.1,-7.4,0.01,0.0,0.9817331613019904,1.0516653460107925,0.0,0.0,2.0,0.45,0.6,1.2,100.0,1.0,0.18,0.010503826335061417,0.2,1.0,-160.0,0,1,0,calibrating,0,0,0,0,0,0.0
3.6631711830013955,367,17.3,87.6,3.3,-16.2,-0.97,0.0,-0.6,-0.04,0.97,-0.04,-124.3,270.6,-30.0,-1.17,-7.31,0.05,0.0,0.9716480844420988,1.1405700329221349,0.0,0.0,2.0,0.45,0.6,1.2,100.0,1.0,0.18,0.020177125131053963,0.2,1.0,-160.0,0,1,0,calibrating,0,0,0,0,0,0.0
3.672139700000116,368,17.31,87.5,3.3,-16.2,-1.14,-0.17,-0.45,-0.05,0.96,-0.05,-121.6,266.9,-33.0,-1.24,-7.22,0.05,0.0,0.9626006440887103,1.2373358476985945,0.0,0.0,2.0,0.45,0.6,1.2,100.0,1.0,0.18,0.02864007417475356,0.2,1.0,-160.0,0,1,0,calibrating,0,0,0,0,0,0.0
3.683357023001008,369,17.32,87.3,3.2,-16.1,-1.23,-0.36,-0.25,-0.06,0.95,-0.03,-119.0,264.5,-16.0,-1.31,-7.2,-0.01,0.0,0.9523654760647301,1.3057564857200594,0.0,0.0,2.0,0.45,0.6,1.2,100.0,1.0,0.18,0.03809773735475919,0.2,1.0,-160.0,0,1,0,calibrating,0,0,0,0,0,0.0
3.6925784880004358,370,17.33,87.2,3.2,-16.1,-1.14,-0.67,-0.02,-0.08,0.92,-0.02,-116.4,266.6,17.0,-1.39,-7.3,-0.01,0.0,0.9236882591004392,1.3224598292575847,0.0,0.0,2.0,0.45,0.6,1.2,100.0,1.0,0.18,0.06543945523266914,0.2,1.0,-160.0,0,1,0,calibrating,0,0,0,0,0,0.0
3.703644811999766,371,17.34,87.1,3.2,-16.0,-0.93,-1.09,0.29,-0.08,0.91,0.0,-113.6,269.1,11.0,-1.46,-7.31,0.02,0.0,0.9135097153287425,1.4618823482072694,0.0,0.0,2.0,0.45,0.6,1.2,100.0,1.0,0.18,0.07410563902427847,0.2,1.0,-160.0,0,1,0,calibrating,0,0,0,0,0,0.0
3.7125633400009974,372,17.35,87.0,3.3,-15.9,-0.72,-1.44,0.58,-0.09,0.89,0.0,-111.0,269.5,9.0,-1.53,-7.34,0.05,0.0,0.8945389874119518,1.711256848050578,0.0,0.0,2.0,0.45,0.6,1.2,100.0,1.0,0.18,0.09121483960224774,0.2,1.0,-160.0,0,1,0,calibrating,0,0,0,0,0,0.0
3.7236397079996095,373,17.36,87.0,3.4,-15.7,-0.46,-1.87,0.84,-0.09,0.86,-0.01,-108.3,269.0,-16.0,-1.61,-7.25,-0.04,0.0,0.8647543003651383,2.1009759636892564,0.0,0.0,2.0,0.45,0.6,1.2,100.0,1.0,0.18,0.11857953611607996,0.2,1.0,-160.0,0,1,0,calibrating,0,0,0,0,0,0.0
3.732428081000762,374,17.37,87.0,3.5,-15.5,-0.11,-2.36,1.04,-0.1,0.85,-0.01,-105.6,258.8,-97.0,-1.68,-6.83,-0.03,0.0,0.8559205570612263,2.5813368629452453,0.0,0.0,2.0,0.45,0.6,1.2,100.0,1.0,0.18,0.12486501383159221,0.2,1.0,-160.0,0,1,0,calibrating,0,0,0,0,0,0.0
3.7435711119996995,375,17.38,87.0,3.6,-15.2,0.28,-2.87,1.24,-0.08,0.86,-0.01,-103.2,240.5,-163.0,-1.74,-6.31,0.19,0.0,0.863770802933278,3.1389329397105636,0.0,0.0,2.0,0.45,0.6,1.2,100.0,1.0,0.18,0.11467447260034969,0.2,1.0,-160.0,0,1,0,calibrating,0,0,0,0,0,0.0
3.75260793400048,376,17.39,87.1,3.8,-14.9,0.67,-3.29,1.41,-0.06,0.87,0.0,-100.9,214.8,-249.0,-1.8,-5.46,0.06,0.0,0.8720665112249181,3.6415793277093385,0.0,0.0,2.0,0.45,0.6,1.2,100.0,1.0,0.18,0.10425118902253538,0.2,1.0,-160.0,0,1,0,calibrating,0,0,0,0,0,0.0
3.763525178999771,377,17.4,87.2,3.9,-14.6,1.03,-3.71,1.5,-0.03,0.89,0.0,-99.0,178.1,-365.0,-1.85,-4.26,0.22,0.0,0.8905054744357275,4.132190702278877,0.0,0.0,2.0,0.45,0.6,1.2,100.0,1.0,0.18,0.08409598129549145,0.2,1.0,-160.0,0,1,0,calibrating,0,0,0,0,0,0.0
3.7725408990008873,378,17.41,87.3,4.1,-14.2,1.37,-4.06,1.55,0.0,0.92,-0.02,-97.6,123.9,-523.0,-1.87,-2.66,0.34,0.0,0.9202173656261873,4.5566435015260955,0.0,0.0,2.0,0.45,0.6,1.2,100.0,1.0,0.18,0.05329640830293103,0.2,1.0,-160.0,0,1,0,calibrating,0,0,0,0,0,0.0
3.78345433100003,379,17.42,87.5,4.3,-13.8,1.48,-4.31,1.62,0.01,0.95,-0.05,-96.9,46.4,-726.0,-1.89,-0.24,0.3,0.0,0.9513674369033238,4.836413960777137,0.0,0.0,2.0,0.45,0.6,1.2,100.0,1.0,0.18,0.021703410285278446,0.2,1.0,-160.0,0,1,0,calibrating,0,0,0,0,0,0.0
3.7925114999998186,380,17.43,87.7,4.5,-13.3,1.36,-4.44,1.75,0.03,0.97,-0.09,-96.9,-19.6,-556.0,-1.88,0.96,0.04,0.0,0.9746281342132496,4.962428840799634,0.0,0.0,2.0,0.45,0.6,1.2,100.0,1.0,0.18,0.001526141284154292,0.2,1.0,-160.0,0,1,0,calibrating,0,0,0,0,0,0.0
3.8033840950010926,381,17.44,87.9,4.7,-12.9,1.13,-4.57,1.94,0.05,0.98,-0.09,-97.3,-45.9,-311.0,-1.87,1.4,-0.1,0.0,0.985393322486001,5.091699127010551,0.0,0.0,2.0,0.45,0.6,1.2,100.0,1.0,0.18,0.012045502965767563,0.2,1.0,-160.0,0,1,0,calibrating,0,0,0,0,0,0.0
3.812578339000538,382,17.45,88.1,4.9,-12.4,1.36,-4.73,2.08,0.11,0.96,-0.05,-97.9,-58.1,-175.0,-1.85,1.68,0.0,0.0,0.9675742865537508,5.3431170677798185,0.0,0.0,2.0,0.45,0.6,1.2,100.0,1.0,0.18,0.0056580623071530445,0.2,1.0,-160.0,0,1,0,calibrating,0,0,0,0,0,0.0
3.8235621780004294,383,17.46,88.3,5.1,-12.0,2.23,-4.83,2.01,0.18,0.98,-0.03,-98.5,-64.0,-87.0,-1.83,1.77,0.1,0.0,0.9968450230602548,5.686993933529382,0.0,0.0,2.0,0.45,0.6,1.2,100.0,1.0,0.18,0.02314042071536393,0.2,1.0,-160.0,0,1,0,calibrating,0,0,0,0,0,0.0
3.832607698001084,384,17.47,88.6,5.3,-11.5,2.94,-4.6,1.77,0.22,1.05,-0.05,-99.2,-69.7,-79.0,-1.81,2.0,0.07,0.0,1.0739646176667088,5.739033019594851,0.0,0.0,2.0,0.45,0.6,1.2,100.0,1.0,0.18,0.09825481501538158,0.2,1.0,-160.0,0,1,0,calibrating,0,0,0,0,0,0.0
3.843660729000476,385,17.48,89.0,5.5,-11.0,3.31,-4.09,1.39,0.25,1.12,-0.06,-99.9,-74.5,-38.0,-1.79,2.02,0.03,0.0,1.149130105775669,5.442085997115444,0.0,0.0,2.0,0.45,0.6,1.2,100.0,1.0,0.18,0.16995189706185498,0.2,1.0,-160.0,0,1,0,calibrating,0,0,0,0,0,0.0
3.852258150000125,386,17.49,89.4,5.6,-10.7,3.73,-3.5,0.76,0.3,1.19,-0.02,-100.6,-73.1,7.0,-1.77,1.93,-0.03,0.0,1.2273956167430287,5.171121735175068,0.0,0.0,2.0,0.45,0.6,1.2,100.0,1.0,0.18,0.24325305986863022,0.2,1.0,-160.0,0,1,0,calibrating,0,0,0,0,0,0.0
3.86343114400006,387,17.5,89.8,5.7,-10.3,3.81,-2.85,0.14,0.35,1.29,-0.04,-101.3,-67.7,35.0,-1.75,1.79,-0.12,0.0,1.3372359552449973,4.760063024792844,0.0,0.0,2.0,0.45,0.6,1.2,100.0,1.0,0.18,0.3460315304031869,0.2,1.0,-160.0,0,1,0,calibrating,0,0,0,0,0,0.0
3.872344745999726,388,17.51,90.1,5.6,-10.1,2.58,-2.08,-0.27,0.33,1.35,-0.03,-102.0,-64.3,29.0,-1.74,1.73,-0.1,0.0,1.3900719405843713,3.3250112781763614,0.0,0.0,2.0,0.45,0.6,1.2,100.0,1.0,0.18,0.3908901654277097,0.2,1.0,-160.0,0,1,0,calibrating,0,0,0,0,0,0.0
3.883621357001175,389,17.52,90.3,5.7,-9.9,1.02,-1.44,-0.41,0.22,1.3,0.01,-102.6,-63.5,4.0,-1.72,1.75,-0.1,0.0,1.3185218997043622,1.8116567003712376,0.0,0.0,2.0,0.45,0.6,1.2,100.0,1.0,0.18,0.31295332205674664,0.2,1.0,-160.0,0,1,0,calibrating,0,0,0,0,0,0.0
3.8922519360003207,390,17.53,90.3,5.6,-9.8,0.2,-1.24,-0.32,0.07,1.17,0.08,-103.3,-67.2,-31.0,-1.7,1.89,0.09,0.0,1.1748191350161095,1.2961481396815722,0.0,0.0,2.0,0.45,0.6,1.2,100.0,1.0,0.18,0.16586554622112404,0.2,1.0,-160.0,0,1,0,calibrating,0,0,0,0,0,0.0
3.9034447800004273,391,17.54,90.4,5.6,-9.7,0.16,-1.51,-0.08,-0.03,1.09,0.15,-104.0,-73.0,-53.0,-1.68,2.06,-0.21,0.0,1.1006816070054046,1.5205591076969025,0.0,0.0,2.0,0.45,0.6,1.2,100.0,1.0,0.18,0.08989345784621094,0.2,1.0,-160.0,0,1,0,calibrating,0,0,0,0,0,0.0
3.9123970569999074,392,17.55,90.4,5.6,-9.5,0.33,-2.07,0.27,-0.12,1.03,0.18,-104.8,-82.9,-94.0,-1.66,2.4,-0.14,0.0,1.0524732775705044,2.113456883875325,0.0,0.0,2.0,0.45,0.6,1.2,100.0,1.0,0.18,0.04085142584308432,0.2,1.0,-160.0,0,1,0,calibrating,0,0,0,0,0,0.0
3.9234393910010112,393,17.56,90.5,5.7,-9.2,0.62,-2.91,0.61,-0.18,1.01,0.2,-105.7,-94.1,-109.0,-1.63,2.72,0.0,0.0,1.0452272480183435,3.0372026603438895,0.0,0.0,2.0,0.45,0.6,1.2,100.0,1.0,0.18,0.03293328836510501,0.2,1.0,-160.0,0,1,0,calibrating,0,0,0,0,0,0.0
3.932393957000386,394,17.57,90.6,5.7,-8.9,0.87,-3.92,0.83,-0.2,1.02,0.19,-106.6,-103.0,-85.0,-1.61,2.86,0.0,0.0,1.0566456359631644,4.100268283905335,0.0,0.0,2.0,0.45,0.6,1.2,100.0,1.0,0.18,0.0434646427837273,0.2,1.0,-160.0,0,1,0,calibrating,0,0,0,0,0,0.0
3.9435657699996227,395,17.58,90.7,5.8,-8.4,0.93,-4.71,0.89,-0.16,1.04,0.15,-107.7,-107.3,-51.0,-1.57,2.99,-0.03,0.0,1.0628734637763801,4.882734889383203,0.0,0.0,2.0,0.45,0.6,1.2,100.0,1.0,0.18,0.04869862118500423,0.2,1.0,-160.0,0,1,0,calibrating,0,0,0,0,0,0.0
3.9523973840005056,396,17.59,90.9,5.9,-7.9,0.83,-5.2,0.8,-0.12,1.06,0.11,-108.8,-109.5,-16.0,-1.54,2.93,0.19,0.0,1.0724271537032248,5.326246333019156,0.0,0.0,2.0,0.45,0.6,1.2,100.0,1.0,0.18,0.05708726488961191,0.2,1.0,-160.0,0,1,0,calibrating,0,0,0,0,0,0.0
3.963399809999828,397,17.6,91.0,5.9,-7.4,0.54,-5.46,0.7,-0.05,1.08,0.09,-109.8,-106.9,16.0,-1.51,2.84,0.2,0.0,1.0848963084092416,5.531112003928324,0.0,0.0,2.0,0.45,0.6,1.2,100.0,1.0,0.18,0.06816529120371606,0.2,1.0,-160.0,0,1,0,calibrating,0,0,0,0,0,0.0
3.9724279700003535,398,17.61,91.1,6.0,-6.8,0.2,-5.62,0.63,0.0,1.05,0.09,-110.9,-102.6,29.0,-1.49,2.75,0.05,0.0,1.0538500842150178,5.658736608113157,0.0,0.0,2.0,0.45,0.6,1.2,100.0,1.0,0.18,0.03637668566930241,0.2,1.0,-160.0,0,1,0,calibrating,0,0,0,0,0,0.0
3.9834674350004207,399,17.62,91.2,6.1,-6.3,-0.05,-5.74,0.52,0.06,1.01,0.09,-111.9,-97.5,54.0,-1.46,2.55,-0.09,0.0,1.0157755657624374,5.763722755303208,0.0,0.0,2.0,0.45,0.6,1.2,100.0,1.0,0.18,0.0016638761276124292,0.2,1.0,-160.0,0,1,0,calibrating,0,0,0,0,0,0.0
3.9923267230005877,400,17.63,91.2,6.1,-5.7,-0.21,-5.75,0.4,0.12,0.96,0.09,-112.8,-91.5,56.0,-1.44,2.38,-0.1,0.0,0.9716480844420988,5.767720520274886,0.0,0.0,2.0,0.45,0.6,1.2,100.0,1.0,0.18,0.04487553029899194,0.2,1.0,-160.0,0,1,0,calibrating,0,0,0,0,0,0.0
4.003602901000704,401,17.64,91.2,6.1,-5.1,-0.33,-5.64,0.27,0.17,0.92,0.07,-113.7,-84.3,70.0,-1.42,2.18,-0.06,0.0,0.9381897462667134,5.656094058623848,0.0,0.0,2.0,0.45,0.6,1.2,100.0,1.0,0.18,0.07676719110488983,0.2,1.0,-160.0,0,1,0,calibrating,0,0,0,0,0,0.0
4.0122884520005755,402,17.65,91.2,6.1,-4.6,-0.38,-5.42,0.18,0.21,0.87,0.06,-114.4,-73.6,109.0,-1.39,1.8,0.08,0.0,0.8969949832635632,5.436285496550011,0.0,0.0,2.0,0.45,0.6,1.2,100.0,1.0,0.18,0.11560271502587927,0.2,1.0,-160.0,0,1,0,calibrating,0,0,0,0,0,0.0
4.023329780000495,403,17.66,91.2,6.1,-4.0,-0.38,-5.22,0.17,0.24,0.86,0.05,-115.1,-61.1,114.0,-1.38,1.46,-0.09,0.0,0.8942594701763017,5.236573307039633,0.0,0.0,2.0,0.45,0.6,1.2,100.0,1.0,0.18,0.11597146355087773,0.2,1.0,-160.0,0,1,0,calibrating,0,0,0,0,0,0.0
4.032387405000918,404,17.67,91.2,6.1,-3.5,-0.29,-4.94,0.26,0.25,0.87,0.05,-115.6,-48.4,132.0,-1.37,1.13,-0.14,0.0,0.9065870063044142,4.955330463248642,0.0,0.0,2.0,0.45,0.6,1.2,100.0,1.0,0.18,0.1015710488743099,0.2,1.0,-160.0,0,1,0,calibrating,0,0,0,0,0,0.0
4.043560702000832,405,17.68,91.3,6.2,-3.0,-0.14,-4.71,0.38,0.24,0.87,0.05,-116.0,-36.4,119.0,-1.36,0.77,-0.04,0.0,0.9038805230781334,4.727377708624519,0.0,0.0,2.0,0.45,0.6,1.2,100.0,1.0,0.18,0.10219198145857888,0.2,1.0,-160.0,0,1,0,calibrating,0,0,0,0,0,0.0
4.052397789000679,406,17.69,91.3,6.2,-2.6,0.09,-4.51,0.48,0.22,0.89,0.05,-116.3,-23.7,122.0,-1.35,0.45,0.03,0.0,0.9181503144910423,4.536364182911244,0.0,0.0,2.0,0.45,0.6,1.2,100.0,1.0,0.18,0.08616374624475642,0.2,1.0,-160.0,0,1,0,calibrating,0,0,0,0,0,0.0
4.063536281000779,407,17.7,91.4,6.2,-2.1,0.21,-4.29,0.56,0.21,0.92,0.04,-116.4,-11.0,128.0,-1.35,0.1,0.02,0.0,0.94451045520947,4.331489351250907,0.0,0.0,2.0,0.45,0.6,1.2,100.0,1.0,0.18,0.05860753341580227,0.2,1.0,-160.0,0,1,0,calibrating,0,0,0,0,0,0.0
4.072323131000303,408,17.71,91.5,6.3,-1.7,0.22,-4.09,0.63,0.2,0.95,0.03,-116.5,0.7,104.0,-1.35,-0.11,0.02,0.0,0.9712878049270464,4.144080115055692,0.0,0.0,2.0,0.45,0.6,1.2,100.0,1.0,0.18,0.031193580024261314,0.2,1.0,-160.0,0,1,0,calibrating,0,0,0,0,0,0.0
4.083453262999683,409,17.72,91.5,6.3,-1.3,0.16,-3.99,0.72,0.19,0.96,0.03,-116.4,1.4,7.0,-1.35,0.04,0.01,0.0,0.979081201943945,4.057597811513606,0.0,0.0,2.0,0.45,0.6,1.2,100.0,1.0,0.18,0.022932179347215476,0.2,1.0,-160.0,0,1,0,calibrating,0,0,0,0,0,0.0
4.0922832600008405,410,17.73,91.6,6.4,-0.9,0.06,-3.95,0.79,0.18,0.97,0.03,-116.5,-1.0,3.0,-1.35,0.01,-0.07,0.0,0.9870157040290696,4.028672237847105,0.0,0.0,2.0,0.45,0.6,1.2,100.0,1.0,0.18,0.014697723716848965,0.2,1.0,-160.0,0,1,0,calibrating,0,0,0,0,0,0.0
4.10355382400121,411,17.74,91.6,6.6,-0.5,0.03,-3.96,0.82,0.18,0.97,0.02,-116.5,-0.2,4.0,-1.35,0.0,-0.06,0.0,0.9867623827447011,4.0441191871654825,0.0,0.0,2.0,0.45,0.6,1.2,100.0,1.0,0.18,0.01465202410119304,0.2,1.0,-160.0,0,1,0,calibrating,0,0,0,0,0,0.0
4.112289220000093,412,17.75,91.6,6.7,-0.1,0.09,-3.91,0.81,0.19,0.99,0.01,-116.5,-0.2,4.0,-1.35,0.0,0.1,0.0,1.0081170566953026,3.9940330494376237,0.0,0.0,2.0,0.45,0.6,1.2,100.0,1.0,0.18,0.006568596852420283,0.2,1.0,-160.0,0,1,0,calibrating,0,0,0,0,0,0.0
4.123336570000902,413,17.76,91.6,6.8,0.2,0.12,-3.78,0.75,0.21,1.01,0.0,-116.5,0.0,2.0,-1.35,0.0,0.1,0.0,1.0316006979447039,3.8555544348381336,0.0,0.0,2.0,0.45,0.6,1.2,100.0,1.0,0.18,0.029451193339785187,0.2,1.0,-160.0,0,1,0,calibrating,0,0,0,0,0,0.0
4.132259611000336,414,17.77,91.7,6.9,0.6,0.07,-3.57,0.69,0.22,1.05,-0.02,-116.5,-0.3,-2.0,-1.35,0.0,0.02,0.0,1.0729864864013898,3.636743048388214,0.0,0.0,2.0,0.45,0.6,1.2,100.0,1.0,0.18,0.06942024216054166,0.2,1.0,-160.0,0,1,0,calibrating,0,0,0,0,0,0.0
4.14358379100122,415,17.78,91.7,7.0,0.9,0.0,-3.28,0.64,0.23,1.08,-0.03,-116.5,-0.6,-4.0,-1.35,0.03,-0.15,0.0,1.1046266337545914,3.341855771872867,0.0,0.0,2.0,0.45,0.6,1.2,100.0,1.0,0.18,0.09903918172346837,0.2,1.0,-160.0,0,1,0,calibrating,0,0,0,0,0,0.0
4.1524029320007685,416,17.79,91.8,7.1,1.2,-0.2,-2.99,0.63,0.23,1.08,-0.03,-116.5,-1.2,-3.0,-1.35,0.03,0.03,0.0,1.1046266337545914,3.062188759694608,0.0,0.0,2.0,0.45,0.6,1.2,100.0,1.0,0.18,0.09705839808899897,0.2,1.0,-160.0,0,1,0,calibrating,0,0,0,0,0,0.0
4.163693201000569,417,17.8,91.8,7.2,1.5,-0.41,-2.78,0.62,0.21,1.06,-0.04,-116.5,-1.3,-2.0,-1.35,0.04,0.02,0.0,1.0813417591122616,2.877655295548791,0.0,0.0,2.0,0.45,0.6,1.2,100.0,1.0,0.18,0.07229805297773573,0.2,1.0,-160.0,0,1,0,calibrating,0,0,0,0,0,0.0
4.17259476900108,418,17.81,91.8,7.3,1.8,-0.6,-2.64,0.58,0.2,1.03,-0.04,-116.5,-2.1,-6.0,-1.35,0.06,0.02,0.0,1.05,2.7687542325024084,0.0,0.0,2.0,0.45,0.6,1.2,100.0,1.0,0.18,0.04013716798816458,0.2,1.0,-160.0,0,1,0,calibrating,0,0,0,0,0,0.0
4.183562111000356,419,17.82,91.7,7.4,2.1,-0.77,-2.52,0.52,0.19,1.0,-0.05,-116.5,-2.9,-11.0,-1.35,0.09,-0.04,0.0,1.0191172650877818,2.685833204054191,0.0,0.0,2.0,0.45,0.6,1.2,100.0,1.0,0.18,0.009069344414427416,0.2,1.0,-160.0,0,1,0,calibrating,0,0,0,0,0,0.0
4.19255119599984,420,17.83,91.7,7.5,2.3,-0.89,-2.41,0.48,0.19,0.98,-0.06,-116.6,-4.9,-23.0,-1.35,0.19,0.03,0.0,1.0000499987500624,2.613541658363226,0.0,0.0,2.0,0.45,0.6,1.2,100.0,1.0,0.18,0.0097979634848262,0.2,1.0,-160.0,0,1,0,calibrating,0,0,0,0,0,0.0
4.203634573001182,421,17.84,91.6,7.5,2.5,-0.94,-2.27,0.44,0.19,0.97,-0.06,-116.7,-9.7,-49.0,-1.34,0.38,0.0,0.0,0.9902524930541705,2.4960168268663576,0.0,0.0,2.0,0.45,0.6,1.2,100.0,1.0,0.18,0.019203559797103642,0.2,1.0,-160.0,0,1,0,calibrating,0,0,0,0,0,0.0
4.212712279000698,422,17.85,91.6,7.6,2.8,-0.98,-2.08,0.42,0.2,0.96,-0.07,-116.8,-17.8,-71.0,-1.34,0.6,-0.11,0.0,0.9831073186585481,2.3373489255992568,0.0,0.0,2.0,0.45,0.6,1.2,100.0,1.0,0.18,0.025821759508871556,0.2,1.0,-160.0,0,1,0,calibrating,0,0,0,0,0,0.0
4.223503602001074,423,17.86,91.6,7.7,3.0,-1.0,-1.9,0.38,0.21,0.95,-0.07,-117.0,-22.7,-40.0,-1.33,0.64,0.08,0.0,0.9754486147409304,2.180458667345015,0.0,0.0,2.0,0.45,0.6,1.2,100.0,1.0,0.18,0.03281085415795937,0.2,1.0,-160.0,0,1,0,calibrating,0,0,0,0,0,0.0
4.23269654700016,424,17.87,91.5,7.8,3.2,-1.01,-1.67,0.34,0.22,0.94,-0.07,-117.3,-24.1,-19.0,-1.33,0.64,0.02,0.0,0.9679359482941007,1.9810603221507417,0.0,0.0,2.0,0.45,0.6,1.2,100.0,1.0,0.18,0.03951705019269325,0.2,1.0,-160.0,0,1,0,calibrating,0,0,0,0,0,0.0
4.243633400001272,425,17.88,91.4,7.8,3.3,-1.01,-1.42,0.29,0.22,0.92,-0.08,-117.5,-22.7,-2.0,-1.32,0.62,-0.1,0.0,0.9493155429044655,1.7665220066560168,0.0,0.0,2.0,0.45,0.6,1.2,100.0,1.0,0.18,0.05697470647068181,0.2,1.0,-160.0,0,1,0,calibrating,0,0,0,0,0,0.0
4.252447386999847,426,17.89,91.3,7.8,3.4,-1.0,-1.2,0.26,0.22,0.92,-0.08,-117.7,-22.5,3.0,-1.31,0.58,-0.02,0.0,0.9493155429044655,1.5835403373454053,0.0,0.0,2.0,0.45,0.6,1.2,100.0,1.0,0.18,0.0558352123412682,0.2,1.0,-160.0,0,1,0,calibrating,0,0,0,0,0,0.0
4.26347529800114,427,17.9,91.3,7.8,3.6,-0.95,-0.99,0.26,0.22,0.92,-0.08,-117.9,-20.1,15.0,-1.31,0.51,-0.03,0.0,0.9493155429044655,1.3964956140282003,0.0,0.0,2.0,0.45,0.6,1.2,100.0,1.0,0.18,0.054718508094442786,0.2,1.0,-160.0,0,1,0,calibrating,0,0,0,0,0,0.0
4.272585740000068,428,17.91,91.2,7.9,3.7,-0.9,-0.84,0.25,0.21,0.92,-0.07,-118.1,-16.7,35.0,-1.3,0.39,-0.1,0.0,0.946255779374689,1.2562245022288014,0.0,0.0,2.0,0.45,0.6,1.2,100.0,1.0,0.18,0.05662270619173493,0.2,1.0,-160.0,0,1,0,calibrating,0,0,0,0,0,0.0
4.2835998669997934,429,17.92,91.1,7.9,3.7,-0.86,-0.77,0.2,0.21,0.92,-0.07,-118.2,-12.4,43.0,-1.3,0.25,-0.05,0.0,0.946255779374689,1.1715374513859982,0.0,0.0,2.0,0.45,0.6,1.2,100.0,1.0,0.18,0.05549025206790026,0.2,1.0,-160.0,0,1,0,calibrating,0,0,0,0,0,0.0
4.2923729850008385,430,17.93,91.0,7.9,3.8,-0.89,-0.72,0.11,0.21,0.91,-0.08,-118.3,-9.4,20.0,-1.3,0.26,0.01,0.0,0.9373366524360391,1.1500434774390054,0.0,0.0,2.0,0.45,0.6,1.2,100.0,1.0,0.18,0.06312119142641914,0.2,1.0,-160.0,0,1,0,calibrating,0,0,0,0,0,0.0
4.303625280999768,431,17.94,90.9,7.9,3.9,-0.93,-0.69,-0.04,0.21,0.89,-0.09,-118.4,-9.3,18.0,-1.3,0.17,-0.21,0.0,0.9188579868510695,1.1587061750072793,0.0,0.0,2.0,0.45,0.6,1.2,100.0,1.0,0.18,0.07996785987116106,0.2,1.0,-160.0,0,1,0,calibrating,0,0,0,0,0,0.0
4.312354742000025,432,17.95,90.9,7.9,4.0,-0.9,-0.67,-0.22,0.22,0.88,-0.09,-118.5,-3.4,57.0,-1.3,-0.03,0.29,0.0,0.9115371632577577,1.1433722053644648,0.0,0.0,2.0,0.45,0.6,1.2,100.0,1.0,0.18,0.08554290979518342,0.2,1.0,-160.0,0,1,0,calibrating,0,0,0,0,0,0.0
4.323536789001082,433,17.96,90.8,7.9,4.0,-0.85,-0.63,-0.39,0.22,0.88,-0.09,-118.5,1.4,23.0,-1.3,0.01,0.15,0.0,0.9115371632577577,1.1276080879454529,0.0,0.0,2.0,0.45,0.6,1.2,100.0,1.0,0.18,0.08383205159927976,0.2,1.0,-160.0,0,1,0,calibrating,0,0,0,0,0,0.0
4.332724470999892,434,17.97,90.7,7.8,4.1,-0.78,-0.56,-0.56,0.21,0.88,-0.1,-118.5,-0.8,6.0,-1.3,0.0,-0.23,0.0,0.9102197536858888,1.1115754585272204,0.0,0.0,2.0,0.45,0.6,1.2,100.0,1.0,0.18,0.0834464719477257,0.2,1.0,-160.0,0,1,0,calibrating,0,0,0,0,0,0.0
4.3434958690013445,435,17.98,90.6,7.7,4.1,-0.69,-0.49,-0.73,0.22,0.89,-0.11,-118.5,0.4,1.0,-1.3,0.0,0.15,0.0,0.9233634170791044,1.117631424039249,0.0,0.0,2.0,0.45,0.6,1.2,100.0,1.0,0.18,0.06889675238341986,0.2,1.0,-160.0,0,1,0,calibrating,0,0,0,0,0,0.0
4.35245992199998,436,17.99,90.6,7.7,4.2,-0.58,-0.39,-0.88,0.22,0.9,-0.12,-118.5,0.1,5.0,-1.3,0.0,0.11,0.0,0.9342376571301331,1.1237882362794158,0.0,0.0,2.0,0.45,0.6,1.2,100.0,1.0,0.18,0.0568620620857434,0.2,1.0,-160.0,0,1,0,calibrating,0,0,0,0,0,0.0
4.363673441001083,437,18.0,90.5,7.6,4.2,-0.51,-0.27,-1.02,0.22,0.91,-0.13,-118.5,0.0,-1.0,-1.3,0.0,0.15,0.0,0.9451983918733675,1.1719214990774767,0.0,0.0,2.0,0.45,0.6,1.2,100.0,1.0,0.18,0.04498330079565882,0.2,1.0,-160.0,0,1,0,calibrating,0,0,0,0,0,0.0
4.3724873430001026,438,18.01,90.5,7.5,4.2,-0.48,-0.12,-1.13,0.22,0.93,-0.13,-118.5,0.4,0.0,-1.3,0.0,-0.03,0.0,0.9644687656943589,1.233572048969982,0.0,0.0,2.0,0.45,0.6,1.2,100.0,1.0,0.18,0.025198668435174043,0.2,1.0,-160.0,0,1,0,calibrating,0,0,0,0,0,0.0
4.383510577001289,439,18.02,90.4,7.3,4.2,-0.48,0.03,-1.17,0.22,0.94,-0.12,-118.5,-0.7,2.0,-1.3,-0.01,0.11,0.0,0.9728309205612247,1.2649901185384809,0.0,0.0,2.0,0.45,0.6,1.2,100.0,1.0,0.18,0.016499783296942128,0.2,1.0,-160.0,0,1,0,calibrating,0,0,0,0,0,0.0
4.392572684000697,440,18.03,90.4,7.2,4.2,-0.43,0.14,-1.2,0.22,0.94,-0.1,-118.5,0.1,-2.0,-1.3,0.0,-0.12,0.0,0.9705668446840743,1.2823805987303456,0.0,0.0,2.0,0.45,0.6,1.2,100.0,1.0,0.18,0.018388581990610664,0.2,1.0,-160.0,0,1,0,calibrating,0,0,0,0,0,0.0
4.40352408400031,441,18.04,90.3,7.1,4.2,-0.36,0.22,-1.2,0.21,0.93,-0.1,-118.5,-0.2,-2.0,-1.3,0.0,0.15,0.0,0.9586448768965493,1.2720062892926276,0.0,0.0,2.0,0.45,0.6,1.2,100.0,1.0,0.18,0.029704338782572948,0.2,1.0,-160.0,0,1,0,calibrating,0,0,0,0,0,0.0
4.412326240000766,442,18.05,90.3,7.0,4.2,-0.24,0.24,-1.2,0.19,0.93,-0.08,-118.5,-0.3,1.0,-1.3,0.0,-0.03,0.0,0.9525754563287887,1.2470765814495917,0.0,0.0,2.0,0.45,0.6,1.2,100.0,1.0,0.18,0.0350582841633269,0.2,1.0,-160.0,0,1,0,calibrating,0,0,0,0,0,0.0
4.423528418001297,443,18.06,90.3,6.9,4.1,-0.05,0.19,-1.19,0.19,0.94,-0.08,-118.5,-0.4,-4.0,-1.29,0.03,0.0,0.0,0.9623408959407264,1.2061094477699774,0.0,0.0,2.0,0.45,0.6,1.2,100.0,1.0,0.18,0.02478698766036147,0.2,1.0,-160.0,0,1,0,calibrating,0,0,0,0,0,0.0
4.432735562000744,444,18.07,90.3,6.7,4.1,0.13,0.13,-1.13,0.19,0.95,-0.09,-118.5,-1.1,-10.0,-1.29,0.06,0.0,0.0,0.9729850975220535,1.1448580698060349,0.0,0.0,2.0,0.45,0.6,1.2,100.0,1.0,0.18,0.013859930357453587,0.2,1.0,-160.0,0,1,0,calibrating,0,0,0,0,0,0.0
4.443560777999664,445,18.08,90.3,6.6,4.1,0.28,0.08,-1.04,0.18,0.97,-0.1,-118.5,-3.4,-22.0,-1.29,0.12,0.12,0.0,0.9916148445843275,1.08,0.0,0.0,2.0,0.45,0.6,1.2,100.0,1.0,0.18,0.004674420370723964,0.2,1.0,-160.0,0,1,0,calibrating,0,0,0,0,0,0.0
4.452572109001267,446,18.09,90.3,6.5,4.1,0.31,0.11,-0.96,0.16,0.97,-0.1,-118.6,-7.9,-47.0,-1.29,0.3,-0.02,0.0,0.9881801455200362,1.0147906187977893,0.0,0.0,2.0,0.45,0.6,1.2,100.0,1.0,0.18,0.0012149268803040014,0.2,1.0,-160.0,0,1,0,calibrating,0,0,0,0,0,0.0
4.463537884999823,447,18.1,90.4,6.5,4.1,0.35,0.11,-0.85,0.15,0.98,-0.09,-118.7,-14.5,-63.0,-1.29,0.5,-0.06,0.0,0.9954898291795853,0.9257969539807311,0.0,0.0,2.0,0.45,0.6,1.2,100.0,1.0,0.18,0.008354118329056082,0.2,1.0,-160.0,0,1,0,calibrating,0,0,0,0,0,0.0
4.472501283000383,448,18.11,90.5,6.4,4.1,0.44,0.02,-0.68,0.15,1.0,-0.07,-118.9,-24.4,-90.0,-1.28,0.78,-0.06,0.0,1.0136074190730846,0.8101851640211638,0.0,0.0,2.0,0.45,0.6,1.2,100.0,1.0,0.18,0.025942274058104564,0.2,1.0,-160.0,0,1,0,calibrating,0,0,0,0,0,0.0
4.483604885001114,449,18.12,90.6,6.4,4.1,0.49,-0.1,-0.51,0.14,1.0,-0.08,-119.2,-32.6,-82.0,-1.27,0.99,0.0,0.0,1.012916580968048,0.7142828571371428,0.0,0.0,2.0,0.45,0.6,1.2,100.0,1.0,0.18,0.02474640723400645,0.2,1.0,-160.0,0,1,0,calibrating,0,0,0,0,0,0.0
4.492564554000637,450,18.13,90.7,6.3,4.1,0.47,-0.21,-0.44,0.14,0.98,-0.09,-119.6,-39.5,-66.0,-1.26,1.14,0.04,0.0,0.9940321926376429,0.6772001181334805,0.0,0.0,2.0,0.45,0.6,1.2,100.0,1.0,0.18,0.005744778525529237,0.2,1.0,-160.0,0,1,0,calibrating,0,0,0,0,0,0.0
4.504487738000535,451,18.14,90.8,6.3,4.2,0.44,-0.29,-0.44,0.15,0.97,-0.12,-120.1,-47.8,-91.0,-1.25,1.44,0.01,0.0,0.9888377015466188,0.686512927773396,0.0,0.0,2.0,0.45,0.6,1.2,100.0,1.0,0.18,0.000539281685815185,0.2,1.0,-160.0,0,1,0,calibrating,0,0,0,0,0,0.0
4.512421176999851,452,18.15,90.8,6.3,4.2,0.51,-0.3,-0.46,0.17,0.95,-0.14,-120.6,-58.7,-107.0,-1.23,1.75,0.02,0.0,0.9751922887307918,0.7494664769020694,0.0,0.0,2.0,0.45,0.6,1.2,100.0,1.0,0.18,0.01284400850741163,0.2,1.0,-160.0,0,1,0,calibrating,0,0,0,0,0,0.0
4.523698400000285,453,18.16,90.9,6.2,4.2,0.64,-0.13,-0.43,0.2,0.96,-0.17,-121.3,-71.4,-123.0,-1.21,2.11,0.03,0.0,0.995238664843765,0.7819207120929845,0.0,0.0,2.0,0.45,0.6,1.2,100.0,1.0,0.18,0.007058320253450323,0.2,1.0,-160.0,0,1,0,calibrating,0,0,0,0,0,0.0
4.532676980999895,454,18.17,90.9,6.2,4.2,0.85,0.2,-0.26,0.21,1.0,-0.16,-122.0,-81.4,-102.0,-1.19,2.34,0.13,0.0,1.0342630226397926,0.9110982383914481,0.0,0.0,2.0,0.45,0.6,1.2,100.0,1.0,0.18,0.045161024488488355,0.2,1.0,-160.0,0,1,0,calibrating,0,0,0,0,0,0.0
4.543636772001264,455,18.18,91.0,6.2,4.2,1.1,0.58,0.03,0.22,1.03,-0.14,-123.0,-92.6,-107.0,-1.16,2.64,0.17,0.0,1.0624970588194587,1.2439051410778879,0.0,0.0,2.0,0.45,0.6,1.2,100.0,1.0,0.18,0.07192715945479133,0.2,1.0,-160.0,0,1,0,calibrating,0,0,0,0,0,0.0
4.552468703999693,456,18.19,91.2,6.2,4.1,1.43,0.83,0.31,0.21,1.02,-0.13,-124.0,-103.5,-115.0,-1.13,2.96,0.03,0.0,1.0494760597555335,1.6822306619485925,0.0,0.0,2.0,0.45,0.6,1.2,100.0,1.0,0.18,0.057728037183048864,0.2,1.0,-160.0,0,1,0,calibrating,0,0,0,0,0,0.0
4.563755809000213,457,18.2,91.3,6.2,4.0,1.72,1.01,0.46,0.21,1.02,-0.14,-125.1,-113.9,-96.0,-1.1,3.19,-0.06,0.0,1.0507616285342742,2.0469733754985673,0.0,0.0,2.0,0.45,0.6,1.2,100.0,1.0,0.18,0.05783333384255385,0.2,1.0,-160.0,0,1,0,calibrating,0,0,0,0,0,0.0
4.571939003000807,458,18.21,91.5,6.3,3.9,1.76,1.2,0.57,0.21,1.03,-0.15,-126.3,-123.2,-101.0,-1.07,3.48,-0.23,0.0,1.061838029079765,2.2051077071199945,0.0,0.0,2.0,0.45,0.6,1.2,100.0,1.0,0.18,0.0675315397002838,0.2,1.0,-160.0,0,1,0,calibrating,0,0,0,0,0,0.0
4.583481642999686,459,18.22,91.6,6.4,3.8,1.68,1.44,0.74,0.2,1.07,-0.12,-127.6,-134.5,-113.0,-1.03,3.8,0.14,0.0,1.0951255635770722,2.3331523739353157,0.0,0.0,2.0,0.45,0.6,1.2,100.0,1.0,0.18,0.09880269271363917,0.2,1.0,-160.0,0,1,0,calibrating,0,0,0,0,0,0.0
4.592547009000555,460,18.23,91.8,6.5,3.6,1.6,1.65,1.04,0.19,1.12,-0.09,-129.0,-145.0,-102.0,-0.99,4.05,-0.37,0.0,1.1395613191048564,2.522716789495008,0.0,0.0,2.0,0.45,0.6,1.2,100.0,1.0,0.18,0.14037367927659483,0.2,1.0,-160.0,0,1,0,calibrating,0,0,0,0,0,0.0
4.603401161000875,461,18.24,92.0,6.6,3.4,1.56,1.74,1.4,0.17,1.15,-0.05,-130.5,-154.5,-103.0,-0.95,4.34,0.03,0.0,1.1635720862928947,2.7241879523997605,0.0,0.0,2.0,0.45,0.6,1.2,100.0,1.0,0.18,0.16109675753534058,0.2,1.0,-160.0,0,1,0,calibrating,0,0,0,0,0,0.0
4.612403742999959,462,18.25,92.1,6.8,3.3,1.47,1.76,1.71,0.15,1.17,-0.03,-132.2,-166.1,-113.0,-0.9,4.66,0.1,0.0,1.179957626357828,2.8605244274433312,0.0,0.0,2.0,0.45,0.6,1.2,100.0,1.0,0.18,0.17393265164826843,0.2,1.0,-160.0,0,1,0,calibrating,0,0,0,0,0,0.0
4.623100005999731,463,18.26,92.2,7.0,3.1,1.14,1.73,1.86,0.13,1.16,-0.01,-133.9,-178.5,-116.0,-0.85,4.98,0.1,0.0,1.1673045875006232,2.7842593270024256,0.0,0.0,2.0,0.45,0.6,1.2,100.0,1.0,0.18,0.1580540205352421,0.2,1.0,-160.0,0,1,0,calibrating,0,0,0,0,0,0.0
4.636380711999664,464,18.27,92.2,7.2,2.9,0.74,1.73,1.79,0.12,1.11,0.0,-135.8,-190.1,-110.0,-0.8,5.28,0.18,0.0,1.1164676439557037,2.597036772939498,0.0,0.0,2.0,0.45,0.6,1.2,100.0,1.0,0.18,0.10507273545051632,0.2,1.0,-160.0,0,1,0,calibrating,0,0,0,0,0,0.0
4.6486925709996285,465,18.28,92.3,7.4,2.8,0.45,1.61,1.72,0.12,1.05,0.0,-137.8,-200.1,-102.0,-0.75,5.56,0.05,0.0,1.0568348972285122,2.398541223327212,0.0,0.0,2.0,0.45,0.6,1.2,100.0,1.0,0.18,0.044531188948858214,0.2,1.0,-160.0,0,1,0,calibrating,0,0,0,0,0,0.0
4.656626859001335,466,18.29,92.2,7.5,2.6,0.44,1.57,1.59,0.14,0.99,0.01,-139.8,-209.5,-97.0,-0.69,5.81,0.28,0.0,0.9998999949994999,2.277410810547803,0.0,0.0,2.0,0.45,0.6,1.2,100.0,1.0,0.18,0.012155639014550967,0.2,1.0,-160.0,0,1,0,calibrating,0,0,0,0,0,0.0
4.664309894000326,467,18.3,92.2,7.7,2.4,0.62,1.57,1.49,0.17,0.94,0.01,-142.0,-219.2,-99.0,-0.63,6.08,0.05,0.0,0.9553009996854395,2.2515328112199477,0.0,0.0,2.0,0.45,0.6,1.2,100.0,1.0,0.18,0.055619541642039194,0.2,1.0,-160.0,0,1,0,calibrating,0,0,0,0,0,0.0
