host_time_s,seq,device_time_s,roll,pitch,yaw,gyro_x,gyro_y,gyro_z,accel_x,accel_y,accel_z,motor_pos,motor_vel,motor_iq_meas,motor_iq_set,acc_mag,gyro_mag,acc_residual,threshold,heel_strike,hs_count,torque_cmd_nm
2.0650364960001752,1,623.27,-101.7,0.4,-61.8,-0.01,-0.23,0.08,0.01,-0.97,-0.2,-2.12,-0.01,0.11,0.0,0.9904544411531506,0.24372115213907883,0.0,0.28,0,0,0.0
2.0736629480002193,2,623.28,-101.7,0.4,-61.8,0.0,-0.17,0.07,0.01,-0.98,-0.21,-2.12,0.0,0.03,0.0,1.002297361066066,0.18384776310850237,0.01160606151465704,0.28,0,0,0.0
2.081476194000061,3,623.29,-101.7,0.4,-61.9,0.03,-0.15,0.06,0.01,-0.98,-0.2,-2.12,0.0,0.03,0.0,1.0002499687578101,0.16431676725154984,0.009367495822273253,0.28,0,0,0.0
2.089578501000233,4,623.3,-101.7,0.3,-61.9,0.04,-0.13,0.06,0.0,-0.99,-0.2,-2.12,-0.01,0.03,0.0,1.01,0.14866068747318506,0.018735176523173913,0.28,0,0,0.0
2.1009503270001915,5,623.31,-101.7,0.3,-61.9,0.08,-0.14,0.03,0.01,-0.99,-0.2,-2.12,0.0,-0.04,0.0,1.0100495037373167,0.16401219466856726,0.01840898665528079,0.28,0,0,0.0
2.1095889470002476,6,623.32,-101.7,0.3,-61.9,0.11,-0.14,0.03,0.0,-0.99,-0.2,-2.12,0.0,0.11,0.0,1.01,0.18055470085267789,0.01799229325960483,0.28,0,0,0.0
2.1210046060000423,7,623.33,-101.7,0.3,-61.9,0.17,-0.13,0.03,0.0,-0.99,-0.2,-2.12,0.0,-0.2,0.0,1.01,0.2161018278497431,0.01763244739441272,0.28,0,0,0.0
2.1295214179999675,8,623.34,-101.7,0.3,-61.9,0.18,-0.14,0.06,0.0,-0.97,-0.2,-2.12,-0.01,0.03,0.0,0.9904039579888602,0.23579652245103191,0.0019243227243925798,0.28,0,0,0.0
2.1407810519999657,9,623.35,-101.7,0.3,-61.9,0.14,-0.13,0.08,0.0,-0.98,-0.2,-2.12,-0.01,0.03,0.0,1.000199980003999,0.20712315177207982,0.007714265304931245,0.28,0,0,0.0
2.149491885000316,10,623.36,-101.7,0.3,-61.9,0.13,-0.12,0.08,0.0,-0.97,-0.2,-2.12,0.02,0.03,0.0,0.9904039579888602,0.194164878389476,0.0020401215760033065,0.28,0,0,0.0
2.160769893000179,11,623.37,-101.6,0.3,-62.0,0.13,-0.13,0.09,0.0,-0.97,-0.2,-2.12,-0.03,0.03,0.0,0.9904039579888602,0.20469489490458723,0.001999319144483258,0.28,0,0,0.0
2.1694257310000467,12,623.38,-101.6,0.3,-62.0,0.11,-0.1,0.1,0.0,-0.97,-0.2,-2.12,0.0,0.1,0.0,0.9904039579888602,0.17916472867168917,0.0019593327615935463,0.28,0,0,0.0
2.1807917300002373,13,623.39,-101.6,0.3,-62.0,0.12,-0.06,0.09,0.0,-0.97,-0.2,-2.12,0.0,0.03,0.0,0.9904039579888602,0.16155494421403513,0.0019201461063617087,0.28,0,0,0.0
2.189388768000299,14,623.4,-101.6,0.3,-62.0,0.1,-0.02,0.09,0.0,-0.97,-0.2,-2.12,-0.01,0.03,0.0,0.9904039579888602,0.13601470508735444,0.0018817431842345078,0.28,0,0,0.0
2.200774563000323,15,623.41,-101.6,0.3,-62.0,0.09,0.01,0.09,0.0,-0.97,-0.2,-2.12,0.0,-0.04,0.0,0.9904039579888602,0.12767145334803703,0.0018441083205498199,0.28,0,0,0.0
2.2094528830002673,16,623.42,-101.6,0.3,-62.0,0.07,0.02,0.09,0.0,-0.97,-0.19,-2.12,-0.01,0.02,0.0,0.9884331034521254,0.11575836902790225,0.0037386636001388585,0.28,0,0,0.0
2.220786452000084,17,623.43,-101.6,0.2,-62.0,0.05,0.02,0.09,0.0,-0.97,-0.19,-2.12,0.0,0.03,0.0,0.9884331034521254,0.10488088481701516,0.003663890328136077,0.28,0,0,0.0
2.2295041060001495,18,623.44,-101.6,0.2,-62.0,0.04,0.02,0.09,0.0,-0.97,-0.19,-2.12,0.0,0.02,0.0,0.9884331034521254,0.1004987562112089,0.003590612521573333,0.28,0,0,0.0
2.2409009930001957,19,623.45,-101.6,0.2,-62.0,0.04,0.0,0.09,0.0,-0.98,-0.19,-2.12,0.0,-0.2,0.0,0.9982484660644363,0.09848857801796104,0.006100255088922757,0.28,0,0,0.0
2.2495121840001957,20,623.46,-101.6,0.2,-62.0,0.09,0.0,0.08,0.0,-0.99,-0.19,-2.12,0.01,0.1,0.0,1.0080674580602234,0.12041594578792295,0.015600862143015592,0.28,0,0,0.0
2.2607510730003924,21,623.47,-101.5,0.2,-62.0,0.12,-0.01,0.07,0.0,-0.97,-0.19,-2.12,-0.02,-0.21,0.0,0.9884331034521254,0.1392838827718412,0.003952822615780671,0.28,0,0,0.0
2.2694844040001954,22,623.48,-101.5,0.2,-62.0,0.08,0.0,0.11,0.0,-0.97,-0.19,-2.12,0.0,-0.04,0.0,0.9884331034521254,0.13601470508735444,0.00387376616346502,0.28,0,0,0.0
2.2814203840002847,23,623.49,-101.5,0.2,-62.0,0.11,-0.01,0.11,0.0,-0.97,-0.19,-2.12,0.0,0.1,0.0,0.9884331034521254,0.15588457268119896,0.0037962908401957263,0.28,0,0,0.0
2.289499474999957,24,623.5,-101.5,0.2,-62.0,0.06,0.0,0.11,0.0,-0.97,-0.19,-2.12,-0.01,-0.12,0.0,0.9884331034521254,0.12529964086141668,0.0037203650233917918,0.28,0,0,0.0
2.3008294100000057,25,623.51,-101.5,0.1,-62.0,0.08,-0.02,0.1,0.0,-0.97,-0.19,-2.12,0.0,0.03,0.0,0.9884331034521254,0.12961481396815722,0.003645957722923976,0.28,0,0,0.0
2.3094453680000697,26,623.52,-101.5,0.1,-62.0,0.07,-0.02,0.11,0.0,-0.97,-0.19,-2.12,-0.01,0.02,0.0,0.9884331034521254,0.1319090595827292,0.0035730385684654697,0.28,0,0,0.0
2.3208351510002103,27,623.53,-101.5,0.1,-62.0,0.09,-0.02,0.08,0.0,-0.98,-0.2,-2.12,-0.01,0.03,0.0,1.000199980003999,0.12206555615733702,0.00802996122373989,0.28,0,0,0.0
2.329516338000303,28,623.54,-101.5,0.1,-62.0,0.08,-0.02,0.07,0.0,-0.98,-0.2,-2.12,0.0,-0.12,0.0,1.000199980003999,0.10816653826391968,0.007869361999265134,0.28,0,0,0.0
2.3407952110001133,29,623.55,-101.5,0.1,-62.0,0.02,-0.02,0.08,0.0,-0.97,-0.2,-2.12,0.0,0.02,0.0,0.9904039579888602,0.08485281374238571,0.0018881268155561681,0.28,0,0,0.0
2.3494244580001578,30,623.56,-101.5,0.1,-62.0,0.04,-0.03,0.09,0.0,-0.97,-0.19,-2.12,-0.02,0.09,0.0,0.9884331034521254,0.10295630140987,0.0037818017252451153,0.28,0,0,0.0
2.3606564450001315,31,623.57,-101.5,0.1,-62.0,0.07,-0.05,0.09,0.0,-0.97,-0.19,-2.12,-0.02,-0.05,0.0,0.9884331034521254,0.12449899597988733,0.0037061656907402263,0.28,0,0,0.0
2.3694381300001623,32,623.58,-101.5,0.1,-62.0,0.06,-0.05,0.11,0.0,-0.97,-0.19,-2.12,0.0,0.02,0.0,0.9884331034521254,0.13490737563232041,0.003632042376925382,0.28,0,0,0.0
2.3806743930003904,33,623.59,-101.5,0.1,-62.0,0.04,-0.05,0.09,0.0,-0.97,-0.19,-2.12,-0.03,-0.04,0.0,0.9884331034521254,0.11045361017187261,0.0035594015293868297,0.28,0,0,0.0
2.389488535000055,34,623.6,-101.5,0.0,-62.0,0.0,-0.05,0.07,0.0,-0.97,-0.2,-2.12,0.01,0.01,0.0,0.9904039579888602,0.08602325267042628,0.0015567760527990249,0.28,0,0,0.0
2.400867875000131,35,623.61,-101.5,0.0,-62.0,-0.02,-0.05,0.04,0.0,-0.97,-0.2,-2.12,0.0,0.1,0.0,0.9904039579888602,0.0670820393249937,0.0015256405317430888,0.28,0,0,0.0
2.4093552270001055,36,623.62,-101.5,0.0,-62.0,-0.03,-0.05,0.04,0.0,-0.98,-0.2,-2.12,0.0,-0.05,0.0,1.000199980003999,0.07071067811865475,0.00810497385372777,0.28,0,0,0.0
2.420837493000363,37,623.63,-101.5,0.0,-62.0,0.0,-0.06,0.04,0.0,-0.98,-0.2,-2.12,0.0,0.16,0.0,1.000199980003999,0.07211102550927978,0.007942874376653197,0.28,0,0,0.0
2.429472342000281,38,623.64,-101.5,0.0,-62.0,0.01,-0.06,0.04,0.0,-0.98,-0.2,-2.12,0.0,0.09,0.0,1.000199980003999,0.07280109889280519,0.007784016889120116,0.28,0,0,0.0
2.4408772580000004,39,623.65,-101.5,0.0,-62.0,0.04,-0.08,0.03,0.0,-0.98,-0.2,-2.12,0.01,0.02,0.0,1.000199980003999,0.09433981132056604,0.0076283365513377666,0.28,0,0,0.0
2.449457048000113,40,623.66,-101.5,0.0,-62.0,0.07,-0.08,0.0,0.0,-0.98,-0.2,-2.12,-0.01,0.01,0.0,1.000199980003999,0.1063014581273465,0.007475769820311062,0.28,0,0,0.0
2.4607468700000936,41,623.67,-101.4,0.0,-62.0,0.08,-0.08,-0.01,0.0,-0.97,-0.2,-2.12,0.0,-0.19,0.0,0.9904039579888602,0.11357816691600547,0.002273847150931152,0.28,0,0,0.0
2.4693733120002435,42,623.68,-101.4,0.0,-62.0,0.04,-0.06,-0.02,0.0,-0.97,-0.2,-2.12,-0.01,0.09,0.0,0.9904039579888602,0.07483314773547883,0.0022283702079125556,0.28,0,0,0.0
2.4808505170003627,43,623.69,-101.4,0.0,-62.0,0.01,-0.04,-0.02,0.01,-0.97,-0.2,-2.13,-0.02,0.01,0.0,0.9904544411531506,0.045825756949558406,0.0021343293027497046,0.28,0,0,0.0
2.4894778630000474,44,623.7,-101.5,0.0,-62.0,-0.01,0.0,-0.04,0.01,-0.97,-0.2,-2.12,0.0,0.17,0.0,0.9904544411531506,0.04123105625617661,0.0020916427166947082,0.28,0,0,0.0
2.5007311370000025,45,623.71,-101.5,0.0,-62.0,-0.01,0.02,-0.04,0.01,-0.97,-0.2,-2.12,0.0,0.17,0.0,0.9904544411531506,0.045825756949558406,0.0020498098623608074,0.28,0,0,0.0
2.509298838000177,46,623.72,-101.5,0.0,-62.0,-0.01,0.03,-0.04,0.0,-0.97,-0.2,-2.13,-0.01,0.09,0.0,0.9904039579888602,0.05099019513592785,0.0020582871661182223,0.28,0,0,0.0
2.52085947400019,47,623.73,-101.5,0.0,-62.0,0.0,0.02,-0.04,0.0,-0.98,-0.21,-2.13,0.0,0.01,0.0,1.0022474744293446,0.044721359549995794,0.009589524688878859,0.28,0,0,0.0
2.5294660330000625,48,623.74,-101.5,0.1,-62.0,0.03,0.02,-0.06,0.0,-0.98,-0.21,-2.13,-0.03,0.01,0.0,1.0022474744293446,0.06999999999999999,0.00939773419510126,0.28,0,0,0.0
2.540715583000292,49,623.75,-101.5,0.1,-62.0,0.09,0.02,-0.06,0.01,-0.98,-0.21,-2.13,0.01,0.1,0.0,1.002297361066066,0.11,0.009258668415186189,0.28,0,0,0.0
2.549398222000036,50,623.76,-101.5,0.1,-62.0,0.12,0.02,-0.08,0.01,-0.98,-0.22,-2.13,0.0,0.01,0.0,1.0044401425669924,0.14560219778561037,0.011173420917790389,0.28,0,0,0.0
2.560618548000093,51,623.77,-101.5,0.1,-62.0,0.13,0.03,-0.08,0.01,-0.98,-0.23,-2.13,0.0,0.03,0.0,1.006677704133751,0.15556349186104046,0.013142762834857935,0.28,0,0,0.0
2.5694034680000186,52,623.78,-101.5,0.1,-62.0,0.2,0.09,-0.09,0.01,-0.98,-0.23,-2.13,0.01,0.0,0.0,1.006677704133751,0.23706539182259395,0.01287990757816082,0.28,0,0,0.0
2.581548213000133,53,623.79,-101.5,0.1,-62.0,0.27,0.15,-0.11,0.01,-0.98,-0.21,-2.13,0.0,0.0,0.0,1.002297361066066,0.32787192621510003,0.008329573220266284,0.28,0,0,0.0
2.5894683710002937,54,623.8,-101.4,0.2,-62.0,0.35,0.18,-0.13,0.01,-0.98,-0.19,-2.13,0.0,-0.11,0.0,0.9982985525382675,0.4144876355212541,0.004244149398618502,0.28,0,0,0.0
2.6007691449999584,55,623.81,-101.4,0.2,-62.0,0.36,0.15,-0.12,0.01,-0.98,-0.18,-2.13,-0.01,0.16,0.0,0.9964436762808021,0.4080441152620633,0.0023414876783300898,0.28,0,0,0.0
2.6094705410000643,56,623.82,-101.4,0.2,-62.0,0.32,0.11,-0.12,0.01,-0.97,-0.18,-2.13,0.0,-0.12,0.0,0.986610358753647,0.35902646142032485,0.007341993251848478,0.28,0,0,0.0
2.6208586990001095,57,623.83,-101.3,0.2,-62.0,0.26,0.08,-0.11,0.01,-0.97,-0.18,-2.13,0.0,-0.04,0.0,0.986610358753647,0.2934280150224242,0.007195153386811537,0.28,0,0,0.0
2.629383310000321,58,623.84,-101.3,0.2,-62.0,0.25,0.05,-0.09,0.01,-0.96,-0.19,-2.13,0.0,-0.02,0.0,0.9786725703727472,0.27037011669191546,0.014830282932357108,0.28,0,0,0.0
2.6408178510000653,59,623.85,-101.3,0.2,-62.0,0.18,0.02,-0.08,0.01,-0.97,-0.19,-2.13,-0.01,0.01,0.0,0.9884836872705588,0.1979898987322333,0.004918782713854597,0.28,0,0,0.0
2.649503021000328,60,623.86,-101.3,0.3,-62.0,0.12,0.01,-0.08,0.01,-0.96,-0.19,-2.13,-0.01,0.15,0.0,0.9786725703727472,0.1445683229480096,0.01443530161943285,0.28,0,0,0.0
2.660801986000024,61,623.87,-101.3,0.3,-62.0,0.04,0.0,-0.08,0.01,-0.97,-0.19,-2.13,0.0,0.1,0.0,0.9884836872705588,0.08944271909999159,0.004531701027188917,0.28,0,0,0.0
2.669442564000292,62,623.88,-101.2,0.3,-62.0,0.0,-0.02,-0.08,0.0,-0.98,-0.18,-2.13,0.0,0.01,0.0,0.996393496566492,0.08246211251235322,0.0033105461033694494,0.28,0,0,0.0
2.6808629710003515,63,623.89,-101.2,0.3,-62.0,0.12,-0.11,-0.09,0.0,-0.99,-0.18,-2.13,-0.01,0.0,0.0,1.0062305898749053,0.18601075237738274,0.012884686623547137,0.28,0,0,0.0
2.6893748270003925,64,623.9,-101.2,0.3,-62.0,0.23,-0.2,-0.05,0.01,-0.99,-0.18,-2.13,0.01,-0.05,0.0,1.0062802790475425,0.30886890422961005,0.012675688280260555,0.28,0,0,0.0
2.7007246680000208,65,623.91,-101.2,0.3,-62.0,0.25,-0.29,0.0,0.01,-0.99,-0.18,-2.13,0.0,0.17,0.0,1.0062802790475425,0.38288379438153297,0.012422174514655326,0.28,0,0,0.0
2.709473103000164,66,623.92,-101.1,0.3,-62.0,0.31,-0.35,0.05,0.01,-0.98,-0.17,-2.13,0.0,0.08,0.0,0.9946858800646564,0.4702127178203499,0.0008112200211338738,0.28,0,0,0.0
2.7209324570003446,67,623.93,-101.1,0.3,-62.1,0.37,-0.31,0.17,0.01,-0.97,-0.18,-2.13,0.0,-0.07,0.0,0.986610358753647,0.5117616632769594,0.007119015264077988,0.28,0,0,0.0
2.729699215999972,68,623.94,-101.1,0.3,-62.1,0.33,-0.27,0.28,0.02,-0.98,-0.17,-2.13,0.0,0.0,0.0,0.994836670011716,0.510098029794274,0.0010851500741112519,0.28,0,0,0.0
2.7408562450000318,69,623.95,-101.0,0.2,-62.1,0.33,-0.15,0.4,0.02,-0.96,-0.18,-2.13,-0.02,-0.1,0.0,0.976933979345585,0.5398147830506312,0.016481189780179428,0.28,0,0,0.0
2.74945703100002,70,623.96,-101.0,0.2,-62.1,0.34,0.0,0.52,0.03,-0.97,-0.18,-2.13,0.0,0.08,0.0,0.9870157040290696,0.6212889826803627,0.00627147579476095,0.28,0,0,0.0
2.760866721000184,71,623.97,-100.9,0.2,-62.1,0.39,0.2,0.64,0.04,-0.95,-0.17,-2.13,0.0,-0.19,0.0,0.96591925128346,0.7756932383358772,0.026820569969563057,0.28,0,0,0.0
2.7694236190000083,72,623.98,-100.9,0.1,-62.0,0.49,0.42,0.74,0.05,-0.96,-0.17,-2.13,-0.01,0.01,0.0,0.9762171889492625,0.9818859404228171,0.01619217965768538,0.28,0,0,0.0
2.7807632220001324,73,623.99,-100.8,0.1,-62.0,0.6,0.67,0.79,0.05,-0.96,-0.18,-2.13,-0.05,0.16,0.0,0.978008179924892,1.1970797801316335,0.014113164908414744,0.28,0,0,0.0
2.7894640640001853,74,624.0,-100.8,0.1,-61.9,0.73,0.98,0.76,0.04,-0.96,-0.18,-2.13,-0.12,0.01,0.0,0.977547952787995,1.4390621946253748,0.014281924204405438,0.28,0,0,0.0
2.8015078110001923,75,624.01,-100.7,0.0,-61.7,0.69,1.27,0.68,0.03,-0.95,-0.19,-2.13,-0.23,0.05,0.0,0.9692780818733084,1.5973102391207539,0.022100759216710175,0.28,0,0,0.0
2.80954644700023,76,624.02,-100.6,0.0,-61.6,0.56,1.55,0.56,0.02,-0.95,-0.18,-2.13,-0.21,0.0,0.0,0.9671090941563935,1.7406033436713835,0.023784351994952657,0.28,0,0,0.0
2.8208582520001073,77,624.03,-100.6,0.0,-61.4,0.34,1.79,0.38,0.01,-0.97,-0.18,-2.13,-0.23,0.0,0.0,0.986610358753647,1.861209284309532,0.0041974256497451234,0.28,0,0,0.0
2.8294460710003477,78,624.04,-100.6,0.0,-61.2,0.19,1.97,0.15,0.0,-0.99,-0.18,-2.14,-0.37,-0.03,0.0,1.0062305898749053,1.9848173719513842,0.01511434936208289,0.28,0,0,0.0
2.840809344000263,79,624.05,-100.5,0.1,-61.0,0.07,2.13,-0.02,-0.01,-1.0,-0.17,-2.14,-0.46,-0.07,0.0,1.0143963722332607,2.131243768319335,0.022814529086029545,0.28,0,0,0.0
2.8494397610002125,80,624.06,-100.5,0.1,-60.8,0.06,2.22,-0.14,-0.01,-1.04,-0.17,-2.15,-0.51,0.05,0.0,1.0538500842150178,2.225219090336949,0.06102287624643088,0.28,0,0,0.0
2.860552368000299,81,624.07,-100.5,0.2,-60.6,0.12,2.27,-0.2,0.0,-1.07,-0.16,-2.15,-0.6,-0.03,0.0,1.0818964830333815,2.2819509197176,0.08728788956349864,0.28,0,0,0.0
2.869425273000161,82,624.08,-100.5,0.2,-60.4,0.32,2.25,-0.24,-0.01,-1.1,-0.17,-2.16,-0.68,-0.1,0.0,1.1131037687475505,2.2852789764052877,0.11612527177211429,0.28,0,0,0.0
2.8808673260000432,83,624.09,-100.4,0.3,-60.2,0.68,2.19,-0.24,-0.01,-1.09,-0.16,-2.17,-0.8,-0.09,0.0,1.1017259187293362,2.3056669317141187,0.1026524733188221,0.28,0,0,0.0
2.889467906000391,84,624.1,-100.3,0.3,-59.9,1.16,2.04,-0.22,-0.02,-1.06,-0.16,-2.18,-0.86,-0.07,0.0,1.072194012294417,2.357032032026718,0.07165815554622479,0.28,0,0,0.0
2.900863995000236,85,624.11,-100.1,0.4,-59.8,1.48,1.86,-0.22,-0.02,-1.02,-0.16,-2.18,-0.86,-0.04,0.0,1.032666451474047,2.3871321706181248,0.03148798283133769,0.28,0,0,0.0
2.9095669000003,86,624.12,-100.0,0.4,-59.6,1.51,1.67,-0.27,-0.03,-0.98,-0.18,-2.19,-0.86,0.0,0.0,0.9968450230602548,2.2675757980715883,0.004246776670805419,0.28,0,0,0.0
2.9208709839999756,87,624.13,-99.9,0.4,-59.4,1.16,1.58,-0.28,-0.03,-0.97,-0.19,-2.2,-0.88,0.09,0.0,0.9888882646689665,1.98,0.011959464360851824,0.28,0,0,0.0
2.929368450000311,88,624.14,-99.8,0.5,-59.3,0.96,1.56,-0.33,-0.04,-0.97,-0.19,-2.21,-0.84,0.1,0.0,0.9892421341612982,1.861209284309532,0.011373482971149595,0.28,0,0,0.0
2.9407733500001996,89,624.15,-99.7,0.5,-59.1,0.89,1.48,-0.38,-0.05,-0.98,-0.18,-2.22,-0.67,-0.1,0.0,0.9976472322419382,1.768304272459918,0.0029090171926994257,0.28,0,0,0.0
2.9494470460003868,90,624.16,-99.6,0.5,-59.0,0.89,1.4,-0.42,-0.06,-0.99,-0.18,-2.22,-0.57,0.11,0.0,1.0080178569846865,1.711286066091815,0.007312375399047832,0.28,0,0,0.0
2.960775723000097,91,624.17,-99.5,0.5,-58.9,1.15,1.27,-0.51,-0.08,-1.0,-0.16,-2.23,-0.5,-0.09,0.0,1.0158740079360236,1.7875961512601215,0.014865155823377219,0.28,0,0,0.0
2.9694014930000776,92,624.18,-99.4,0.5,-58.8,1.4,1.13,-0.62,-0.09,-0.98,-0.16,-2.23,-0.46,-0.03,0.0,0.9970456358662826,1.9029713607934302,0.0038839519214365348,0.28,0,0,0.0
2.9807593010000346,93,624.19,-99.2,0.6,-58.7,1.41,0.81,-0.73,-0.1,-0.96,-0.13,-2.24,-0.39,0.0,0.0,0.973909646733207,1.7824421449236436,0.02647954223342197,0.28,0,0,0.0
2.989471065000089,94,624.2,-99.1,0.7,-58.6,1.23,0.47,-0.77,-0.1,-0.94,-0.13,-2.24,-0.32,0.0,0.0,0.95420123663722,1.525352418295523,0.04526419328282083,0.28,0,0,0.0
3.0008673870001985,95,624.21,-99.0,0.7,-58.6,1.05,0.16,-0.79,-0.1,-0.91,-0.14,-2.24,-0.37,0.0,0.0,0.9261209424259879,1.323706916201619,0.0718775977441719,0.28,0,0,0.0
3.0094454660002157,96,624.22,-98.9,0.7,-58.6,0.98,-0.06,-0.8,-0.09,-0.91,-0.14,-2.25,-0.41,-0.06,0.0,0.9250945897582582,1.2664912159190052,0.07144587140366354,0.28,0,0,0.0
3.020706617000087,97,624.23,-98.8,0.7,-58.7,0.7,-0.32,-0.84,-0.08,-0.91,-0.13,-2.25,-0.39,-0.12,0.0,0.9227133899537819,1.139298029490089,0.07235052978397705,0.28,0,0,0.0
3.0294071970001824,98,624.24,-98.7,0.8,-58.7,0.39,-0.52,-0.9,-0.07,-0.92,-0.13,-2.26,-0.47,-0.22,0.0,0.9317725044236925,1.110180165558726,0.062025587007785155,0.28,0,0,0.0
3.0407956740000373,99,624.25,-98.7,0.8,-58.8,0.36,-0.76,-1.02,-0.07,-0.93,-0.13,-2.26,-0.45,0.0,0.0,0.9416474924301557,1.3219682295728592,0.051107587021295586,0.28,0,0,0.0
3.0493747330001497,100,624.26,-98.7,0.8,-58.9,0.44,-1.04,-1.19,-0.08,-0.92,-0.14,-2.27,-0.51,0.02,0.0,0.9340235543068494,1.6405182108102305,0.05755689464170988,0.28,0,0,0.0
3.060739656000351,101,624.27,-98.6,0.9,-59.1,0.42,-1.38,-1.4,-0.09,-0.91,-0.14,-2.27,-0.57,0.1,0.0,0.9250945897582582,2.0101741218113416,0.065156142006495,0.28,0,0,0.0
3.0693696610001098,102,624.28,-98.6,1.0,-59.2,0.03,-1.71,-1.51,-0.1,-0.88,-0.17,-2.28,-0.47,0.06,0.0,0.9018314698434514,2.28146882512122,0.08665087668287574,0.28,0,0,0.0
3.080636983000204,103,624.29,-98.6,1.1,-59.4,-0.4,-2.03,-1.56,-0.12,-0.87,-0.18,-2.28,-0.34,0.16,0.0,0.8964931678490361,2.5912352266824406,0.0901493951037452,0.28,0,0,0.0
3.0894146190003084,104,624.3,-98.7,1.2,-59.7,-0.77,-2.4,-1.59,-0.13,-0.87,-0.18,-2.28,-0.07,0.06,0.0,0.897886407069402,2.9801006694405476,0.08698103276571167,0.28,0,0,0.0
3.1007769290004035,105,624.31,-98.8,1.4,-60.0,-1.04,-2.8,-1.63,-0.14,-0.88,-0.19,-2.28,0.08,0.03,0.0,0.9110982383914481,3.4027195006347495,0.07229381741479235,0.28,0,0,0.0
3.1094549270001153,106,624.32,-98.9,1.5,-60.3,-1.27,-3.19,-1.7,-0.13,-0.88,-0.21,-2.28,0.08,-0.07,0.0,0.9140021881811882,3.831318310973391,0.06800207027255123,0.28,0,0,0.0
3.120855751000363,107,624.33,-99.1,1.6,-60.7,-1.61,-3.62,-1.8,-0.13,-0.89,-0.21,-2.28,-0.01,-0.07,0.0,0.9236341266973628,4.351608897867546,0.05720272912124913,0.28,0,0,0.0
3.129387417000089,108,624.34,-99.3,1.7,-61.1,-1.83,-4.06,-1.97,-0.14,-0.89,-0.21,-2.28,0.04,-0.13,0.0,0.9250945897582582,4.869640643825784,0.054627420739146615,0.28,0,0,0.0
3.140689169000325,109,624.35,-99.5,1.9,-61.5,-1.95,-4.56,-2.2,-0.15,-0.87,-0.21,-2.28,0.14,0.1,0.0,0.9074690077352504,5.425504584828953,0.07080794270691126,0.28,0,0,0.0
3.1494081360001474,110,624.36,-99.7,2.0,-62.0,-2.1,-4.86,-2.43,-0.15,-0.87,-0.18,-2.28,0.22,-0.01,0.0,0.9009994450608724,5.825332608529748,0.0757319552736635,0.28,0,0,0.0
3.1606654420002087,111,624.37,-99.9,2.2,-62.6,-2.8,-5.42,-2.48,-0.1,-0.85,-0.1,-2.27,0.44,0.07,0.0,0.8616843969807043,6.585347371247776,0.11274606328675496,0.28,0,0,0.0
3.1693866960004016,112,624.38,-100.4,2.3,-63.2,-5.68,-5.69,-1.83,0.07,-0.98,-0.13,-2.27,0.82,0.03,0.0,0.9910600385445879,8.245447228622593,0.01629698671158608,0.28,0,0,0.0
3.1807618130001174,113,624.39,-101.2,2.3,-63.8,-9.39,-5.36,-0.8,0.42,-1.36,-0.39,-2.26,1.22,0.21,0.0,1.4758387445788244,10.841665001280939,0.4910541788909061,0.28,1,1,3.0
3.1894571960001485,114,624.4,-102.2,2.2,-64.2,-10.6,-3.78,0.39,0.84,-1.78,-0.6,-2.24,1.69,0.01,0.0,2.057668583615933,11.260572809586554,1.0514263375694544,0.28,0,1,3.0
3.200822160000371,115,624.41,-103.1,2.1,-64.4,-5.81,-1.84,1.98,1.09,-1.78,-0.59,-2.23,0.43,2.98,3.49,2.169008990299487,6.407971597939554,1.1395114093679484,0.28,0,1,3.0
3.2095529090001946,116,624.42,-103.2,1.8,-64.5,2.79,-0.73,3.43,0.98,-1.42,-0.42,-2.24,-2.38,3.22,3.49,1.775725203965974,4.481283298342117,0.7313030705737467,0.28,0,1,3.0
3.2208614139999554,117,624.43,-102.4,1.4,-64.4,12.14,0.95,4.52,0.54,-1.05,-0.66,-2.28,-3.63,3.22,3.49,1.3526640381114596,12.988937600897158,0.30207706662484757,0.28,0,1,3.0
3.229460601000028,118,624.44,-100.9,1.0,-64.1,15.42,3.21,4.07,0.2,-0.77,-0.47,-2.32,-4.19,3.5,3.49,0.9240129869217207,16.26792549773941,0.12404250487359347,0.28,0,1,3.0
3.240646563000155,119,624.45,-99.4,0.7,-63.6,13.44,4.14,2.9,-0.11,-0.6,-0.16,-2.36,-4.39,3.68,3.49,0.6306346010171024,14.359080750521601,0.4090724729626476,0.28,0,1,3.0
3.249390747000234,120,624.46,-98.4,0.6,-63.2,8.18,3.26,1.16,-0.38,-0.54,0.12,-2.4,-4.14,3.57,3.49,0.6711184694225008,8.881756583018925,0.36121683246610425,0.28,0,1,3.0
3.260618615000112,121,624.47,-97.9,0.6,-63.0,1.03,2.39,0.09,-0.48,-0.47,-0.05,-2.44,-3.63,3.58,3.49,0.6736467917239716,2.6040545309190435,0.35151473996134086,0.28,0,1,3.0
3.26923957300005,122,624.48,-98.3,0.6,-62.8,-7.1,1.79,-0.68,-0.49,-0.54,-0.18,-2.47,-2.63,3.84,3.49,0.751065909225016,7.3536725518614166,0.26861371001109036,0.28,0,1,3.0
3.280849436000153,123,624.49,-99.3,0.7,-62.7,-12.05,0.93,-1.05,-0.28,-0.81,-0.23,-2.49,-1.63,3.64,3.49,0.8873556220591607,12.131360187546985,0.1296775172334068,0.28,0,1,3.0
3.289399348000188,124,624.5,-100.5,0.9,-62.6,-11.75,0.75,-0.88,-0.07,-1.0,-0.15,-2.5,-0.74,3.74,3.49,1.0136074190730846,11.806752305354763,0.003357205815093245,0.28,0,1,3.0
3.300640055000258,125,624.51,-101.5,0.9,-62.5,-7.81,0.37,0.0,0.03,-1.22,0.05,-2.5,0.13,3.64,3.49,1.2213926477591062,7.8187594924003125,0.20033946241350975,0.28,0,1,3.0
3.309557235000284,126,624.52,-101.9,0.8,-62.5,-1.36,-0.22,1.03,0.14,-1.36,-0.04,-2.5,-0.04,3.49,3.49,1.3677719108096935,1.7201453426963667,0.3397843509548151,0.28,0,1,3.0
3.3208685690001403,127,624.53,-101.7,0.7,-62.5,4.34,-0.49,1.72,0.2,-1.31,-0.16,-2.5,0.0,3.22,3.49,1.3348033563038415,4.694049424537411,0.3006794805199837,0.28,0,1,3.0
3.32945268200001,128,624.54,-101.1,0.5,-62.5,7.41,0.16,2.02,0.18,-1.03,-0.17,-2.5,-0.02,3.52,3.49,1.0593394168065304,7.682063524861012,0.024711230202219214,0.28,0,1,3.0
3.34076898100011,129,624.55,-100.4,0.3,-62.4,6.7,0.31,2.08,0.12,-0.86,-0.01,-2.5,-0.02,3.45,3.49,0.8683893136145792,7.0222859525940695,0.1629140955299374,0.28,0,1,3.0
3.349410211000304,130,624.56,-99.8,0.1,-62.4,4.41,0.09,1.5,0.06,-0.81,-0.02,-2.5,0.0,3.74,3.49,0.8124653838779842,4.658991307139347,0.21446126476120175,0.28,0,1,3.0
3.3608682200001567,131,624.57,-99.5,0.0,-62.4,1.66,0.01,0.54,0.01,-0.79,-0.06,-2.5,-0.02,3.51,3.49,0.7923383115816123,1.7456517407547245,0.2298965703164222,0.28,0,1,0.0
3.3693127190003906,132,624.58,-99.5,0.0,-62.4,-0.87,0.31,-0.34,0.0,-0.78,-0.09,-2.5,-0.06,3.72,3.49,0.7851751396981441,0.9841747812253675,0.23231854735589264,0.28,0,1,0.0
3.3808631500000956,133,624.59,-99.6,0.1,-62.3,-2.38,0.51,-0.77,0.0,-0.86,-0.13,-2.5,1.27,0.58,0.0,0.8697700845625814,2.5529198969023685,0.1447691304416262,0.28,0,1,0.0
3.3891454110002996,134,624.6,-99.9,0.2,-62.3,-2.68,0.84,-0.92,0.0,-0.98,-0.18,-2.47,3.22,0.06,0.0,0.996393496566492,2.9554018339305403,0.017782804068961378,0.28,0,1,0.0
3.400909902999956,135,624.61,-100.1,0.3,-62.2,-2.09,0.97,-0.84,-0.02,-1.04,-0.14,-2.43,4.32,0.29,0.0,1.049571341072154,2.45246814454337,0.03468713962796666,0.28,0,1,0.0
3.4094252419999975,136,624.62,-100.2,0.4,-62.1,-1.04,0.8,-0.62,0.0,-1.05,-0.15,-2.38,5.05,0.05,0.0,1.0606601717798212,1.451206394693739,0.04486045092892099,0.28,0,1,0.0
3.420666810000057,137,624.63,-100.3,0.4,-62.1,-0.3,0.68,-0.36,0.06,-1.02,-0.16,-2.33,5.39,0.0,0.0,1.0342146779078316,0.8258329128825033,0.01804665791579274,0.28,0,1,0.0
3.429496706000009,138,624.64,-100.3,0.5,-62.0,-0.47,0.55,-0.01,0.1,-0.96,-0.16,-2.27,5.39,-0.03,0.0,0.9783659846908006,0.7235329985563893,0.037045994595213516,0.28,0,1,0.0
3.4407006910000746,139,624.65,-100.4,0.6,-61.9,-1.12,0.51,0.24,0.12,-0.94,-0.18,-2.22,5.17,-0.17,0.0,0.9645724441429995,1.2538341198101128,0.04982274444015444,0.28,0,1,0.0
3.4494613960000606,140,624.66,-100.5,0.6,-61.9,-1.7,0.64,0.33,0.13,-0.97,-0.19,-2.17,4.76,0.0,0.0,0.9969453345093702,1.846212338816963,0.017100856992308122,0.28,0,1,0.0
3.4609373170001163,141,624.67,-100.7,0.6,-61.8,-1.99,0.75,0.37,0.1,-0.99,-0.18,-2.13,4.11,-0.12,0.0,1.0111874208078342,2.158587501121972,0.0028015952799671506,0.28,0,1,0.0
3.4694303020000916,142,624.68,-100.9,0.6,-61.7,-1.71,0.71,0.33,0.07,-1.02,-0.18,-2.09,3.33,-0.06,0.0,1.038123306741545,1.8807179480187877,0.02365160484066875,0.28,0,1,0.0
3.480866810000407,143,624.69,-101.0,0.6,-61.7,-0.97,0.66,0.23,0.05,-1.03,-0.2,-2.07,2.51,0.01,0.0,1.0504284840006957,1.1955751753863075,0.03523764645782301,0.28,0,1,0.0
3.4894516560002558,144,624.7,-101.1,0.6,-61.6,-0.18,0.49,0.06,0.03,-1.02,-0.18,-2.05,1.65,-0.06,0.0,1.0361949623502325,0.525452186216786,0.02058404231121269,0.28,0,1,0.0
3.5007686290000493,145,624.71,-101.1,0.6,-61.6,0.35,0.33,-0.08,0.01,-0.96,-0.19,-2.04,0.79,-0.18,0.0,0.9786725703727472,0.48764741360946434,0.036199582672947095,0.28,0,1,0.0
3.5096770840000318,146,624.72,-101.0,0.7,-61.5,0.36,0.27,-0.12,0.01,-0.92,-0.19,-2.03,0.0,-0.07,0.0,0.9394679345246436,0.4657252408878007,0.07389613415062979,0.28,0,1,0.0
3.5208257850003974,147,624.73,-101.0,0.7,-61.5,0.05,0.3,-0.07,0.02,-0.89,-0.19,-2.04,-0.35,0.02,0.0,0.910274683818022,0.3120897306865447,0.10102759716010645,0.28,0,1,0.0
3.5294684469999993,148,624.74,-101.0,0.7,-61.5,-0.37,0.46,0.01,0.03,-0.91,-0.19,-2.04,-0.54,-0.21,0.0,0.9301075206662938,0.5904235767650204,0.07957086510559808,0.28,0,1,0.0
3.5408043150000594,149,624.75,-101.1,0.7,-61.4,-0.62,0.52,0.09,0.04,-0.94,-0.19,-2.05,-0.68,0.21,0.0,0.9598437372822725,0.8141867107733951,0.04883795551982695,0.28,0,1,0.0
3.5494491750000634,150,624.76,-101.2,0.7,-61.4,-0.73,0.57,0.13,0.04,-0.98,-0.2,-2.06,-0.73,-0.14,0.0,1.000999500499376,0.9352539762011172,0.007528548456668949,0.28,0,1,0.0
3.5608133990003807,151,624.77,-101.3,0.8,-61.3,-0.61,0.56,0.18,0.04,-1.01,-0.2,-2.06,-0.77,0.0,0.0,1.030388276330821,0.8474078120952154,0.02142302282728048,0.28,0,1,0.0
3.569402007000008,152,624.78,-101.3,0.8,-61.2,-0.38,0.39,0.19,0.04,-1.01,-0.18,-2.07,-0.67,-0.06,0.0,1.0266937225872184,0.5767148342118485,0.017373899702004314,0.28,0,1,0.0
3.5808110730004046,153,624.79,-101.3,0.8,-61.2,-0.1,0.27,0.21,0.03,-1.01,-0.17,-2.08,-0.49,-0.03,0.0,1.0246462804304712,0.3563705936241092,0.015019928394351956,0.28,0,1,0.0
3.5894013160000213,154,624.8,-101.3,0.8,-61.2,0.11,0.11,0.18,0.03,-1.02,-0.17,-2.08,-0.31,-0.12,0.0,1.0345047124107265,0.23790754506740638,0.024380793167115167,0.28,0,1,0.0
3.600801452000269,155,624.81,-101.3,0.8,-61.2,0.24,0.06,0.12,0.04,-1.0,-0.18,-2.08,-0.12,-0.07,0.0,1.0168579055108928,0.2749545416973504,0.0065993065419358565,0.28,0,1,0.0
3.6094599240000207,156,624.82,-101.2,0.8,-61.2,0.24,0.1,0.08,0.05,-1.0,-0.19,-2.08,0.05,0.01,0.0,1.0191172650877818,0.2720294101747089,0.008681492796448254,0.28,0,1,0.0
3.6207301640001788,157,624.83,-101.2,0.8,-61.1,0.17,0.15,0.04,0.06,-0.98,-0.19,-2.08,0.0,0.05,0.0,1.0000499987500624,0.23021728866442676,0.010178058070445806,0.28,0,1,0.0
3.629440423000233,158,624.84,-101.2,0.8,-61.1,0.04,0.22,0.03,0.07,-0.97,-0.19,-2.08,-0.03,-0.03,0.0,0.9909086738948246,0.22561028345356954,0.01893299526716985,0.28,0,1,0.0
3.6407981850002216,159,624.85,-101.2,0.9,-61.1,-0.07,0.31,0.03,0.07,-0.96,-0.2,-2.08,0.0,0.05,0.0,0.9831073186585481,0.31921779399024736,0.026199663493377545,0.28,0,1,0.0
3.6494264370003293,160,624.86,-101.2,0.9,-61.1,-0.1,0.37,0.04,0.07,-0.96,-0.19,-2.08,0.02,0.0,0.0,0.9811218069128828,0.38535697735995383,0.027621471734261882,0.28,0,1,0.0
3.660760071000368,161,624.87,-101.2,0.9,-61.0,-0.09,0.36,0.06,0.06,-0.97,-0.19,-2.08,-0.01,-0.03,0.0,0.9902524930541705,0.37589892258425,0.018120969881114668,0.28,0,1,0.0
3.66939903399998,162,624.88,-101.2,1.0,-61.0,-0.02,0.31,0.09,0.05,-0.97,-0.18,-2.08,0.0,0.0,0.0,0.9878258955909184,0.3234192325759246,0.020136615997479512,0.28,0,1,0.0
3.6808190420001665,163,624.89,-101.2,1.0,-61.0,0.0,0.21,0.13,0.03,-0.97,-0.18,-2.08,0.0,-0.04,0.0,0.9870157040290696,0.2469817807045694,0.020527871408141718,0.28,0,1,0.0
3.6893086420000145,164,624.9,-101.2,1.0,-60.9,0.01,0.08,0.19,0.01,-0.97,-0.18,-2.08,0.01,0.19,0.0,0.986610358753647,0.20639767440550294,0.020514552349893078,0.28,0,1,0.0
3.7008345560002454,165,624.91,-101.2,0.9,-60.9,0.07,-0.01,0.25,0.01,-0.98,-0.18,-2.08,-0.03,-0.03,0.0,0.9964436762808021,0.2598076211353316,0.010467610126283167,0.28,0,1,0.0
3.7094008580002082,166,624.92,-101.2,0.9,-60.9,0.1,-0.11,0.32,0.01,-0.99,-0.18,-2.08,0.01,0.04,0.0,1.0062802790475425,0.352845575287547,0.0006183872123519674,0.28,0,1,0.0
3.7207453050000368,167,624.93,-101.2,0.9,-60.9,0.23,-0.18,0.38,0.01,-0.99,-0.17,-2.08,-0.01,-0.09,0.0,1.0045396955820112,0.47927027865287036,0.002311791264325569,0.28,0,1,0.0
3.7294591130003028,168,624.94,-101.1,0.8,-61.0,0.32,-0.19,0.43,0.02,-1.01,-0.17,-2.08,0.0,-0.08,0.0,1.0244022647378324,0.5686826883245173,0.017199762333665713,0.28,0,1,0.0
3.7408446670001467,169,624.95,-101.1,0.8,-61.0,0.48,-0.15,0.41,0.03,-1.01,-0.18,-2.08,-0.02,0.0,0.0,1.026352765865616,0.6488451279003333,0.01876725819222025,0.28,0,1,0.0
3.7492876750002324,170,624.96,-101.0,0.8,-61.0,0.66,-0.05,0.42,0.05,-1.0,-0.17,-2.08,-0.01,0.0,0.0,1.0155786527886455,0.7839005038906405,0.00783328221294477,0.28,0,1,0.0
3.7607562100001815,171,624.97,-100.9,0.8,-61.0,0.84,0.08,0.45,0.09,-0.99,-0.18,-2.08,-0.06,0.14,0.0,1.010247494428964,0.9562949335848224,0.002452081376198123,0.28,0,1,0.0
3.769385087000046,172,624.98,-100.8,0.8,-60.9,0.92,0.34,0.48,0.1,-0.98,-0.19,-2.08,-0.08,-0.13,0.0,1.0032447358446492,1.091970695577496,0.00445966366395445,0.28,0,1,0.0
3.780852917000175,173,624.99,-100.7,0.8,-60.9,0.94,0.68,0.52,0.12,-0.95,-0.2,-2.08,-0.13,-0.12,0.0,0.9782126558167197,1.2713772060250255,0.02890190881804644,0.28,0,1,0.0
3.7894014290000086,174,625.0,-100.6,0.8,-60.8,0.99,1.02,0.57,0.12,-0.95,-0.19,-2.09,-0.27,-0.18,0.0,0.9762171889492625,1.5314698821720263,0.030279428171793632,0.28,0,1,0.0
3.8008390820000386,175,625.01,-100.6,0.8,-60.6,1.04,1.38,0.55,0.1,-0.94,-0.19,-2.09,-0.53,-0.04,0.0,0.9642095207992918,1.8134221791960083,0.04144135439532892,0.28,0,1,0.0
3.809476346000338,176,625.02,-100.5,0.8,-60.5,1.04,1.74,0.49,0.07,-0.95,-0.18,-2.1,-0.7,-0.06,0.0,0.969432823871773,2.085497542554294,0.03549369029639082,0.28,0,1,0.0
3.820860504000393,177,625.03,-100.3,0.9,-60.3,1.12,2.03,0.33,0.04,-0.95,-0.17,-2.11,-1.02,-0.1,0.0,0.96591925128346,2.3418368858654524,0.0382271176270097,0.28,0,1,0.0
3.8296460620003927,178,625.04,-100.2,0.9,-60.1,1.2,2.22,0.13,0.02,-0.95,-0.16,-2.12,-1.28,-0.17,0.0,0.9635870484808313,2.526915115313532,0.03974813402104571,0.28,0,1,0.0
3.84082897899998,179,625.05,-100.1,0.9,-59.8,1.31,2.25,-0.05,0.0,-0.96,-0.15,-2.13,-1.58,0.05,0.0,0.9716480844420988,2.6040545309190435,0.03105335609858273,0.28,0,1,0.0
3.8495924030003152,180,625.06,-99.9,0.9,-59.6,1.34,2.18,-0.21,-0.02,-0.98,-0.15,-2.15,-1.77,0.1,0.0,0.9916148445843275,2.5675085199469154,0.010864864037226973,0.28,0,1,0.0
3.860758196000006,181,625.07,-99.8,1.0,-59.4,1.25,2.06,-0.34,-0.04,-1.01,-0.16,-2.17,-1.89,0.01,0.0,1.023376763464952,2.4334543348910413,0.020479113746529665,0.28,0,1,0.0
3.8694469480001317,182,625.08,-99.7,1.0,-59.2,1.13,1.85,-0.38,-0.06,-1.03,-0.16,-2.19,-1.95,-0.09,0.0,1.0440785411069418,2.200863466914747,0.04035727356074914,0.28,0,1,0.0
3.880739934000303,183,625.09,-99.5,1.0,-59.1,0.95,1.57,-0.3,-0.07,-1.07,-0.16,-2.21,-2.01,0.0,0.0,1.084158659975559,1.8594085081014338,0.0788286445807791,0.28,0,1,0.0
3.889469594000275,184,625.1,-99.5,1.0,-58.9,0.77,1.2,-0.16,-0.07,-1.09,-0.19,-2.23,-1.8,0.05,0.0,1.108647825055369,1.4347473645210154,0.1012514534673774,0.28,0,1,0.0
3.900854091000383,185,625.11,-99.4,1.0,-58.8,0.74,0.92,0.02,-0.05,-1.12,-0.2,-2.24,-1.53,0.03,0.0,1.1388151737661385,1.1808471535300409,0.1287904261345838,0.28,0,1,0.0
3.909458382000139,186,625.12,-99.3,1.0,-58.8,1.2,0.86,0.12,-0.02,-1.11,-0.23,-2.26,-1.16,0.07,0.0,1.1337548235840058,1.481215716902842,0.12125547443340201,0.28,0,1,0.0
3.920758243000364,187,625.13,-99.2,1.0,-58.7,1.78,0.96,0.18,0.0,-1.07,-0.24,-2.27,-0.73,-0.13,0.0,1.0965856099730655,2.030369424513677,0.08240453560601257,0.28,0,1,0.0
3.9294169650002004,188,625.14,-99.0,1.0,-58.6,2.15,1.04,0.19,0.03,-1.03,-0.21,-2.27,-0.41,0.07,0.0,1.051617801294748,2.395871448972169,0.036687992389141,0.28,0,1,0.0
3.9406711960000393,189,625.15,-98.8,1.0,-58.4,2.1,1.21,0.26,0.05,-0.96,-0.21,-2.27,-0.12,0.01,0.0,0.9839715443040007,2.4375602556654883,0.030339099309574014,0.28,0,1,0.0
3.949467811999966,190,625.16,-98.7,1.0,-58.3,1.71,1.36,0.3,0.05,-0.95,-0.18,-2.27,0.07,0.08,0.0,0.9681941953967705,2.205379785887229,0.04519411925246808,0.28,0,1,0.0
3.9608595240001705,191,625.17,-98.5,1.0,-58.2,1.31,1.51,0.32,0.04,-0.95,-0.18,-2.27,0.03,0.0,0.0,0.9677293009927931,2.024499938256359,0.044745833383316724,0.28,0,1,0.0
3.969448715999988,192,625.18,-98.4,1.0,-58.0,0.92,1.57,0.38,0.02,-0.94,-0.19,-2.27,-0.03,0.0,0.0,0.959218431849597,1.8589513172754148,0.0521915684759825,0.28,0,1,0.0
3.9807631550002043,193,625.19,-98.4,1.0,-57.8,0.68,1.58,0.43,0.0,-0.96,-0.19,-2.27,0.0,0.13,0.0,0.9786214794290998,1.7730482226944648,0.03213275047855013,0.28,0,1,0.0
3.9894708330002686,194,625.2,-98.4,0.9,-57.7,0.64,1.54,0.43,-0.03,-0.97,-0.21,-2.27,0.01,-0.07,0.0,0.9929249719893241,1.7222369175000285,0.01747267275995945,0.28,0,1,0.0
4.000832169000205,195,625.21,-98.3,0.9,-57.5,0.7,1.51,0.41,-0.07,-0.98,-0.2,-2.27,-0.01,0.0,0.0,1.002646498024104,1.7141178489240463,0.007596123790675868,0.28,0,1,0.0
4.009454806000122,196,625.22,-98.2,0.9,-57.4,0.86,1.4,0.3,-0.1,-0.99,-0.16,-2.27,0.0,0.05,0.0,1.0078194282707593,1.670209567689037,0.00237472967314023,0.28,0,1,0.0
4.02077956400035,197,625.23,-98.1,0.9,-57.2,1.0,1.11,0.15,-0.14,-0.98,-0.12,-2.27,0.0,-0.05,0.0,0.9971960689854327,1.5015325504297268,0.012738127179297454,0.28,0,1,0.0
4.029528214000038,198,625.24,-98.0,0.9,-57.2,0.99,0.7,0.01,-0.16,-0.96,-0.08,-2.27,-0.02,-0.08,0.0,0.9765244492586962,1.2125180411028942,0.032741551967913285,0.28,0,1,0.0
4.040854105000108,199,625.25,-97.9,0.9,-57.1,0.96,0.14,-0.07,-0.17,-0.93,-0.06,-2.27,-0.03,0.05,0.0,0.9473119866232034,0.9726767191621274,0.06071493431133801,0.28,0,1,0.0
4.04943356800004,200,625.26,-97.8,0.9,-57.1,1.01,-0.41,-0.22,-0.17,-0.92,-0.06,-2.27,0.0,-0.04,0.0,0.9374966666607408,1.1120251795710383,0.06911964918832447,0.28,0,1,0.0
4.060832154000309,201,625.27,-97.7,0.9,-57.2,0.94,-0.95,-0.41,-0.17,-0.9,-0.07,-2.27,0.0,-0.07,0.0,0.9185858696931932,1.3979270367225893,0.08626983723275461,0.28,0,1,0.0
4.06951165800001,202,625.28,-97.7,1.0,-57.3,0.69,-1.42,-0.62,-0.15,-0.89,-0.09,-2.27,0.0,0.06,0.0,0.907028114227999,1.6961426826773742,0.09587104084398979,0.28,0,1,0.0
4.080869376999999,203,625.29,-97.6,1.0,-57.5,0.32,-1.82,-0.84,-0.14,-0.88,-0.11,-2.27,0.0,-0.04,0.0,0.8978307190111062,2.0298768435548005,0.10296706733966488,0.28,0,1,0.0
4.08943655100029,204,625.3,-97.6,1.1,-57.7,-0.07,-2.18,-1.03,-0.13,-0.86,-0.12,-2.27,0.02,0.08,0.0,0.8780091115700337,2.412094525510972,0.12033290128512264,0.28,0,1,0.0
4.100848208000116,205,625.31,-97.6,1.2,-58.0,-0.51,-2.5,-1.15,-0.11,-0.85,-0.14,-2.27,-0.01,-0.06,0.0,0.8684468895678077,2.798678259464635,0.12729722082160166,0.28,0,1,0.0
4.109345276000113,206,625.32,-97.7,1.2,-58.3,-0.94,-2.81,-1.26,-0.1,-0.87,-0.16,-2.27,0.0,0.08,0.0,0.8902246907382427,3.219829188016035,0.10340903125814327,0.28,0,1,0.0
4.120861475000311,207,625.33,-97.8,1.3,-58.6,-1.29,-3.11,-1.39,-0.1,-0.88,-0.18,-2.27,0.02,0.0,0.0,0.9037698822156003,3.6425677756220267,0.08806656298517002,0.28,0,1,0.0
4.129459490000045,208,625.34,-98.0,1.4,-58.9,-1.61,-3.38,-1.56,-0.1,-0.9,-0.2,-2.27,0.03,-0.08,0.0,0.9273618495495705,4.055872285957732,0.06318510373817587,0.28,0,1,0.0
4.14087758200003,209,625.35,-98.2,1.5,-59.3,-1.86,-3.58,-1.74,-0.11,-0.91,-0.22,-2.27,0.02,-0.07,0.0,0.9426558226627575,4.393586234501378,0.04693330801248907,0.28,0,1,0.0
4.149420089000159,210,625.36,-98.4,1.7,-59.7,-1.82,-3.78,-1.98,-0.11,-0.91,-0.22,-2.27,0.03,-0.04,0.0,0.9426558226627575,4.6390947392783435,0.04599464185223934,0.28,0,1,0.0
4.160769070000242,211,625.37,-98.6,1.8,-60.1,-1.65,-4.0,-2.21,-0.12,-0.9,-0.21,-2.27,0.09,0.0,0.0,0.931933474020544,4.858662367359972,0.055582650684563695,0.28,0,1,0.0
4.1694534820003355,212,625.38,-98.7,2.0,-60.5,-1.61,-4.19,-2.44,-0.11,-0.89,-0.2,-2.27,0.15,0.09,0.0,0.9188035698668133,5.108992072806534,0.0673383037415285,0.28,0,1,0.0
4.180673148000096,213,625.39,-98.9,2.2,-61.0,-1.98,-4.34,-2.62,-0.09,-0.89,-0.09,-2.27,0.26,-0.11,0.0,0.8990550594930212,5.442462677869275,0.08534507783301415,0.28,0,1,0.0
4.189440147000369,214,625.4,-99.2,2.4,-61.5,-3.94,-4.48,-2.32,0.0,-0.93,-0.05,-2.27,0.28,0.11,0.0,0.9313431161500041,6.401281121775546,0.051995880752510604,0.28,0,1,0.0
4.20089821800002,215,625.41,-99.8,2.5,-61.9,-6.96,-4.28,-1.47,0.24,-1.16,-0.12,-2.26,0.54,0.11,0.0,1.1906300852909772,8.301861237096173,0.20314526662069332,0.28,0,1,0.0
4.20950141000003,216,625.42,-100.7,2.5,-62.3,-9.54,-3.29,-0.19,0.58,-1.47,-0.35,-2.25,0.88,-0.09,0.0,1.6185796242384864,10.093156097078852,0.6184729094568384,0.28,1,2,3.0
4.2208632640004,217,625.43,-101.6,2.4,-62.6,-8.14,-1.41,1.37,0.94,-1.64,-0.53,-2.24,1.25,0.11,0.0,1.9631861857704682,8.374043228930695,0.9438178815690437,0.28,0,2,3.0
4.22949269100036,218,625.44,-102.1,2.2,-62.6,-1.26,0.14,2.54,0.95,-1.61,-0.32,-2.24,-0.71,3.0,3.49,1.8965758619153625,2.8388025644626995,0.8596634065596593,0.28,0,2,3.0
4.240845078000348,219,625.45,-101.7,1.9,-62.4,7.54,0.78,3.38,0.72,-1.27,-0.37,-2.26,-3.2,3.08,3.49,1.506054447886928,8.299662643746432,0.4597591526806002,0.28,0,2,3.0
4.2494465839999975,220,625.46,-100.6,1.6,-62.2,12.44,2.73,3.75,0.39,-0.8,-0.54,-2.3,-4.38,3.15,3.49,1.0410091258005378,13.276633609465916,0.00518044601767409,0.28,0,2,3.0
4.260808756000188,221,625.47,-99.4,1.3,-61.7,12.0,4.84,3.12,0.07,-0.67,-0.35,-2.35,-4.8,3.47,3.49,0.7591442550661897,13.31014650557987,0.28130441041698184,0.28,0,2,3.0
4.269402373000048,222,625.48,-98.3,1.1,-61.2,8.37,5.42,1.55,-0.2,-0.68,-0.08,-2.4,-4.92,3.63,3.49,0.7133021800050804,10.09137255282947,0.3206035557685293,0.28,0,2,3.0
4.280737624000267,223,625.49,-97.8,1.1,-60.7,2.96,4.8,-0.1,-0.42,-0.67,0.06,-2.45,-4.6,3.53,3.49,0.7930321557162736,5.640177302177654,0.2360561084561894,0.28,0,2,3.0
4.289404672000273,224,625.5,-97.8,1.3,-60.2,-3.32,4.19,-1.04,-0.55,-0.65,0.0,-2.49,-3.64,3.72,3.49,0.8514693182963201,5.446108702550841,0.17406656695862,0.28,0,2,3.0
4.300793221000276,225,625.51,-98.5,1.5,-59.9,-9.0,2.47,-1.45,-0.52,-0.75,-0.11,-2.52,-2.59,3.57,3.49,0.9192388155425117,9.444755158287588,0.10417112831817987,0.28,0,2,3.0
4.309522517000005,226,625.52,-99.5,1.6,-59.8,-10.04,0.98,-1.27,-0.33,-0.96,-0.08,-2.54,-1.26,3.49,3.49,1.0182828683622247,10.16734478612779,0.005024533988497559,0.28,0,2,3.0
4.3208217250003145,227,625.53,-100.3,1.7,-59.8,-6.92,0.07,-0.57,-0.14,-1.1,-0.04,-2.54,0.11,3.68,3.49,1.109594520534416,6.943788591251897,0.08456137582001988,0.28,0,2,3.0
4.329476407000129,228,625.54,-100.8,1.7,-59.8,-2.45,-0.82,0.42,-0.01,-1.22,0.04,-2.54,-0.03,3.79,3.49,1.2206965224821442,2.617498806112431,0.19175011021239308,0.28,0,2,3.0
4.340795869999965,229,625.55,-100.8,1.6,-59.9,2.03,-1.5,1.07,0.1,-1.24,-0.06,-2.54,0.0,3.49,3.49,1.2454717981552212,2.74149594199955,0.21219487816776073,0.28,0,2,3.0
4.34945298599996,230,625.56,-100.4,1.5,-60.0,4.67,-1.3,1.47,0.18,-1.11,-0.16,-2.54,0.01,3.45,3.49,1.1358256908522542,5.065550315612312,0.1004977954474977,0.28,0,2,3.0
4.360742506000406,231,625.57,-99.9,1.3,-60.1,4.48,-1.0,1.61,0.18,-0.93,-0.11,-2.54,0.0,3.36,3.49,0.9536246641105713,4.8644115779814525,0.08006916666830144,0.28,0,2,3.0
4.369454015999963,232,625.58,-99.6,1.1,-60.2,2.78,-0.84,1.31,0.15,-0.9,-0.06,-2.54,0.0,3.5,3.49,0.9143850392476902,3.1859221584966573,0.11692261570055895,0.28,0,2,3.0
4.380757122999967,233,625.59,-99.4,1.0,-60.3,0.98,-0.92,0.67,0.1,-0.89,-0.08,-2.54,-0.01,3.59,3.49,0.899166280506559,1.5018987981884797,0.12949854695285645,0.28,0,2,3.0
4.38947368800018,234,625.6,-99.4,1.0,-60.3,-0.33,-0.64,0.12,0.05,-0.87,-0.09,-2.54,0.01,3.46,3.49,0.8760707733967615,0.73,0.14954217298140093,0.28,0,2,3.0
4.400864654000088,235,625.61,-99.4,1.0,-60.4,-0.89,-0.46,-0.24,0.02,-0.91,-0.11,-2.54,0.0,3.48,3.49,0.9168424073961675,1.030194156457898,0.10659512820235506,0.28,0,2,0.0
4.409514052000304,236,625.62,-99.5,1.0,-60.4,-0.84,-0.23,-0.46,0.02,-0.98,-0.15,-2.54,0.0,3.64,3.49,0.9916148445843275,0.9849365461794988,0.031186237193911226,0.28,0,2,0.0
4.420841717000258,237,625.63,-99.5,1.1,-60.4,-0.43,0.01,-0.57,0.03,-1.0,-0.16,-2.53,1.15,0.41,0.0,1.01316336293808,0.714072825417688,0.00944496446335541,0.28,0,2,0.0
4.429423823999969,238,625.64,-99.6,1.2,-60.4,-0.4,0.28,-0.5,0.02,-1.0,-0.17,-2.5,3.38,0.06,0.0,1.0145442326483356,0.698856208386246,0.007902812858037844,0.28,0,2,0.0
4.440806993000024,239,625.65,-99.6,1.2,-60.4,-0.52,0.18,-0.43,0.0,-0.97,-0.09,-2.46,4.68,-0.04,0.0,0.9741663102366043,0.6983552104767315,0.047315120564373814,0.28,0,2,0.0
4.449457327000346,240,625.66,-99.6,1.2,-60.4,-0.89,0.0,-0.26,0.02,-0.92,-0.11,-2.41,5.54,0.13,0.0,0.9267685795278129,0.9272000862812729,0.092818594247702,0.28,0,2,0.0
4.460726822000197,241,625.67,-99.7,1.3,-60.4,-1.49,-0.1,-0.01,0.06,-0.9,-0.13,-2.35,5.95,-0.04,0.0,0.9113177272499422,1.493385415758437,0.10610405759506114,0.28,0,2,0.0
4.469457321000391,242,625.68,-99.9,1.3,-60.4,-2.29,-0.24,0.18,0.08,-0.95,-0.13,-2.29,6.01,-0.02,0.0,0.9621850133939938,2.309567058996123,0.05413203602198946,0.28,0,2,0.0
4.480853779999961,243,625.69,-100.1,1.3,-60.5,-2.61,-0.32,0.26,0.09,-0.99,-0.15,-2.23,5.81,-0.12,0.0,1.0053357648069623,2.6423663636975094,0.010761658916840444,0.28,0,2,0.0
4.489364010000372,244,625.7,-100.4,1.3,-60.5,-2.33,-0.39,0.21,0.08,-1.04,-0.16,-2.18,5.35,-0.07,0.0,1.0552724766618335,2.3717293268836563,0.038391551879270125,0.28,0,2,0.0
4.5008487280001646,245,625.71,-100.6,1.3,-60.5,-1.69,-0.52,0.05,0.05,-1.06,-0.16,-2.13,4.68,-0.06,0.0,1.0731728658515367,1.7688979620091148,0.05516610224759377,0.28,0,2,0.0
4.509514250000393,246,625.72,-100.7,1.3,-60.6,-0.96,-0.74,-0.1,0.02,-1.05,-0.16,-2.08,3.86,0.02,0.0,1.0623088063270492,1.2162236636408617,0.04341600186864403,0.28,0,2,0.0
4.520774509000148,247,625.73,-100.7,1.3,-60.7,-0.3,-0.96,-0.17,0.02,-1.03,-0.18,-2.05,2.89,-0.11,0.0,1.0458011283222064,1.0200490184299968,0.02637015738652515,0.28,0,2,0.0
4.529525792000186,248,625.74,-100.7,1.3,-60.8,0.2,-1.16,-0.18,0.02,-0.99,-0.19,-2.03,1.91,-0.12,0.0,1.008265837961398,1.1907980517283356,0.010941830314797674,0.28,0,2,0.0
4.540870231000099,249,625.75,-100.7,1.3,-60.9,0.49,-1.34,-0.16,0.04,-0.97,-0.17,-2.02,0.96,-0.13,0.0,0.9855962662266938,1.4357228144736016,0.03293917400851176,0.28,0,2,0.0
4.549331392000113,250,625.76,-100.6,1.3,-61.1,0.72,-1.4,-0.07,0.07,-0.94,-0.19,-2.02,-0.06,-0.03,0.0,0.9615612304996495,1.5758489775356013,0.0558347255408449,0.28,0,2,0.0
4.561007774000245,251,625.77,-100.6,1.3,-61.2,0.81,-1.27,0.03,0.1,-0.92,-0.22,-2.02,-0.54,-0.04,0.0,0.9512097560475292,1.506618730800862,0.0648624759931058,0.28,0,2,0.0
4.5694747200000165,252,625.78,-100.5,1.3,-61.3,0.61,-1.01,0.14,0.12,-0.92,-0.24,-2.03,-0.64,0.02,0.0,0.9583318840568752,1.1881919036923285,0.05658554102408464,0.28,0,2,0.0
4.580774432999988,253,625.79,-100.5,1.3,-61.4,0.38,-0.64,0.23,0.13,-0.94,-0.25,-2.03,-0.75,0.19,0.0,0.9813256340277675,0.7790378681424928,0.03291995523212854,0.28,0,2,0.0
4.589485743000296,254,625.8,-100.4,1.2,-61.4,0.28,-0.34,0.26,0.14,-0.97,-0.23,-2.04,-0.79,0.07,0.0,1.006677704133751,0.511468474101777,0.007416527423622199,0.28,0,2,0.0
4.600866521000171,255,625.81,-100.4,1.2,-61.4,0.37,-0.15,0.27,0.13,-0.98,-0.21,-2.05,-0.74,0.03,0.0,1.010643359449811,0.48197510309143565,0.003381854665410966,0.28,0,2,0.0
4.609471713000403,256,625.82,-100.4,1.2,-61.4,0.43,0.0,0.3,0.12,-0.99,-0.19,-2.06,-0.72,0.06,0.0,1.0151847122568385,0.5243090691567331,0.0011363081787842955,0.28,0,2,0.0
4.620934184000362,257,625.83,-100.3,1.2,-61.4,0.49,0.09,0.28,0.11,-1.0,-0.18,-2.06,-0.6,-0.1,0.0,1.0220078277586724,0.571489282489182,0.007800235207005901,0.28,0,2,0.0
4.6294633920001615,258,625.84,-100.3,1.3,-61.4,0.49,0.19,0.19,0.09,-1.0,-0.18,-2.07,-0.45,0.16,0.0,1.0200490184299968,0.5588380803059148,0.005724597360763806,0.28,0,2,0.0
4.641059689000031,259,625.85,-100.2,1.3,-61.4,0.32,0.24,0.08,0.06,-1.0,-0.17,-2.07,-0.19,0.03,0.0,1.0161200716450787,0.4079215610874228,0.0017597375643287894,0.28,0,2,0.0
4.649604015000023,260,625.86,-100.2,1.3,-61.4,0.2,0.2,-0.03,0.04,-1.0,-0.16,-2.07,0.14,-0.05,0.0,1.0135087567455943,0.28442925306655786,0.0008345457884524343,0.28,0,2,0.0
4.6609091990003435,261,625.87,-100.2,1.3,-61.3,0.1,0.14,-0.06,0.03,-0.97,-0.16,-2.07,0.12,0.11,0.0,0.9835649444749441,0.182208671582886,0.03016279089792051,0.28,0,2,0.0
4.669462163000389,262,625.88,-100.2,1.3,-61.3,0.03,0.07,-0.03,0.03,-0.96,-0.16,-2.07,-0.06,-0.14,0.0,0.9737042672187485,0.0818535277187245,0.03922299879103386,0.28,0,2,0.0
4.680654686000253,263,625.89,-100.2,1.4,-61.3,0.04,-0.01,0.03,0.04,-0.96,-0.17,-2.07,0.0,-0.05,0.0,0.9757561170702441,0.05099019513592785,0.03642772596074739,0.28,0,2,0.0
4.689413658000376,264,625.9,-100.2,1.4,-61.3,0.0,-0.07,0.14,0.04,-0.96,-0.18,-2.07,0.01,0.12,0.0,0.977547952787995,0.15652475842498528,0.033943172438136604,0.28,0,2,0.0
4.700818111999979,265,625.91,-100.2,1.3,-61.3,0.02,-0.11,0.23,0.04,-0.97,-0.18,-2.07,-0.02,-0.05,0.0,0.9873702446397704,0.25573423705088844,0.0236384629746339,0.28,0,2,0.0
4.709444333000192,266,625.92,-100.2,1.3,-61.3,0.07,-0.12,0.31,0.03,-0.98,-0.18,-2.07,0.01,-0.04,0.0,0.9968450230602548,0.3397057550292606,0.013880410863066572,0.28,0,2,0.0
4.720799684000212,267,625.93,-100.1,1.3,-61.4,0.15,-0.16,0.37,0.03,-1.0,-0.16,-2.07,0.01,-0.19,0.0,1.01316336293808,0.4301162633521313,0.0023891704344636278,0.28,0,2,0.0
4.729547672000081,268,625.94,-100.1,1.3,-61.4,0.34,-0.25,0.38,0.03,-1.01,-0.14,-2.07,-0.02,0.17,0.0,1.0200980345045274,0.5678908345800273,0.009137365160892807,0.28,0,2,0.0
4.740874860000076,269,625.95,-100.0,1.2,-61.4,0.55,-0.3,0.37,0.02,-1.01,-0.15,-2.07,0.0,0.0,0.0,1.0212737145349429,0.7275987905432499,0.010106784287482018,0.28,0,2,0.0
4.7495508680003695,270,625.96,-100.0,1.2,-61.4,0.73,-0.29,0.29,0.01,-1.01,-0.15,-2.07,-0.03,0.13,0.0,1.0211268285575499,0.8373171442171716,0.009760700343887319,0.28,0,2,0.0
4.760929705000308,271,625.97,-99.9,1.2,-61.4,0.82,-0.21,0.16,0.01,-0.99,-0.15,-2.07,-0.05,0.14,0.0,1.0013490899781154,0.8614522621712708,0.009816697470836244,0.28,0,2,0.0
4.7695296800002325,272,625.98,-99.8,1.1,-61.4,0.72,-0.12,0.12,0.01,-0.96,-0.14,-2.07,-0.05,0.13,0.0,0.9702061636580134,0.7397296803562771,0.040140431315119574,0.28,0,2,0.0
4.79734556700032,274,626.0,-99.6,1.1,-61.5,0.51,0.01,0.19,0.06,-0.96,-0.14,-2.07,-0.12,0.22,0.0,0.9720082304178294,0.5443344560102732,0.037571597264197565,0.28,0,2,0.0
4.805253560999972,275,626.01,-99.6,1.1,-61.4,0.52,0.14,0.26,0.08,-0.96,-0.16,-2.08,-0.34,-0.13,0.0,0.9765244492586962,0.5979966555090421,0.03239427085486413,0.28,0,2,0.0
4.813534219000303,276,626.02,-99.5,1.2,-61.4,0.67,0.36,0.32,0.1,-0.97,-0.18,-2.08,-0.61,-0.15,0.0,0.9916148445843275,0.8251666498350501,0.016957798018648274,0.28,0,2,0.0
4.82155069800001,277,626.03,-99.5,1.2,-61.4,0.92,0.67,0.31,0.1,-0.97,-0.19,-2.09,-0.82,-0.03,0.0,0.9934787365615834,1.1795761950802501,0.014792027920564443,0.28,0,2,0.0
4.8295371950002846,278,626.04,-99.4,1.2,-61.3,1.13,1.04,0.23,0.09,-0.96,-0.19,-2.1,-0.99,-0.05,0.0,0.9827512401416749,1.5528683137986943,0.025009133853663323,0.28,0,2,0.0
4.840877128000102,279,626.05,-99.3,1.3,-61.1,1.17,1.41,0.16,0.07,-0.95,-0.18,-2.11,-1.19,-0.02,0.0,0.969432823871773,1.8391846019364122,0.03756099912109401,0.28,0,2,0.0
4.849481070000365,280,626.06,-99.2,1.3,-61.0,1.12,1.66,0.06,0.05,-0.96,-0.17,-2.12,-1.43,0.11,0.0,0.9762171889492625,2.0033971149025844,0.030161101362732423,0.28,0,2,0.0
4.8614575599999625,281,626.07,-99.1,1.3,-60.8,1.08,1.81,-0.04,0.02,-0.99,-0.16,-2.14,-1.66,-0.04,0.0,1.0030453628824572,2.108103413023185,0.003266268880947054,0.28,0,2,0.0
4.869456389000334,282,626.08,-99.0,1.4,-60.6,1.02,1.81,-0.15,0.0,-1.01,-0.16,-2.16,-1.84,0.06,0.0,1.0225947388873073,2.083026644092677,0.01595744498142504,0.28,0,2,0.0
4.880847164999977,283,626.09,-98.9,1.4,-60.5,0.95,1.76,-0.23,-0.04,-1.04,-0.15,-2.18,-2.08,0.09,0.0,1.05152270541344,2.013206397764521,0.04398770327740653,0.28,0,2,0.0
4.889521567999964,284,626.1,-98.7,1.4,-60.3,1.1,1.61,-0.27,-0.06,-1.05,-0.15,-2.2,-2.18,0.07,0.0,1.0623558725775464,1.9685019685029528,0.053724453032682806,0.28,0,2,0.0
4.900776622000194,285,626.11,-98.6,1.4,-60.1,1.33,1.47,-0.25,-0.06,-1.06,-0.15,-2.22,-2.24,0.01,0.0,1.072240644631605,1.9980740727010098,0.06233704058500655,0.28,0,2,0.0
4.909363205000318,286,626.12,-98.5,1.4,-60.0,1.41,1.33,-0.17,-0.04,-1.07,-0.15,-2.24,-2.15,0.03,0.0,1.0812030336620408,1.9457389341841314,0.06987344102313342,0.28,0,2,0.0
4.920872001000134,287,626.13,-98.3,1.4,-59.9,1.37,1.15,-0.02,-0.01,-1.07,-0.15,-2.26,-1.93,0.22,0.0,1.0805091392487154,1.788798479426903,0.06779595567761176,0.28,0,2,0.0
4.929477931000292,288,626.14,-98.2,1.4,-59.8,1.31,1.05,0.16,0.0,-1.05,-0.16,-2.28,-1.66,0.03,0.0,1.0621205204683695,1.6864756150030749,0.0484191901593205,0.28,0,2,0.0
4.9407538380000915,289,626.15,-98.1,1.4,-59.7,1.32,1.04,0.39,0.02,-1.03,-0.16,-2.3,-1.32,0.33,0.0,1.042544963059148,1.7251376756653367,0.028266760095096988,0.28,0,2,0.0
4.94950954900014,290,626.16,-97.9,1.3,-59.6,1.41,1.08,0.56,0.03,-1.03,-0.16,-2.3,-0.81,0.12,0.0,1.0427847332982967,1.862283544468994,0.02793639972756079,0.28,0,2,0.0
4.960952943000393,291,626.17,-97.8,1.3,-59.4,1.47,1.15,0.66,0.03,-1.01,-0.16,-2.31,-0.41,-0.01,0.0,1.0230347012687302,1.9796464330783918,0.008022640344034437,0.28,0,2,0.0
4.969340319000366,292,626.18,-97.7,1.2,-59.3,1.39,1.2,0.74,0.03,-0.99,-0.16,-2.31,0.01,0.03,0.0,1.0032945728947207,1.9798232244319187,0.011483138269375637,0.28,0,2,0.0
4.980893816000389,293,626.19,-97.6,1.2,-59.2,1.32,1.22,0.76,0.02,-0.98,-0.17,-2.31,0.13,-0.08,0.0,0.994836670011716,1.9515122341404882,0.019542220329332616,0.28,0,2,0.0
4.989536077000139,294,626.2,-97.5,1.1,-59.0,1.21,1.26,0.79,0.02,-0.96,-0.18,-2.31,0.01,-0.06,0.0,0.976933979345585,1.9172375961262602,0.03669601277555434,0.28,0,2,0.0
5.00081877599996,295,626.21,-97.4,1.1,-58.9,1.22,1.41,0.77,0.01,-0.98,-0.2,-2.31,-0.06,0.04,0.0,1.0002499687578101,2.0172753902231593,0.013112422896062625,0.28,0,2,0.0
5.009547668000323,296,626.22,-97.3,1.0,-58.7,1.35,1.6,0.69,-0.01,-0.99,-0.19,-2.31,0.01,-0.05,0.0,1.0081170566953026,2.2042232191862965,0.005140428259398755,0.28,0,2,0.0
5.020872053000403,297,626.23,-97.2,0.9,-58.6,1.42,1.64,0.58,-0.04,-0.98,-0.17,-2.31,-0.03,-0.01,0.0,0.9954396013822235,2.245528890929707,0.01746152590102823,0.28,0,2,0.0
5.029503322999972,298,626.24,-97.0,0.9,-58.4,1.62,1.57,0.45,-0.08,-0.98,-0.13,-2.31,-0.03,-0.01,0.0,0.9918165152889923,2.300391271066729,0.020662919754374287,0.28,0,2,0.0
5.040848886000276,299,626.25,-96.9,0.8,-58.3,1.71,1.38,0.3,-0.11,-0.96,-0.11,-2.31,-0.05,-0.02,0.0,0.9725224933131367,2.217769149393146,0.039157802895625204,0.28,0,2,0.0
5.049349130000337,300,626.26,-96.7,0.8,-58.1,1.74,1.04,0.12,-0.13,-0.94,-0.08,-2.31,-0.05,0.08,0.0,0.9523129737644027,2.03066491573573,0.05817997599547198,0.28,0,2,0.0
5.060818066000138,301,626.27,-96.5,0.8,-58.1,1.61,0.68,-0.09,-0.14,-0.92,-0.05,-2.31,-0.15,-0.05,0.0,0.9319334740205439,1.7500285711953392,0.07698828622454423,0.28,0,2,0.0
5.06947082600027,302,626.28,-96.4,0.8,-58.0,1.42,0.16,-0.36,-0.14,-0.91,-0.05,-2.32,-0.35,-0.06,0.0,0.9220629045786409,1.4736349615830915,0.08512167855311825,0.28,0,2,0.0
5.080663805000313,303,626.29,-96.2,0.9,-58.0,1.13,-0.23,-0.56,-0.13,-0.9,-0.07,-2.32,-0.56,0.0,0.0,0.9120307012376283,1.2819516371532897,0.09325080425624832,0.28,0,2,0.0
5.089497240000128,304,626.3,-96.1,0.9,-58.1,0.86,-0.56,-0.77,-0.12,-0.89,-0.08,-2.33,-0.7,-0.02,0.0,0.90160967164289,1.2830042868205858,0.10159839717396701,0.28,0,2,0.0
5.100733806000335,305,626.31,-96.1,1.0,-58.2,0.67,-0.83,-0.97,-0.1,-0.92,-0.09,-2.34,-0.9,0.08,0.0,0.9297849213662265,1.4417697458332241,0.0719546845016178,0.28,0,2,0.0
5.109544060000189,306,626.32,-96.0,1.0,-58.3,0.51,-1.1,-1.14,-0.09,-0.92,-0.1,-2.35,-0.99,0.1,0.0,0.9297849213662265,1.6642415690037309,0.07051559081158543,0.28,0,2,0.0
5.120873098000175,307,626.33,-96.0,1.1,-58.4,0.28,-1.38,-1.26,-0.09,-0.94,-0.11,-2.36,-1.0,0.0,0.0,0.9506839643120104,1.8895502110290692,0.04862421690848551,0.28,0,2,0.0
5.129615538000053,308,626.34,-96.0,1.2,-58.6,0.08,-1.67,-1.34,-0.09,-0.94,-0.13,-2.36,-0.83,-0.04,0.0,0.9532051195833979,2.1426385602802913,0.04518100040435602,0.28,0,2,0.0
5.1408699309999975,309,626.35,-96.0,1.3,-58.8,-0.01,-1.96,-1.43,-0.09,-0.94,-0.15,-2.37,-0.6,0.14,0.0,0.9561380653441217,2.4262316459893105,0.04140309355075955,0.28,0,2,0.0
5.149468087000059,310,626.36,-96.0,1.4,-59.0,-0.01,-2.24,-1.56,-0.1,-0.93,-0.18,-2.38,-0.32,-0.01,0.0,0.9525229656024048,2.7297069439776864,0.0441178294266269,0.28,0,2,0.0
5.16069367099999,311,626.37,-96.0,1.6,-59.2,-0.01,-2.55,-1.73,-0.11,-0.91,-0.17,-2.38,0.02,0.05,0.0,0.9322553298319083,3.081476918621978,0.0630977558931809,0.28,0,2,0.0
5.169470117000401,312,626.38,-96.0,1.7,-59.5,-0.01,-2.9,-1.93,-0.13,-0.87,-0.16,-2.37,0.1,0.03,0.0,0.8940917178902844,3.483532689670071,0.09923614047810869,0.28,0,2,0.0
5.180859165000129,313,626.39,-96.0,1.9,-59.9,-0.17,-3.22,-2.11,-0.16,-0.84,-0.15,-2.37,0.0,0.05,0.0,0.8681589716175258,3.853491922918744,0.12266550901585005,0.28,0,2,0.0
5.189390134000405,314,626.4,-96.1,2.1,-60.2,-0.66,-3.6,-2.28,-0.14,-0.84,-0.01,-2.37,0.02,-0.01,0.0,0.8516454661418681,4.312076066119428,0.13639543420167755,0.28,0,2,0.0
5.200764677000279,315,626.41,-96.2,2.3,-60.6,-2.41,-3.88,-2.01,-0.05,-0.88,-0.03,-2.37,0.07,0.06,0.0,0.8819297024139735,4.990250494714669,0.10398897397098072,0.28,0,2,0.0
5.209524349000276,316,626.42,-96.6,2.4,-61.0,-5.08,-3.67,-1.38,0.14,-1.13,-0.05,-2.37,0.14,-0.01,0.0,1.1397368117245312,6.417141108001289,0.15074177263278543,0.28,0,2,0.0
5.220734085999993,317,626.43,-97.3,2.4,-61.4,-8.03,-2.9,-0.31,0.46,-1.44,-0.18,-2.37,0.34,0.17,0.0,1.522366578718805,8.543242943987956,0.522704108834518,0.28,1,3,3.0
5.229303233000337,318,626.44,-98.1,2.3,-61.6,-7.73,-1.37,1.28,0.82,-1.72,-0.29,-2.36,0.67,0.11,0.0,1.927407585333211,7.954131002189994,0.9091902131399456,0.28,0,3,3.0
5.240864719000001,319,626.45,-98.6,2.1,-61.6,-0.99,-0.33,2.56,0.95,-1.63,-0.37,-2.36,-0.8,3.37,3.49,1.9225763964014537,2.7645252757028644,0.8862718437240245,0.28,0,3,3.0
5.249354404000314,320,626.46,-98.2,1.8,-61.5,8.0,0.76,3.5,0.8,-1.32,-0.47,-2.39,-3.53,3.19,3.49,1.6134745117292681,8.765135480983737,0.5656265598708021,0.28,0,3,3.0
5.260816997000347,321,626.47,-97.0,1.5,-61.3,13.26,3.01,3.9,0.43,-0.87,-0.51,-2.44,-5.24,3.36,3.49,1.0963119993870358,14.145589418613845,0.04749476657799834,0.28,0,3,3.0
5.26948026700029,322,626.48,-95.7,1.1,-60.8,12.8,5.13,3.69,0.15,-0.64,-0.3,-2.5,-6.07,3.53,3.49,0.722564875980005,14.274908055745929,0.3197273096924518,0.28,0,3,3.0
5.280859053000313,323,626.49,-94.6,0.9,-60.2,8.62,5.73,2.57,-0.13,-0.6,-0.02,-2.56,-6.36,3.41,3.49,0.6142475071174486,10.664998827941801,0.41948378498390804,0.28,0,3,3.0
5.289531069000077,324,626.5,-94.0,0.8,-59.7,4.23,5.51,1.03,-0.36,-0.65,0.03,-2.62,-6.15,3.41,3.49,0.7436396977031283,7.022385634526204,0.28428976251026383,0.28,0,3,3.0
5.300888620000023,325,626.51,-93.8,0.8,-59.1,-1.02,5.03,-0.29,-0.52,-0.69,0.06,-2.68,-5.33,3.85,3.49,0.866083136886985,5.140564171372633,0.15860939685987896,0.28,0,3,3.0
5.309538380000049,326,626.52,-94.2,0.9,-58.7,-5.95,3.66,-1.14,-0.56,-0.73,0.0,-2.73,-4.21,3.58,3.49,0.9200543462209175,7.077972873641153,0.10254542377542741,0.28,0,3,3.0
5.320895072999974,327,626.53,-95.0,1.0,-58.4,-8.24,2.43,-1.16,-0.48,-0.84,-0.04,-2.76,-2.7,4.03,3.49,0.9682974749528164,8.668800378368394,0.05321624914265799,0.28,0,3,3.0
5.329534393000358,328,626.54,-95.7,1.1,-58.2,-6.69,1.48,-0.49,-0.34,-0.99,0.04,-2.77,-1.23,3.6,3.49,1.0475208828467335,6.8692503229974085,0.025487015576233896,0.28,0,3,3.0
5.340861892000248,329,626.55,-96.2,1.1,-58.2,-2.91,0.16,0.5,-0.2,-1.16,0.16,-2.78,-0.4,3.57,3.49,1.1879393923933999,2.956974805438829,0.16258741462044224,0.28,0,3,3.0
5.349359087000266,330,626.56,-96.2,1.0,-58.2,1.51,-0.79,1.26,-0.08,-1.23,0.03,-2.78,0.04,3.3,3.49,1.2329639086364206,2.119386703742382,0.20345969224619376,0.28,0,3,3.0
5.360969331999968,331,626.57,-95.9,0.9,-58.3,4.23,-0.94,1.72,0.03,-1.14,-0.06,-2.78,0.0,3.5,3.49,1.1419719786404567,4.66207035553948,0.11021840700522523,0.28,0,3,3.0
5.369480252000358,332,626.58,-95.4,0.7,-58.3,4.35,-0.84,1.77,0.08,-0.99,0.0,-2.78,0.0,3.5,3.49,0.9932270636667125,4.770848981051485,0.03775597780914863,0.28,0,3,3.0
5.380767990000095,333,626.59,-95.1,0.5,-58.4,2.65,-1.04,1.47,0.11,-0.92,0.02,-2.78,0.0,3.49,3.49,0.9267685795278129,3.203903868720159,0.10213017270908731,0.28,0,3,3.0
5.389523305000239,334,626.6,-94.9,0.4,-58.5,1.17,-0.9,0.78,0.12,-0.95,-0.06,-2.78,0.0,3.52,3.49,0.9594269122762817,1.6695208893571831,0.06808240316140601,0.28,0,3,3.0
5.400543197000388,335,626.61,-94.8,0.4,-58.6,0.0,-0.5,0.15,0.11,-0.91,-0.09,-2.78,0.0,3.44,3.49,0.9210320298447824,0.5220153254455275,0.10434773988104717,0.28,0,3,3.0
5.409301737000078,336,626.62,-94.9,0.5,-58.6,-0.62,-0.2,-0.14,0.08,-0.96,-0.09,-2.78,0.0,3.52,3.49,0.9675226095549395,0.6663332499583072,0.05670001696747218,0.28,0,3,0.0
5.420600449000176,337,626.63,-95.0,0.5,-58.6,-0.5,0.13,-0.36,0.08,-1.02,-0.1,-2.78,-0.02,3.5,3.49,1.0280077820717117,0.6296824596572467,0.003709452438314109,0.28,0,3,0.0
5.433552679000059,338,626.64,-95.0,0.6,-58.6,-0.04,0.34,-0.48,0.08,-1.03,-0.1,-2.77,1.61,0.45,0.0,1.0379306335203715,0.589576118919347,0.013359657809234315,0.28,0,3,0.0
5.441477427000336,339,626.65,-95.0,0.7,-58.5,0.14,0.62,-0.51,0.04,-1.02,-0.07,-2.74,3.57,0.06,0.0,1.0231813133555558,0.8149233092751734,0.0013618691084698042,0.28,0,3,0.0
5.449499260000266,340,626.66,-95.0,0.8,-58.5,0.13,0.42,-0.5,0.0,-0.99,-0.02,-2.7,4.66,0.13,0.0,0.9902019995940222,0.6658077800686921,0.0336543592126034,0.28,0,3,0.0
5.460867806000351,341,626.67,-94.9,0.8,-58.5,0.02,0.29,-0.32,0.01,-0.91,-0.04,-2.65,5.36,0.13,0.0,0.9109335870413386,0.43231932642434573,0.1106643163299812,0.28,0,3,0.0
5.46954543100037,342,626.68,-94.9,0.8,-58.4,-0.29,0.23,-0.02,0.02,-0.86,-0.07,-2.59,5.58,0.2,0.0,0.863075894692929,0.3706750598570128,0.15535156850482312,0.28,0,3,0.0
5.480806058000326,343,626.69,-95.0,0.8,-58.4,-1.17,0.09,0.25,0.02,-0.86,-0.05,-2.54,5.47,-0.24,0.0,0.8616843969807042,1.1997916485790354,0.153608204892707,0.28,0,3,0.0
5.489395521000006,344,626.7,-95.1,0.8,-58.4,-2.03,0.0,0.41,0.02,-0.92,-0.08,-2.48,5.05,-0.09,0.0,0.9236882591004392,2.0709901013766334,0.08977225591751248,0.28,0,3,0.0
5.500864756000283,345,626.71,-95.4,0.8,-58.4,-2.34,0.06,0.46,0.03,-0.98,-0.11,-2.44,4.44,-0.12,0.0,0.986610358753647,2.385539771204831,0.026313153139018608,0.28,0,3,0.0
5.509491961000094,346,626.72,-95.6,0.7,-58.4,-2.15,0.05,0.4,0.02,-1.04,-0.13,-2.4,3.71,-0.13,0.0,1.0482843125793688,2.187464285422736,0.034653584672969195,0.28,0,3,0.0
5.520835267000166,347,626.73,-95.8,0.7,-58.4,-1.45,0.06,0.29,0.01,-1.09,-0.12,-2.37,2.79,-0.04,0.0,1.0966312051004203,1.4799324308900053,0.08134046765014036,0.28,0,3,0.0
5.529566390000127,348,626.74,-95.9,0.7,-58.4,-0.5,0.0,0.13,0.01,-1.1,-0.11,-2.34,1.89,-0.18,0.0,1.105531546361297,0.5166236541235796,0.08843599273279668,0.28,0,3,0.0
5.540830591000031,349,626.75,-95.9,0.7,-58.4,0.36,-0.08,0.03,0.02,-1.07,-0.08,-2.33,0.96,-0.32,0.0,1.0731728658515365,0.37,0.054955765978575544,0.28,0,3,0.0
5.549321715000133,350,626.76,-95.8,0.7,-58.4,0.58,-0.17,0.05,0.03,-1.03,-0.08,-2.33,0.03,-0.11,0.0,1.033537614216338,0.6064651680022521,0.015014104056509492,0.28,0,3,0.0
5.560872620000282,351,626.77,-95.8,0.7,-58.4,0.73,-0.23,0.03,0.05,-1.02,-0.07,-2.33,-0.45,-0.05,0.0,1.0236210236215353,0.7659634456029869,0.004995563192472741,0.28,0,3,0.0
5.5694888370003355,352,626.78,-95.7,0.7,-58.4,0.91,-0.2,0.01,0.06,-0.99,-0.08,-2.34,-0.61,-0.12,0.0,0.9950376877284598,0.9317725044236925,0.023116017246590626,0.28,0,3,0.0
5.58114675600018,353,626.79,-95.6,0.7,-58.4,0.84,-0.12,0.05,0.07,-0.96,-0.08,-2.34,-0.62,0.01,0.0,0.9658674857349738,0.8499999999999999,0.051240494855275154,0.28,0,3,0.0
5.589421047000087,354,626.8,-95.5,0.8,-58.4,0.66,0.04,0.11,0.07,-0.95,-0.08,-2.35,-0.67,-0.1,0.0,0.955928867646542,0.6702984409947558,0.059955530684832836,0.28,0,3,0.0
5.600861543000065,355,626.81,-95.4,0.8,-58.4,0.47,0.16,0.15,0.06,-0.93,-0.08,-2.36,-0.57,-0.18,0.0,0.9353608929178086,0.5186520991955976,0.07891303530529492,0.28,0,3,0.0
5.609379987000011,356,626.82,-95.4,0.8,-58.4,0.21,0.34,0.22,0.05,-0.93,-0.09,-2.36,-0.45,-0.2,0.0,0.9356815697661252,0.4561797891182818,0.07702051128783882,0.28,0,3,0.0
5.620864141000311,357,626.83,-95.4,0.8,-58.4,-0.03,0.57,0.25,0.05,-0.92,-0.1,-2.37,-0.35,0.08,0.0,0.9267685795278129,0.6231372240526158,0.08421483149562814,0.28,0,3,0.0
5.6294946130001335,358,626.84,-95.4,0.8,-58.3,-0.21,0.82,0.27,0.04,-0.93,-0.1,-2.37,-0.25,0.08,0.0,0.9362157870918436,0.888481851249647,0.07327227145296555,0.28,0,3,0.0
5.640833749000194,359,626.85,-95.5,0.8,-58.2,-0.37,1.03,0.28,0.03,-0.94,-0.1,-2.37,-0.09,0.05,0.0,0.9457801012920498,1.1296902230257637,0.06243379810770422,0.28,0,3,0.0
5.649416034000296,360,626.86,-95.5,0.8,-58.1,-0.58,1.2,0.3,0.02,-0.96,-0.09,-2.37,-0.05,-0.12,0.0,0.9644169222903546,1.3661625086350453,0.04292103756721144,0.28,0,3,0.0
5.661028273000284,361,626.87,-95.6,0.8,-57.9,-0.62,1.3,0.34,0.02,-0.98,-0.08,-2.37,-0.03,0.05,0.0,0.9834632682515396,1.4798648586948744,0.02339719777390581,0.28,0,3,0.0
5.66938287100038,362,626.88,-95.6,0.8,-57.8,-0.57,1.37,0.38,0.02,-1.0,-0.07,-2.37,-0.09,-0.02,0.0,1.002646498024104,1.5317310468878016,0.004129688641314466,0.28,0,3,0.0
5.681024074000106,363,626.89,-95.7,0.7,-57.7,-0.41,1.41,0.45,0.03,-1.02,-0.07,-2.37,-0.21,0.2,0.0,1.022839185796086,1.5358059773291677,0.01574173914805388,0.28,0,3,0.0
5.68956370900014,364,626.9,-95.7,0.7,-57.5,-0.02,1.5,0.48,0.04,-1.01,-0.08,-2.38,-0.22,0.17,0.0,1.0139526616169021,1.5750555545757743,0.006718110669492683,0.28,0,3,0.0
5.7013894179999625,365,626.91,-95.6,0.7,-57.4,0.28,1.67,0.44,0.05,-1.0,-0.1,-2.38,-0.29,-0.05,0.0,1.0062305898749053,1.7495427974187998,0.0009838818510541358,0.28,0,3,0.0
5.709495810000135,366,626.92,-95.6,0.7,-57.2,0.56,1.9,0.35,0.05,-0.97,-0.12,-2.38,-0.28,-0.09,0.0,0.9786725703727472,2.0114919835783587,0.02797106332614807,0.28,0,3,0.0
5.720856908000314,367,626.93,-95.5,0.7,-57.0,0.75,2.19,0.17,0.04,-0.97,-0.1,-2.38,-0.27,-0.15,0.0,0.9759610647971567,2.321098877687032,0.030068917523703775,0.28,0,3,0.0
5.72954012900027,368,626.94,-95.5,0.8,-56.7,0.71,2.42,0.0,0.04,-0.93,-0.11,-2.39,-0.51,0.04,0.0,0.9373366524360393,2.5220031720836515,0.0673194632871249,0.28,0,3,0.0
5.7410660030000145,369,626.95,-95.4,0.8,-56.5,0.46,2.61,-0.14,0.02,-0.93,-0.1,-2.4,-0.69,-0.12,0.0,0.9355746896961248,2.65392162657453,0.06769979750649857,0.28,0,3,0.0
5.749492114000077,370,626.96,-95.4,0.9,-56.2,0.19,2.75,-0.29,0.0,-0.96,-0.09,-2.4,-0.97,0.03,0.0,0.9642095207992918,2.7717683885923803,0.03828366707526487,0.28,0,3,0.0
5.760837902000276,371,626.97,-95.4,0.9,-55.9,0.06,2.82,-0.38,-0.03,-1.0,-0.1,-2.42,-1.29,-0.04,0.0,1.0054352291420865,2.8461201661208895,0.002883200442179268,0.28,0,3,0.0
5.769367556000361,372,626.98,-95.4,0.9,-55.7,0.14,2.75,-0.49,-0.05,-1.05,-0.08,-2.43,-1.54,0.19,0.0,1.054229576515476,2.796819622356794,0.05064399685925758,0.28,0,3,0.0
5.780933298000036,373,626.99,-95.3,1.0,-55.4,0.31,2.47,-0.58,-0.07,-1.08,-0.06,-2.45,-1.77,-0.1,0.0,1.0839280418920807,2.5560516426707816,0.07873561299114495,0.28,0,3,0.0
5.789263809000204,374,627.0,-95.3,1.0,-55.2,0.41,2.14,-0.56,-0.07,-1.09,-0.08,-2.47,-1.96,-0.27,0.0,1.095171219490359,2.249733317528991,0.0881792147776348,0.28,0,3,0.0
5.800831987000038,375,627.01,-95.2,1.0,-55.0,0.12,1.71,-0.44,-0.06,-1.13,-0.06,-2.49,-2.04,-0.12,0.0,1.133181362359971,1.7697739968707868,0.12366557049430194,0.28,0,3,0.0
5.809553404000326,376,627.02,-95.2,1.0,-54.9,0.14,1.39,-0.22,-0.05,-1.12,-0.1,-2.51,-1.92,-0.12,0.0,1.1255665240224588,1.4142489172702235,0.11372971751365402,0.28,0,3,0.0
5.820861851000245,377,627.03,-95.2,1.0,-54.7,0.41,0.99,-0.02,-0.04,-1.12,-0.08,-2.52,-1.67,0.03,0.0,1.1235657524150513,1.0717275773255066,0.10949436698812165,0.28,0,3,0.0
5.829544078000254,378,627.04,-95.1,1.0,-54.7,0.9,0.75,0.2,-0.02,-1.04,-0.13,-2.54,-1.27,0.03,0.0,1.0482843125793688,1.1884864324004714,0.0335286686093903,0.28,0,3,0.0
5.8408572860003005,379,627.05,-95.0,0.9,-54.6,0.95,0.78,0.45,-0.01,-1.02,-0.11,-2.55,-0.79,0.12,0.0,1.0259629622944486,1.3089690599857584,0.010983171957980709,0.28,0,3,0.0
5.849492790000113,380,627.06,-94.9,0.9,-54.5,1.16,0.8,0.5,0.0,-1.01,-0.11,-2.55,-0.32,0.02,0.0,1.0159724405711013,1.4951922953252534,0.0009727972299407028,0.28,0,3,0.0
5.860840220000227,381,627.07,-94.8,0.8,-54.4,0.91,0.79,0.58,0.0,-0.96,-0.11,-2.55,0.03,-0.11,0.0,0.9662815324738437,1.3373855091184441,0.04774374864997044,0.28,0,3,0.0
5.869454363000386,382,627.08,-94.8,0.8,-54.3,0.44,0.8,0.71,0.01,-0.95,-0.11,-2.55,0.06,0.09,0.0,0.9563994981178106,1.1565898149300815,0.05647326734588365,0.28,0,3,0.0
5.880785170000308,383,627.09,-94.8,0.7,-54.2,0.42,0.83,0.69,0.0,-0.99,-0.1,-2.55,-0.01,0.01,0.0,0.9950376877284598,1.1581882403132921,0.01747837618052961,0.28,0,3,0.0
5.889409996000268,384,627.1,-94.7,0.6,-54.1,0.32,0.83,0.78,0.01,-0.96,-0.11,-2.55,-0.03,0.1,0.0,0.9663332758422427,1.1830891766895681,0.045259132305411676,0.28,0,3,0.0
5.9008644280002045,385,627.11,-94.7,0.5,-54.1,0.44,0.72,0.78,0.0,-0.98,-0.11,-2.55,0.02,0.1,0.0,0.986154146165801,1.149086593777858,0.02492949674221623,0.28,0,3,0.0
5.909591672000261,386,627.12,-94.7,0.5,-54.0,0.58,0.67,0.68,-0.01,-0.97,-0.12,-2.55,0.0,-0.04,0.0,0.977445650662992,1.11700492389246,0.03296523240012461,0.28,0,3,0.0
5.920888356999967,387,627.13,-94.7,0.4,-53.9,0.52,0.64,0.54,-0.03,-0.96,-0.12,-2.55,-0.01,0.01,0.0,0.9679359482941007,0.9856977224281286,0.04162543607363556,0.28,0,3,0.0
5.929368080000131,388,627.14,-94.6,0.3,-53.8,0.43,0.62,0.37,-0.06,-0.94,-0.11,-2.55,0.0,0.03,0.0,0.9483142938920619,0.8403570669661796,0.06002214866616096,0.28,0,3,0.0
5.940869508000105,389,627.15,-94.6,0.2,-53.8,0.3,0.56,0.21,-0.09,-0.94,-0.08,-2.55,0.01,0.01,0.0,0.9476813810558905,0.6691038783328042,0.059441960272285654,0.28,0,3,0.0
5.949404423000033,390,627.16,-94.6,0.2,-53.7,0.15,0.33,0.06,-0.11,-0.94,-0.06,-2.55,-0.03,0.02,0.0,0.9483142938920619,0.3674234614174767,0.057632866487391965,0.28,0,3,0.0
5.960762810000233,391,627.17,-94.6,0.2,-53.7,0.13,0.04,-0.07,-0.13,-0.95,-0.06,-2.55,-0.01,0.02,0.0,0.960728889958036,0.15297058540778355,0.044313905012989485,0.28,0,3,0.0
5.969247872000324,392,627.18,-94.6,0.2,-53.7,0.21,-0.35,-0.23,-0.15,-0.95,-0.06,-2.55,0.0,-0.05,0.0,0.9636389365317282,0.4685082710048991,0.040575781270511424,0.28,0,3,0.0
5.9808515910003734,393,627.19,-94.5,0.2,-53.8,0.29,-0.8,-0.41,-0.14,-0.96,-0.06,-2.55,-0.01,-0.05,0.0,0.9720082304178294,0.9445633912025175,0.031562357636721994,0.28,0,3,0.0
5.989414375000251,394,627.2,-94.5,0.3,-53.9,0.56,-1.24,-0.68,-0.13,-0.98,-0.06,-2.55,0.0,-0.21,0.0,0.9904039579888602,1.5210522673465234,0.012903297464377461,0.28,0,3,0.0
6.000841900000069,395,627.21,-94.4,0.3,-54.1,0.75,-1.65,-0.96,-0.11,-0.96,-0.08,-2.55,0.0,-0.04,0.0,0.9695875411740809,2.0509997562164655,0.03304531999357363,0.28,0,3,0.0
6.009557002000292,396,627.22,-94.4,0.3,-54.3,0.63,-1.91,-1.14,-0.09,-0.95,-0.1,-2.55,0.0,-0.2,0.0,0.9594790253048786,2.311839094746864,0.042290759145520385,0.28,0,3,0.0
6.020946512000137,397,627.23,-94.3,0.4,-54.5,0.39,-2.05,-1.25,-0.07,-0.95,-0.11,-2.55,0.02,-0.12,0.0,0.9589056262218926,2.4325089927891326,0.0420068750639363,0.28,0,3,0.0
6.029559278000306,398,627.24,-94.4,0.4,-54.7,0.1,-2.1,-1.34,-0.06,-0.96,-0.11,-2.55,0.0,0.09,0.0,0.9681425514871248,2.4931105069771777,0.03211455080272996,0.28,0,3,0.0
6.041112135000276,399,627.25,-94.4,0.5,-54.9,-0.1,-2.23,-1.41,-0.05,-0.97,-0.11,-2.55,0.0,-0.06,0.0,0.9774968030638258,2.640265138201086,0.022305093241508422,0.28,0,3,0.0
6.049532269000338,400,627.26,-94.4,0.6,-55.1,-0.23,-2.4,-1.47,-0.06,-0.97,-0.1,-2.55,0.0,-0.12,0.0,0.976985158536198,2.823791777026061,0.022360403013753416,0.28,0,3,0.0
6.06097743700002,401,627.27,-94.5,0.7,-55.4,-0.18,-2.63,-1.57,-0.07,-0.98,-0.11,-2.55,0.01,0.08,0.0,0.9886354231970448,3.068256834099779,0.010495935585848604,0.28,0,3,0.0
6.069419508999999,402,627.28,-94.5,0.8,-55.7,-0.05,-2.91,-1.68,-0.08,-0.96,-0.12,-2.55,0.0,0.0,0.0,0.9707728879609278,3.360505914293263,0.027791301405526325,0.28,0,3,0.0
6.080956638000316,403,627.29,-94.5,0.9,-56.0,0.04,-3.21,-1.82,-0.09,-0.92,-0.12,-2.55,0.03,0.09,0.0,0.932148056909416,3.6902709927592037,0.0650878098078973,0.28,0,3,0.0
6.089587510000001,404,627.3,-94.5,1.1,-56.4,-0.09,-3.52,-1.96,-0.11,-0.89,-0.09,-2.55,-0.01,-0.06,0.0,0.9012768719988326,4.029900743194552,0.09403981482411117,0.28,0,3,0.0
6.100846531000116,405,627.31,-94.5,1.3,-56.8,-0.31,-3.9,-2.13,-0.13,-0.86,-0.09,-2.55,0.0,0.01,0.0,0.874414089547967,4.454548237475939,0.11848454532947728,0.28,0,3,0.0
6.109386094000001,406,627.32,-94.6,1.5,-57.2,-0.82,-4.19,-2.27,-0.11,-0.85,0.01,-2.55,0.06,0.01,0.0,0.857146428563988,4.8354317283982,0.13303716218718709,0.28,0,3,0.0
6.120881800999996,407,627.33,-94.8,1.6,-57.7,-2.75,-4.62,-1.94,-0.06,-0.89,0.01,-2.55,0.1,0.0,0.0,0.8920762299265685,5.715811403466702,0.09614521360811445,0.28,0,3,0.0
6.129547238000214,408,627.34,-95.2,1.8,-58.1,-4.96,-4.48,-1.33,0.05,-1.13,-0.06,-2.55,0.22,-0.17,0.0,1.1326958991715295,6.814756048458375,0.14158496652410957,0.28,0,3,0.0
6.140904429000329,409,627.35,-95.8,1.8,-58.6,-7.57,-3.82,-0.18,0.34,-1.42,-0.12,-2.55,0.56,0.12,0.0,1.465059725744995,8.481137895353429,0.46446981723562364,0.28,1,4,3.0
6.149309889000051,410,627.36,-96.7,1.7,-58.9,-8.42,-2.75,1.34,0.61,-1.73,-0.18,-2.54,0.79,-0.04,0.0,1.8432037326351094,8.958487595571029,0.8257615476432232,0.28,0,4,3.0
6.160890939000183,411,627.37,-97.2,1.5,-59.1,-1.97,-1.74,2.51,0.89,-1.79,-0.4,-2.53,-0.61,3.04,3.49,2.038676040963841,3.6343637682543557,1.0008091788525155,0.28,0,4,3.0
6.169479821000095,412,627.38,-96.9,1.2,-59.1,7.88,-0.62,3.05,0.83,-1.48,-0.39,-2.56,-3.18,3.1,3.49,1.7410916116046278,8.47238455217892,0.6891602545034363,0.28,0,4,3.0
6.180834632000369,413,627.39,-95.7,0.9,-59.0,14.56,1.63,3.22,0.47,-0.87,-0.45,-2.6,-5.09,3.3,3.49,1.086416126537157,15.000629986770557,0.033795074047246354,0.28,0,4,3.0
6.189311216000078,414,627.4,-94.2,0.6,-58.7,13.96,3.89,3.37,0.24,-0.52,-0.22,-2.67,-6.12,3.29,3.49,0.6135144660071187,14.878528153012986,0.4303244547531361,0.28,0,4,3.0
6.200855784000396,415,627.41,-93.0,0.3,-58.3,10.1,4.14,2.35,-0.02,-0.52,0.02,-2.73,-6.45,3.37,3.49,0.5207686626516616,11.16566612432953,0.5126088529464213,0.28,0,4,3.0
6.209372105000057,416,627.42,-92.2,0.2,-57.9,5.58,4.04,0.75,-0.28,-0.59,0.01,-2.79,-6.21,3.71,3.49,0.6531462317123172,6.929682532410846,0.3726266582080503,0.28,0,4,3.0
6.220884832000138,417,627.43,-92.0,0.2,-57.5,0.29,4.08,-0.46,-0.44,-0.6,-0.05,-2.85,-5.2,3.71,3.49,0.7457211275000862,4.116078230549075,0.2744507271718756,0.28,0,4,3.0
6.22953294600029,418,627.44,-92.3,0.3,-57.1,-5.76,3.11,-1.24,-0.54,-0.66,0.05,-2.89,-3.87,3.68,3.49,0.8542247947700886,6.662379454819426,0.16262811870383576,0.28,0,4,3.0
6.240906528000323,419,627.45,-93.0,0.4,-56.9,-8.43,1.87,-1.22,-0.46,-0.86,0.03,-2.92,-2.28,3.61,3.49,0.9757561170702441,8.72067657925691,0.04027486047560658,0.28,0,4,3.0
6.24938414799999,420,627.46,-93.9,0.6,-56.8,-7.39,0.33,-0.82,-0.33,-1.05,0.12,-2.93,-0.83,4.01,3.49,1.107158525234756,7.442674250563436,0.08930499673512715,0.28,0,4,3.0
6.260855064000225,421,627.47,-94.4,0.6,-56.8,-3.21,-0.56,0.15,-0.19,-1.19,0.11,-2.93,0.13,3.86,3.49,1.2100826418059223,3.261931942882929,0.1883845310401675,0.28,0,4,3.0
6.269368816000224,422,627.48,-94.4,0.5,-56.9,1.45,-1.53,0.95,-0.06,-1.23,0.0,-2.93,-0.01,3.62,3.49,1.2314625451064274,2.3121202390879243,0.2055691456538591,0.28,0,4,3.0
6.280787592000252,423,627.49,-94.1,0.4,-57.1,4.32,-1.76,1.35,0.05,-1.14,-0.06,-2.93,0.0,3.38,3.49,1.142672306481609,4.856181627575312,0.11444332888845987,0.28,0,4,3.0
6.289542506000089,424,627.5,-93.6,0.2,-57.2,4.28,-1.52,1.43,0.1,-0.98,0.01,-2.93,0.0,3.63,3.49,0.9851395840184273,4.761690876148934,0.042227605703227256,0.28,0,4,3.0
6.300786489000075,425,627.51,-93.3,0.1,-57.4,2.92,-1.89,0.99,0.13,-0.96,0.03,-2.93,0.0,3.22,3.49,0.9692264957170744,3.616434708383382,0.056977880124488456,0.28,0,4,3.0
6.309526737000397,426,627.52,-93.1,0.0,-57.6,1.28,-1.63,0.13,0.15,-0.94,-0.08,-2.93,0.01,3.55,3.49,0.9552486587271399,2.0765837329614234,0.06953660277213458,0.28,0,4,3.0
6.320835186000295,427,627.53,-93.0,0.1,-57.7,-0.04,-1.12,-0.35,0.15,-0.91,-0.07,-2.93,0.0,3.48,3.49,0.9249324299644812,1.17409539646487,0.09785577490409736,0.28,0,4,3.0
6.329502622000291,428,627.54,-93.0,0.1,-57.8,-0.5,-0.83,-0.45,0.14,-0.96,-0.07,-2.93,0.0,3.65,3.49,0.9726767191621274,1.068363234110946,0.04910925599232219,0.28,0,4,0.0
6.340689074000238,429,627.55,-93.1,0.1,-57.8,0.04,-0.46,-0.51,0.15,-1.04,-0.07,-2.93,0.0,3.32,3.49,1.0530906893520615,0.6879680225126746,0.03067861991365972,0.28,0,4,0.0
6.3493751150003845,430,627.56,-93.0,0.2,-57.9,0.76,-0.25,-0.58,0.14,-1.04,-0.09,-2.93,1.41,0.43,0.0,1.0532331175955303,0.9881801455200362,0.030204627193985978,0.28,0,4,0.0
6.3608628960000715,431,627.57,-92.9,0.3,-57.9,0.85,-0.03,-0.57,0.08,-0.99,-0.05,-2.9,3.43,0.16,0.0,0.9944847912361455,1.023865225505779,0.027972825182090877,0.28,0,4,0.0
6.369564106000325,432,627.58,-92.8,0.4,-57.9,0.4,-0.1,-0.41,0.01,-0.91,0.01,-2.86,4.39,0.0,0.0,0.9101098834756164,0.5814636704042653,0.11010077828376763,0.28,0,4,0.0
6.380921455000134,433,627.59,-92.8,0.4,-57.9,-0.26,-0.07,-0.25,0.01,-0.89,0.0,-2.81,5.01,0.16,0.0,0.8900561780022652,0.3674234614174767,0.12755139408197647,0.28,0,4,0.0
6.389293975000328,434,627.6,-92.8,0.4,-57.9,-0.85,-0.15,0.0,0.02,-0.88,-0.01,-2.76,5.14,0.0,0.0,0.8802840450672725,0.8631338250816034,0.13457705647662987,0.28,0,4,0.0
6.400862722000056,435,627.61,-92.9,0.4,-58.0,-1.29,-0.29,0.22,0.02,-0.92,-0.01,-2.71,5.02,-0.08,0.0,0.9202716990106781,1.3403730823916153,0.09269761448255975,0.28,0,4,0.0
6.40940850700008,436,627.62,-93.1,0.4,-58.0,-1.37,-0.42,0.28,0.02,-0.98,-0.03,-2.66,4.63,-0.11,0.0,0.9806630410084801,1.4600342461736984,0.03166014703506248,0.28,0,4,0.0
6.420833106000373,437,627.63,-93.2,0.4,-58.0,-1.28,-0.55,0.28,0.02,-1.0,-0.05,-2.62,4.06,-0.17,0.0,1.0014489502715553,1.421020759876505,0.01065675301654756,0.28,0,4,0.0
6.429581901000347,438,627.64,-93.3,0.4,-58.1,-0.9,-0.58,0.18,0.03,-1.04,-0.09,-2.58,3.25,-0.07,0.0,1.044317959244214,1.0857255638511971,0.0315680108369889,0.28,0,4,0.0
6.441007720000016,439,627.65,-93.4,0.4,-58.2,-0.19,-0.57,0.0,0.03,-1.04,-0.09,-2.55,2.42,0.0,0.0,1.044317959244214,0.6008327554319921,0.030936650620249084,0.28,0,4,0.0
6.453518787000121,440,627.66,-93.4,0.4,-58.2,0.37,-0.6,-0.2,0.04,-1.03,-0.07,-2.54,1.47,-0.11,0.0,1.0331505214633538,0.7327346040688948,0.01937382858260106,0.28,0,4,0.0
6.461379737000243,441,627.67,-93.3,0.4,-58.3,0.63,-0.63,-0.29,0.05,-1.0,-0.06,-2.53,0.49,-0.08,0.0,1.0030453628824572,0.9369631796394136,0.010516703398329774,0.28,0,4,0.0
6.469412941999963,442,627.68,-93.3,0.5,-58.3,0.51,-0.64,-0.35,0.07,-0.98,-0.05,-2.53,-0.29,-0.08,0.0,0.9837682653958705,0.8900561780022651,0.029197924867218172,0.28,0,4,0.0
6.480907384000147,443,627.69,-93.2,0.6,-58.4,0.39,-0.49,-0.37,0.09,-0.97,-0.08,-2.53,-0.45,0.1,0.0,0.977445650662992,0.7273926037567333,0.03481012880809464,0.28,0,4,0.0
6.489428025000052,444,627.7,-93.2,0.6,-58.4,0.26,-0.34,-0.4,0.09,-0.97,-0.06,-2.54,-0.45,0.04,0.0,0.976012295004525,0.5858327406350724,0.035518614777230506,0.28,0,4,0.0
6.500828917000035,445,627.71,-93.2,0.7,-58.5,0.11,-0.25,-0.35,0.08,-0.96,-0.03,-2.54,-0.47,-0.06,0.0,0.9637945839233586,0.4439594576084623,0.04678159934122905,0.28,0,4,0.0
6.509669284000211,446,627.72,-93.2,0.8,-58.5,-0.13,-0.19,-0.23,0.07,-0.95,-0.03,-2.55,-0.37,0.07,0.0,0.9530477427705287,0.32542280190545964,0.05637787168417774,0.28,0,4,0.0
6.520909282000048,447,627.73,-93.2,0.8,-58.5,-0.3,-0.2,-0.1,0.06,-0.96,-0.03,-2.55,-0.13,0.11,0.0,0.9623408959407265,0.37416573867739417,0.04614302414370042,0.28,0,4,0.0
6.529437846000292,448,627.74,-93.2,0.9,-58.5,-0.34,-0.2,0.01,0.05,-0.96,-0.03,-2.55,0.05,0.11,0.0,0.9617692030835672,0.39458839313897714,0.04578042266084248,0.28,0,4,0.0
6.5408346310000525,449,627.75,-93.2,0.9,-58.6,-0.35,-0.2,0.08,0.05,-0.96,-0.04,-2.55,-0.01,-0.16,0.0,0.9621330469326994,0.4109744517606903,0.044508247235476084,0.28,0,4,0.0
6.549507718000314,450,627.76,-93.3,0.9,-58.6,-0.31,-0.2,0.13,0.04,-0.96,-0.06,-2.55,0.0,0.02,0.0,0.9627045237246993,0.39115214431215894,0.0430580350346067,0.28,0,4,0.0
6.560832934000246,451,627.77,-93.3,0.9,-58.6,-0.35,-0.16,0.17,0.04,-0.96,-0.07,-2.55,0.0,0.02,0.0,0.9633794683301072,0.4207136793592526,0.04153542862061477,0.28,0,4,0.0
6.569385610000154,452,627.78,-93.4,0.9,-58.6,-0.45,-0.08,0.21,0.05,-0.96,-0.08,-2.55,0.03,0.11,0.0,0.9646242791885346,0.5029910535983717,0.03948480540694377,0.28,0,4,0.0
6.58078937900018,453,627.79,-93.4,0.9,-58.6,-0.66,0.04,0.24,0.05,-0.97,-0.09,-2.55,0.04,0.02,0.0,0.9754486147409304,0.7034202158027589,0.02808726045745702,0.28,0,4,0.0
6.589433553000163,454,627.8,-93.5,0.9,-58.6,-0.74,0.2,0.22,0.06,-0.98,-0.09,-2.55,0.07,-0.25,0.0,0.9859513172565875,0.7974960814950754,0.017232866782963985,0.28,0,4,0.0
6.601005813000029,455,627.81,-93.6,0.9,-58.6,-0.87,0.37,0.27,0.08,-0.98,-0.09,-2.55,0.07,-0.11,0.0,0.9873702446397703,0.9832090316916338,0.01549766061178559,0.28,0,4,0.0
6.609446432000368,456,627.82,-93.8,0.9,-58.5,-1.0,0.57,0.39,0.08,-0.99,-0.09,-2.55,0.03,0.07,0.0,0.9972963451251589,1.2153188881935473,0.005460128923869156,0.28,0,4,0.0
6.620810448000157,457,627.83,-93.9,0.9,-58.4,-0.98,0.83,0.6,0.09,-1.0,-0.08,-2.55,-0.01,0.02,0.0,1.0072239075796403,1.4174977954127477,0.004378084860000131,0.28,0,4,0.0
6.629433273000359,458,627.84,-94.0,0.9,-58.3,-0.82,1.13,0.75,0.09,-1.02,-0.08,-2.55,0.02,0.02,0.0,1.0270832488167645,1.5848659249286672,0.023752677575181735,0.28,0,4,0.0
6.640850017000048,459,627.85,-94.0,0.9,-58.2,-0.61,1.47,0.9,0.09,-1.01,-0.07,-2.55,-0.01,-0.01,0.0,1.0164152694642086,1.8283872675120005,0.012823004258173398,0.28,0,4,0.0
6.649426913000298,460,627.86,-94.1,0.8,-58.0,-0.28,1.8,0.98,0.09,-1.02,-0.05,-2.55,0.0,-0.11,0.0,1.0251829105091441,2.0685260452795853,0.021158832397046856,0.28,0,4,0.0
6.661006414999974,461,627.87,-94.1,0.8,-57.8,0.07,2.1,0.95,0.07,-1.0,-0.04,-2.55,0.03,0.16,0.0,1.0032447358446492,2.305948828573609,0.000763755422099166,0.28,0,4,0.0
6.669401090000065,462,627.88,-94.0,0.7,-57.6,0.36,2.31,0.82,0.05,-0.97,-0.03,-2.55,-0.01,-0.11,0.0,0.9717509969122748,2.4775189202102976,0.031612344467384146,0.28,0,4,0.0
6.680821539000135,463,627.89,-94.0,0.7,-57.4,0.38,2.42,0.66,0.01,-0.93,-0.02,-2.55,0.0,0.07,0.0,0.9302687783646187,2.5370061095708856,0.07163267175473942,0.28,0,4,0.0
6.689382033000129,464,627.9,-93.9,0.6,-57.1,0.16,2.42,0.49,-0.01,-0.91,-0.03,-2.55,0.0,0.21,0.0,0.9105492847726586,2.474287776310589,0.08952512203976548,0.28,0,4,0.0
6.700870006000059,465,627.91,-93.9,0.6,-56.9,-0.14,2.35,0.31,-0.04,-0.91,-0.03,-2.55,0.0,0.07,0.0,0.9113725912051559,2.37448941880144,0.08692777929512285,0.28,0,4,0.0
6.7093928510003025,466,627.92,-93.9,0.5,-56.6,-0.54,2.29,0.18,-0.06,-0.93,-0.03,-2.55,-0.03,-0.02,0.0,0.9324162160752033,2.3596821819897698,0.0645664713365739,0.28,0,4,0.0
6.7209039440003835,467,627.93,-94.0,0.5,-56.4,-0.88,2.15,0.05,-0.08,-0.98,-0.04,-2.55,-0.03,-0.3,0.0,0.9840731680114034,2.3236609046932815,0.012651329012366319,0.28,0,4,0.0
6.733474605000083,468,627.94,-94.1,0.5,-56.2,-1.03,1.93,-0.05,-0.09,-1.01,-0.05,-2.55,-0.01,-0.02,0.0,1.0152339631828715,2.1882184534456335,0.01813927683591976,0.28,0,4,0.0
6.741587548000098,469,627.95,-94.1,0.4,-56.0,-1.05,1.63,-0.12,-0.1,-1.06,-0.05,-2.55,0.0,-0.3,0.0,1.0658799181896619,1.9426270872197782,0.06740952720585591,0.28,0,4,0.0
6.74950379000029,470,627.96,-94.2,0.4,-55.9,-1.01,1.29,-0.11,-0.1,-1.09,-0.06,-2.55,0.0,0.02,0.0,1.0962207806824318,1.6420414123888594,0.09579538190465331,0.28,0,4,0.0
6.760717864000071,471,627.97,-94.3,0.3,-55.8,-0.84,0.98,-0.08,-0.09,-1.13,-0.08,-2.55,0.0,-0.02,0.0,1.136397817667739,1.2932130528261767,0.13325297051216123,0.28,0,4,0.0
6.769397691999984,472,627.98,-94.4,0.3,-55.7,-0.47,0.76,-0.07,-0.07,-1.13,-0.09,-2.55,-0.01,0.07,0.0,1.1357376457615551,0.8963258336118624,0.1299409426338578,0.28,0,4,0.0
6.780822821000129,473,627.99,-94.4,0.3,-55.6,0.02,0.6,-0.07,-0.05,-1.1,-0.1,-2.55,0.0,0.02,0.0,1.1056672193747992,0.604400529450463,0.09787310592215981,0.28,0,4,0.0
6.789276790000258,474,628.0,-94.4,0.3,-55.6,0.18,0.54,-0.01,-0.03,-1.03,-0.11,-2.55,0.02,0.11,0.0,1.0362914647916386,0.5692978130996114,0.027927404312219295,0.28,0,4,0.0
6.800942965000104,475,628.01,-94.4,0.3,-55.5,0.23,0.56,0.0,-0.01,-1.0,-0.11,-2.55,0.0,-0.02,0.0,1.006081507632458,0.6053924347066125,0.0022369017900218946,0.28,0,4,0.0
6.809456562000378,476,628.02,-94.4,0.3,-55.5,0.02,0.64,0.05,0.0,-0.97,-0.11,-2.55,0.0,0.07,0.0,0.9762171889492625,0.6422616289332564,0.03145919606375325,0.28,0,4,0.0
6.820865321000383,477,628.03,-94.4,0.2,-55.4,-0.19,0.72,0.08,0.0,-0.97,-0.1,-2.55,0.0,0.02,0.0,0.9751410154434075,0.7489325737341113,0.03188466217821606,0.28,0,4,0.0
6.829495093000332,478,628.04,-94.5,0.2,-55.3,-0.37,0.78,0.08,-0.02,-0.98,-0.09,-2.55,0.0,-0.29,0.0,0.9843271813782244,0.8670063436907484,0.022244526318531133,0.28,0,4,0.0
6.840866120000101,479,628.05,-94.5,0.2,-55.2,-0.33,0.78,0.02,-0.03,-1.02,-0.08,-2.55,0.01,-0.06,0.0,1.0235721762533407,0.8471717653463199,0.016660459185453558,0.28,0,4,0.0
6.849410836000061,480,628.06,-94.6,0.2,-55.2,-0.14,0.67,-0.08,-0.05,-1.0,-0.09,-2.55,0.0,0.07,0.0,1.0052860289489753,0.6891298861608022,0.001593174356533611,0.28,0,4,0.0
6.861012754000058,481,628.07,-94.6,0.2,-55.1,-0.15,0.56,-0.17,-0.06,-0.99,-0.07,-2.55,0.0,-0.06,0.0,0.9942836617384397,0.6041522986797286,0.01234363073572775,0.28,0,4,0.0
6.869382212000346,482,628.08,-94.6,0.2,-55.0,-0.07,0.37,-0.3,-0.08,-0.98,-0.08,-2.55,0.0,-0.01,0.0,0.9865089964110818,0.48145612468842885,0.019715930141823934,0.28,0,4,0.0
6.8810663940003,483,628.09,-94.6,0.1,-55.0,-0.04,0.17,-0.45,-0.1,-0.97,-0.07,-2.55,0.0,0.07,0.0,0.9776502442080194,0.4827007354458868,0.02800318869798868,0.28,0,4,0.0
6.889428911000323,484,628.1,-94.6,0.1,-55.0,-0.16,-0.02,-0.52,-0.11,-0.96,-0.07,-2.55,0.0,-0.06,0.0,0.9688137075826291,0.544426303552648,0.036102930816911405,0.28,0,4,0.0
6.900935765000213,485,628.11,-94.6,0.1,-55.0,-0.37,-0.26,-0.58,-0.12,-0.97,-0.07,-2.55,0.01,0.07,0.0,0.9798979538707079,0.7354590403278757,0.024518310838255952,0.28,0,4,0.0
6.909464624000066,486,628.12,-94.7,0.1,-55.1,-0.46,-0.57,-0.62,-0.13,-0.97,-0.07,-2.55,0.0,-0.06,0.0,0.981172767661231,0.9596353474106715,0.02277862710677825,0.28,0,4,0.0
6.920773216000271,487,628.13,-94.7,0.2,-55.2,-0.4,-1.03,-0.7,-0.14,-0.98,-0.06,-2.55,-0.01,0.21,0.0,0.991766101457395,1.3080137613954985,0.01194158744440188,0.28,0,4,0.0
6.929439683000055,488,628.14,-94.7,0.3,-55.3,-0.21,-1.45,-0.8,-0.14,-0.98,-0.09,-2.55,0.0,0.12,0.0,0.9940321926376429,1.6693112352104984,0.009481986338870985,0.28,0,4,0.0
6.940923228999964,489,628.15,-94.8,0.3,-55.5,-0.05,-1.88,-0.97,-0.14,-0.96,-0.12,-2.55,0.0,0.07,0.0,0.9775479527879949,2.1160812838830174,0.0254469016647485,0.28,0,4,0.0
6.949529973000153,490,628.16,-94.8,0.4,-55.7,0.0,-2.28,-1.14,-0.15,-0.93,-0.11,-2.55,0.0,-0.05,0.0,0.9484197383015602,2.54911749434976,0.05348361382815958,0.28,0,4,0.0
6.960978579000312,491,628.17,-94.8,0.5,-56.0,-0.03,-2.67,-1.35,-0.16,-0.91,-0.12,-2.55,0.0,-0.1,0.0,0.9317188417113824,2.9920394382427515,0.06878082020997067,0.28,0,4,0.0
6.969478099000298,492,628.18,-94.8,0.7,-56.3,-0.14,-2.99,-1.58,-0.18,-0.87,-0.11,-2.55,0.04,-0.05,0.0,0.8952094726934027,3.384686100659853,0.10318438544339137,0.28,0,4,0.0
6.980855334000353,493,628.19,-94.8,0.8,-56.6,-0.45,-3.34,-1.81,-0.19,-0.84,-0.11,-2.54,0.06,-0.11,0.0,0.8682165628459295,3.8254672917174446,0.12757374938504729,0.28,0,4,0.0
6.989305377000164,494,628.2,-94.9,1.0,-57.0,-0.88,-3.67,-2.05,-0.18,-0.85,-0.12,-2.54,0.02,0.09,0.0,0.8770974860299167,4.294857389949054,0.11631896967703892,0.28,0,4,0.0
7.000851545000387,495,628.21,-95.0,1.2,-57.4,-1.43,-4.0,-2.28,-0.15,-0.88,0.0,-2.54,0.03,-0.23,0.0,0.8926925562588723,4.821130572801363,0.09870942145912154,0.28,0,4,0.0
7.00942115900034,496,628.22,-95.3,1.3,-57.8,-3.37,-4.17,-1.98,-0.04,-0.97,0.0,-2.54,0.17,0.04,0.0,0.9708243919473799,5.715435241519232,0.020166034055201676,0.28,0,4,0.0
7.020850044000326,497,628.23,-95.7,1.5,-58.2,-5.79,-3.97,-1.44,0.17,-1.24,-0.01,-2.54,0.43,0.12,0.0,1.2516389255691915,7.166491470726801,0.2554355295752777,0.28,0,4,0.0
7.029450392000399,498,628.24,-96.4,1.5,-58.6,-8.09,-3.3,-0.48,0.46,-1.52,-0.1,-2.53,0.72,-0.04,0.0,1.5912259424732869,8.75034285042592,0.5831220955497856,0.28,1,5,3.0
7.0408144150001135,499,628.25,-97.2,1.5,-58.9,-6.95,-2.11,0.98,0.79,-1.7,-0.25,-2.52,1.03,0.0,0.0,1.8911901014969383,7.329051780414708,0.8654245294819682,0.28,0,5,3.0
7.04945238900018,500,628.26,-97.6,1.3,-59.0,-0.45,-1.44,2.0,0.9,-1.62,-0.32,-2.53,-1.33,3.03,3.49,1.8806381895516215,2.505214561669319,0.8377751651859184,0.28,0,5,3.0
7.060741856000277,501,628.27,-97.2,1.0,-59.1,8.08,-0.24,2.9,0.76,-1.29,-0.49,-2.56,-3.66,3.15,3.49,1.5753729717117786,8.588014904504998,0.521859748399154,0.28,0,5,3.0
7.069512410000243,502,628.28,-96.1,0.7,-58.9,12.81,2.31,3.52,0.44,-0.83,-0.49,-2.6,-4.95,3.66,3.49,1.0595281968876524,13.484161078836161,0.0058946741035272865,0.28,0,5,3.0
7.080695992000074,503,628.29,-94.8,0.4,-58.5,12.09,4.31,3.32,0.15,-0.67,-0.17,-2.66,-5.34,3.31,3.49,0.7073188814106407,13.257699649637566,0.33938834854601485,0.28,0,5,3.0
7.0893084560002535,504,628.3,-93.8,0.2,-58.1,7.94,4.52,2.07,-0.14,-0.62,0.04,-2.71,-5.21,3.51,3.49,0.6368673331236263,9.367972032409149,0.4016430988963686,0.28,0,5,3.0
7.100874457000373,505,628.31,-93.3,0.1,-57.6,3.54,4.06,0.6,-0.38,-0.67,0.06,-2.76,-4.84,3.42,3.49,0.772593036468748,5.419889297762455,0.2605990476402219,0.28,0,5,3.0
7.109462533000169,506,628.32,-93.2,0.1,-57.2,-1.56,3.7,-0.64,-0.51,-0.67,0.02,-2.8,-4.07,3.51,3.49,0.8422588675698226,4.066103786181558,0.18711455220836437,0.28,0,5,3.0
7.120783328000016,507,628.33,-93.6,0.2,-56.9,-6.37,2.39,-1.36,-0.53,-0.74,0.03,-2.83,-2.79,3.75,3.49,0.9107140056021978,6.938198613473097,0.11628622589246929,0.28,0,5,3.0
7.129452157000287,508,628.34,-94.4,0.4,-56.8,-8.05,1.4,-1.08,-0.41,-0.85,0.0,-2.85,-1.62,3.71,3.49,0.943716058992322,8.241899053009567,0.0816184890522983,0.28,0,5,3.0
7.140744054000152,509,628.35,-95.1,0.4,-56.7,-6.27,0.18,-0.41,-0.27,-1.02,0.08,-2.86,-0.44,3.58,3.49,1.058158778255891,6.285968501352834,0.03216774560704527,0.28,0,5,3.0
7.1493905520001135,510,628.36,-95.5,0.4,-56.7,-2.38,-0.77,0.52,-0.13,-1.15,0.07,-2.86,0.03,3.43,3.49,1.1594395197680643,2.5549363984256046,0.13077951737683424,0.28,0,5,3.0
7.160921870000038,511,628.37,-95.5,0.3,-56.8,1.63,-1.45,1.11,0.0,-1.2,-0.01,-2.86,0.01,3.35,3.49,1.2000416659433122,2.447754072614322,0.1679540302810405,0.28,0,5,3.0
7.169396596000297,512,628.38,-95.2,0.2,-57.0,3.9,-1.36,1.42,0.1,-1.11,-0.08,-2.86,0.0,3.43,3.49,1.1173629669896887,4.367608041021996,0.08356982470086871,0.28,0,5,3.0
7.180844804000117,513,628.39,-94.8,0.1,-57.1,3.48,-1.34,1.48,0.14,-0.95,0.0,-2.86,0.0,3.45,3.49,0.9602603813549739,4.012031904160285,0.07206210571516913,0.28,0,5,3.0
7.193605494000167,514,628.4,-94.5,0.0,-57.2,1.75,-1.49,1.17,0.15,-0.96,0.01,-2.86,0.0,3.77,3.49,0.9716995420396163,2.579050212772136,0.059410486129916174,0.28,0,5,3.0
7.201479224000195,515,628.41,-94.4,-0.1,-57.4,0.74,-1.28,0.46,0.14,-0.97,-0.08,-2.86,0.0,3.46,3.49,0.9833107342035883,1.5484185480676727,0.04684330808662529,0.28,0,5,3.0
7.209426090000306,516,628.42,-94.4,-0.1,-57.5,-0.2,-0.82,-0.02,0.12,-0.93,-0.09,-2.86,0.01,3.38,3.49,0.942019108086455,0.8442748367682172,0.08637223551968354,0.28,0,5,3.0
7.2208417570000165,517,628.43,-94.4,-0.1,-57.5,-0.54,-0.48,-0.26,0.12,-0.98,-0.1,-2.86,0.0,3.39,3.49,0.9923708984044222,0.7678541528180987,0.03530003629768208,0.28,0,5,0.0
7.229397296000116,518,628.44,-94.5,0.0,-57.6,-0.04,-0.12,-0.45,0.1,-0.99,-0.1,-2.86,0.0,3.55,3.49,1.0000499987500624,0.46743983570080977,0.027068517233000966,0.28,0,5,0.0
7.2407899910003835,519,628.45,-94.5,0.0,-57.6,0.28,0.14,-0.63,0.1,-1.0,-0.09,-2.86,1.3,0.53,0.0,1.0090094152187083,0.7034912934784624,0.017746918749067975,0.28,0,5,0.0
7.249394543000108,520,628.46,-94.5,0.1,-57.5,0.17,0.26,-0.77,0.05,-0.96,-0.08,-2.83,3.5,0.23,0.0,0.9646242791885346,0.8303011501858829,0.06088941368365697,0.28,0,5,0.0
7.260881429000165,521,628.47,-94.4,0.2,-57.5,-0.27,0.15,-0.69,0.0,-0.9,-0.01,-2.78,4.73,0.17,0.0,0.9000555538409838,0.7559761901012491,0.12294897625058354,0.28,0,5,0.0
7.269404360000408,522,628.48,-94.5,0.3,-57.5,-0.88,0.07,-0.52,0.0,-0.88,-0.03,-2.73,5.37,-0.02,0.0,0.8805112151472008,1.0245486811274513,0.13964344864547917,0.28,0,5,0.0
7.2809883160002755,523,628.49,-94.6,0.3,-57.5,-1.33,-0.15,-0.32,0.0,-0.89,-0.02,-2.67,5.75,-0.01,0.0,0.8902246907382427,1.3761540611428649,0.12733137359334856,0.28,0,5,0.0
7.289292888000091,524,628.5,-94.7,0.3,-57.6,-1.81,-0.37,-0.13,0.0,-0.92,-0.04,-2.62,5.8,-0.05,0.0,0.9208691546577071,1.8519989200860782,0.09475317148040652,0.28,0,5,0.0
7.300918665000154,525,628.51,-94.9,0.3,-57.6,-2.13,-0.49,0.04,0.01,-0.97,-0.07,-2.56,5.5,0.07,0.0,0.9725739046468397,2.1860009149128916,0.04218745306144844,0.28,0,5,0.0
7.309330388000035,526,628.52,-95.1,0.3,-57.7,-2.3,-0.79,0.13,0.01,-1.03,-0.06,-2.51,4.86,-0.04,0.0,1.0317945531936095,2.435364449112288,0.01669253157561501,0.28,0,5,0.0
7.32091278300004,527,628.53,-95.3,0.3,-57.7,-1.81,-0.9,0.15,0.02,-1.07,-0.11,-2.46,4.1,-0.26,0.0,1.0758252646224664,2.026968179325961,0.0595087781443826,0.28,0,5,0.0
7.329423149000377,528,628.54,-95.4,0.3,-57.8,-1.0,-0.99,0.05,0.03,-1.09,-0.12,-2.43,3.21,-0.15,0.0,1.096995897895703,1.4080482946262887,0.07906582318926691,0.28,0,5,0.0
7.340888934000304,529,628.55,-95.5,0.3,-57.9,-0.2,-1.04,0.01,0.04,-1.07,-0.12,-2.4,2.31,-0.16,0.0,1.0774506949276148,1.059103394386025,0.05833020781675513,0.28,0,5,0.0
7.349488095000197,530,628.56,-95.5,0.3,-58.0,0.37,-1.01,-0.03,0.06,-1.05,-0.11,-2.39,1.26,-0.19,0.0,1.057449762400087,1.076057619275102,0.03756268978344268,0.28,0,5,0.0
7.360822257000109,531,628.57,-95.5,0.4,-58.1,0.51,-1.04,-0.08,0.08,-1.0,-0.1,-2.38,0.31,-0.04,0.0,1.0081666528902848,1.1610770861575042,0.011486011331832247,0.28,0,5,0.0
7.369378536000113,532,628.58,-95.4,0.4,-58.2,0.42,-0.89,-0.09,0.11,-0.97,-0.12,-2.38,-0.22,-0.07,0.0,0.9835649444749441,0.9882307422864358,0.03536596535222958,0.28,0,5,0.0
7.3810250080000515,533,628.59,-95.4,0.4,-58.3,0.24,-0.58,-0.09,0.13,-0.96,-0.13,-2.39,-0.34,0.0,0.0,0.9774456506629922,0.6341135544995076,0.04065555398089782,0.28,0,5,0.0
7.3893973070003085,534,628.6,-95.4,0.4,-58.4,0.03,-0.22,-0.09,0.13,-0.94,-0.12,-2.39,-0.34,0.0,0.0,0.9565040512198576,0.23958297101421877,0.06036521035555176,0.28,0,5,0.0
7.400858846000119,535,628.61,-95.4,0.4,-58.4,-0.2,0.16,0.0,0.11,-0.93,-0.1,-2.39,-0.31,0.11,0.0,0.9418067742376883,0.25612496949731395,0.07356123759096667,0.28,0,5,0.0
7.409387851000247,536,628.62,-95.4,0.5,-58.3,-0.35,0.41,0.09,0.09,-0.94,-0.09,-2.39,-0.1,0.17,0.0,0.9485778829384544,0.5465345368775884,0.06545432631239656,0.28,0,5,0.0
7.4207646300001215,537,628.63,-95.5,0.5,-58.3,-0.42,0.62,0.16,0.07,-0.94,-0.08,-2.4,-0.03,0.11,0.0,0.9459915433025815,0.7657675887630658,0.06667985262930409,0.28,0,5,0.0
7.429318194000189,538,628.64,-95.5,0.6,-58.2,-0.49,0.72,0.22,0.04,-0.95,-0.07,-2.4,-0.03,0.23,0.0,0.9534149149242422,0.8982761268117949,0.05807135138749053,0.28,0,5,0.0
7.440622008999981,539,628.65,-95.5,0.6,-58.1,-0.47,0.74,0.25,0.03,-0.95,-0.06,-2.4,-0.06,0.09,0.0,0.9523654760647301,0.9115920140062659,0.05793837444206262,0.28,0,5,0.0
7.4536056380002265,540,628.66,-95.6,0.6,-58.1,-0.41,0.73,0.22,0.02,-0.97,-0.06,-2.4,-0.09,-0.04,0.0,0.97205966895042,0.8656789243131658,0.0374792979252454,0.28,0,5,0.0
7.4615415370003575,541,628.67,-95.6,0.6,-58.0,-0.39,0.73,0.13,0.03,-0.98,-0.08,-2.4,-0.06,0.03,0.0,0.983717439105356,0.8377947242612596,0.02530509721490315,0.28,0,5,0.0
7.469528343000093,542,628.68,-95.6,0.6,-57.9,-0.5,0.79,0.04,0.03,-0.99,-0.09,-2.4,0.02,-0.13,0.0,0.9945350672550466,0.9357884376289334,0.014197719683908261,0.28,0,5,0.0
7.480678516000353,543,628.69,-95.7,0.6,-57.8,-0.51,0.86,-0.04,0.05,-1.0,-0.1,-2.4,0.0,0.03,0.0,1.0062305898749053,1.000649788887201,0.0024521531227685855,0.28,0,5,0.0
7.489283426000384,544,628.7,-95.7,0.6,-57.7,-0.46,0.97,-0.04,0.07,-0.99,-0.1,-2.4,0.0,-0.04,0.0,0.9974968671630001,1.074290463515338,0.010962158317980308,0.28,0,5,0.0
7.50081103499997,545,628.71,-95.8,0.7,-57.6,-0.37,1.1,0.0,0.09,-0.99,-0.11,-2.4,0.0,0.03,0.0,1.0001499887516871,1.1605602095539895,0.008142855994707432,0.28,0,5,0.0
7.5094363279999925,546,628.72,-95.8,0.8,-57.5,-0.25,1.28,0.03,0.09,-0.98,-0.11,-2.4,0.0,-0.13,0.0,0.9902524930541705,1.304530566909032,0.01767954465837951,0.28,0,5,0.0
7.520792282000002,547,628.73,-95.9,0.8,-57.4,-0.18,1.54,0.08,0.09,-0.97,-0.11,-2.4,0.0,-0.21,0.0,0.9803570778037969,1.552546295606028,0.02702346071057815,0.28,0,5,0.0
7.529443646000345,548,628.74,-95.9,0.9,-57.2,-0.07,1.84,0.05,0.09,-0.98,-0.1,-2.4,-0.02,-0.11,0.0,0.9891915891272024,1.8420097719610502,0.017825170399429102,0.28,0,5,0.0
7.540862451000066,549,628.75,-95.9,0.9,-57.0,0.03,2.14,-0.07,0.07,-0.97,-0.1,-2.4,-0.01,0.12,0.0,0.9776502442080194,2.1413547113918328,0.02877918501223997,0.28,0,5,0.0
7.5494025550001425,550,628.76,-95.9,1.0,-56.8,0.17,2.35,-0.26,0.05,-0.95,-0.08,-2.4,-0.03,0.03,0.0,0.9546727187890098,2.3704429965725815,0.05072157622262452,0.28,0,5,0.0
7.56082312000035,551,628.77,-95.8,1.1,-56.5,0.24,2.39,-0.44,0.01,-0.93,-0.07,-2.4,-0.08,-0.12,0.0,0.9326842981416595,2.4419868959517372,0.07125579693257522,0.28,0,5,0.0
7.569402630000241,552,628.78,-95.8,1.1,-56.3,0.07,2.34,-0.62,-0.02,-0.93,-0.07,-2.4,-0.21,0.12,0.0,0.9328451104015072,2.4217555615709854,0.06967308497927305,0.28,0,5,0.0
7.580771024000114,553,628.79,-95.8,1.2,-56.1,-0.22,2.15,-0.8,-0.05,-0.93,-0.06,-2.4,-0.45,-0.09,0.0,0.9332738076256079,2.304538999453036,0.0678595000000689,0.28,0,5,0.0
7.5894286380002995,554,628.8,-95.8,1.3,-55.9,-0.64,1.84,-0.93,-0.07,-0.96,-0.05,-2.41,-0.67,0.01,0.0,0.9638464608017192,2.1587264764207625,0.036541109887478385,0.28,0,5,0.0
7.600850602000264,555,628.81,-95.9,1.4,-55.7,-0.85,1.5,-1.01,-0.08,-1.0,-0.08,-2.42,-0.83,0.08,0.0,1.00637965003273,1.9981491435826306,0.005872237756661791,0.28,0,5,0.0
7.6094807610002135,556,628.82,-95.9,1.4,-55.6,-0.86,1.16,-1.07,-0.1,-1.04,-0.09,-2.43,-0.93,0.05,0.0,1.048665819029113,1.7972478960900191,0.047195238617983915,0.28,0,5,0.0
7.620651033000286,557,628.83,-96.0,1.5,-55.5,-0.91,0.76,-1.02,-0.09,-1.06,-0.1,-2.44,-0.92,0.05,0.0,1.0685036265731624,1.5640012787718558,0.06569238523879273,0.28,0,5,0.0
7.629453837000256,558,628.84,-96.1,1.5,-55.5,-0.92,0.46,-0.88,-0.07,-1.1,-0.12,-2.45,-0.74,0.21,0.0,1.1087380213558116,1.3536617007214173,0.10380824442101311,0.28,0,5,0.0
7.640911059000246,559,628.85,-96.2,1.5,-55.5,-0.71,0.2,-0.77,-0.05,-1.12,-0.14,-2.45,-0.54,0.04,0.0,1.129822994986383,1.066302021005306,0.12239535369055288,0.28,0,5,0.0
7.649276927000301,560,628.86,-96.3,1.6,-55.5,-0.65,0.07,-0.54,-0.02,-1.1,-0.15,-2.45,-0.25,0.08,0.0,1.1103603018840327,0.8479386770280031,0.10087400737643848,0.28,0,5,0.0
7.660845333999987,561,628.87,-96.4,1.6,-55.5,-0.21,-0.01,-0.37,0.0,-1.1,-0.17,-2.46,0.0,-0.05,0.0,1.113058848399311,0.4255584566190642,0.10150110281388236,0.28,0,5,0.0
7.669448414000271,562,628.88,-96.4,1.6,-55.5,0.17,-0.01,-0.19,0.03,-1.05,-0.17,-2.45,0.05,0.07,0.0,1.0640958603434185,0.2551470164434615,0.051487352462830094,0.28,0,5,0.0
7.680829544000062,563,628.89,-96.4,1.6,-55.5,0.38,0.07,-0.04,0.05,-1.03,-0.17,-2.45,0.0,0.0,0.0,1.0451315706646698,0.3884584919911006,0.03187260152839966,0.28,0,5,0.0
7.689292021000256,564,628.9,-96.4,1.6,-55.5,0.41,0.23,0.05,0.05,-0.99,-0.17,-2.45,0.0,0.06,0.0,1.0057335631269346,0.4727578661429125,0.0073748978891488015,0.28,0,5,0.0
7.700859595000111,565,628.91,-96.4,1.6,-55.4,0.14,0.44,0.21,0.05,-0.97,-0.16,-2.45,0.01,0.01,0.0,0.984377976185977,0.5072474741188959,0.02815587513350426,0.28,0,5,0.0
7.709458205000374,566,628.92,-96.4,1.6,-55.4,-0.09,0.66,0.27,0.02,-0.99,-0.15,-2.45,0.01,0.0,0.0,1.0014988766843425,0.7187489130426564,0.010814275142436047,0.28,0,5,0.0
7.720882197000265,567,628.93,-96.4,1.6,-55.3,-0.18,0.79,0.29,0.0,-0.99,-0.15,-2.45,0.03,-0.07,0.0,1.0012991560967182,0.8605811989580066,0.010793715815459182,0.28,0,5,0.0
7.729437418000089,568,628.94,-96.5,1.6,-55.2,-0.21,0.85,0.32,-0.02,-1.0,-0.13,-2.45,0.03,-0.05,0.0,1.008612908900139,0.9322016949137134,0.003410363751797485,0.28,0,5,0.0
7.74078005399997,569,628.95,-96.5,1.5,-55.1,-0.14,0.8,0.32,-0.04,-0.99,-0.12,-2.45,0.03,-0.01,0.0,0.9980480950335009,0.8729261137118078,0.013695674066066976,0.28,0,5,0.0
7.749399820000235,570,628.96,-96.5,1.4,-55.0,-0.06,0.66,0.3,-0.06,-0.99,-0.11,-2.45,0.06,0.06,0.0,0.9978977903573091,0.7274613391789284,0.013569059167413688,0.28,0,5,0.0
7.7609910580004,571,628.97,-96.5,1.3,-55.0,0.04,0.49,0.25,-0.08,-0.98,-0.11,-2.45,0.04,0.13,0.0,0.9893937537704591,0.551543289325507,0.021631633839178432,0.28,0,5,0.0
7.769451410000329,572,628.98,-96.5,1.3,-54.9,0.14,0.3,0.16,-0.09,-0.97,-0.11,-2.45,0.0,0.0,0.0,0.9803570778037969,0.36769552621700474,0.03005494360972394,0.28,0,5,0.0
7.780708440000126,573,628.99,-96.5,1.2,-54.9,0.16,0.06,0.06,-0.09,-0.96,-0.1,-2.45,0.0,-0.08,0.0,0.9693812459502195,0.18110770276274835,0.04021015995403532,0.28,0,5,0.0
7.789062233000095,574,629.0,-96.5,1.1,-54.9,0.07,-0.14,-0.01,-0.09,-0.95,-0.1,-2.45,0.0,0.02,0.0,0.9594790253048786,0.15684387141358122,0.049110132987388644,0.28,0,5,0.0
7.800757198000156,575,629.01,-96.5,1.1,-55.0,-0.05,-0.39,-0.11,-0.09,-0.95,-0.09,-2.45,0.0,-0.03,0.0,0.9584883932526257,0.40828911325187206,0.04909874973884876,0.28,0,5,0.0
7.809325043000172,576,629.02,-96.5,1.0,-55.0,-0.14,-0.65,-0.23,-0.08,-0.96,-0.09,-2.45,0.0,0.0,0.0,0.9675226095549395,0.7035623639735145,0.03926324276780424,0.28,0,5,0.0
7.82085710399997,577,629.03,-96.5,1.0,-55.1,-0.2,-0.91,-0.37,-0.07,-0.96,-0.09,-2.45,0.0,0.04,0.0,0.9667471230885561,1.002496882788171,0.03923795464950375,0.28,0,5,0.0
7.829467002999991,578,629.04,-96.5,0.9,-55.2,-0.24,-1.12,-0.49,-0.06,-0.96,-0.11,-2.45,0.0,0.0,0.0,0.9681425514871248,1.2458330546265017,0.03708567572591648,0.28,0,5,0.0
7.840733900000032,579,629.05,-96.5,0.9,-55.3,-0.25,-1.24,-0.65,-0.05,-0.96,-0.12,-2.45,-0.01,-0.08,0.0,0.9687620966986683,1.4221814230259093,0.03573680790408562,0.28,0,5,0.0
7.849442769000234,580,629.06,-96.6,1.0,-55.5,-0.31,-1.3,-0.8,-0.04,-0.96,-0.12,-2.45,0.0,-0.01,0.0,0.9682974749528164,1.557594298910984,0.03547740105693875,0.28,0,5,0.0
7.860928392999995,581,629.07,-96.6,1.0,-55.6,-0.48,-1.34,-0.94,-0.03,-0.95,-0.12,-2.45,0.0,0.0,0.0,0.9580187889597991,1.7057549648176318,0.04484096530895698,0.28,0,5,0.0
7.869399344000158,582,629.08,-96.7,1.1,-55.7,-0.68,-1.36,-1.04,-0.02,-0.95,-0.12,-2.45,0.0,-0.03,0.0,0.9577577981932592,1.8421726303471129,0.04419991695398684,0.28,0,5,0.0
7.880835668000145,583,629.09,-96.8,1.1,-55.9,-0.78,-1.39,-1.12,-0.01,-0.96,-0.13,-2.45,0.0,0.0,0.0,0.9688137075826291,1.9480503073586164,0.03248112741332476,0.28,0,5,0.0
7.889376603000073,584,629.1,-96.9,1.2,-56.1,-0.88,-1.42,-1.17,-0.01,-0.96,-0.13,-2.45,0.0,0.12,0.0,0.9688137075826291,2.039534260560484,0.03183150486505837,0.28,0,5,0.0
7.90085269500014,585,629.11,-97.0,1.3,-56.2,-0.93,-1.45,-1.26,-0.01,-0.95,-0.14,-2.45,0.01,0.0,0.0,0.9603124491539199,2.134244597041304,0.03952610802789225,0.28,0,5,0.0
7.9094069820002915,586,629.12,-97.1,1.4,-56.4,-0.96,-1.5,-1.35,-0.01,-0.94,-0.15,-2.45,0.02,0.0,0.0,0.9519453765841819,2.234748307975643,0.046935316985677655,0.28,0,5,0.0
7.921026756000174,587,629.13,-97.2,1.5,-56.5,-1.05,-1.57,-1.41,-0.01,-0.94,-0.16,-2.45,0.03,0.05,0.0,0.9535722311393091,2.3570108188126757,0.044402293181939445,0.28,0,5,0.0
7.929457894000279,588,629.14,-97.4,1.6,-56.7,-1.22,-1.7,-1.47,-0.01,-0.94,-0.15,-2.45,0.06,0.0,0.0,0.9519453765841819,2.557205506016284,0.04510856478232539,0.28,0,5,0.0
7.9408132090002255,589,629.15,-97.5,1.7,-56.9,-1.39,-1.83,-1.5,-0.01,-0.95,-0.17,-2.45,0.09,-0.09,0.0,0.9651424765287248,2.7442667508826473,0.0312732355410269,0.28,0,5,0.0
7.949456356000155,590,629.16,-97.7,1.8,-57.1,-1.45,-1.93,-1.54,-0.01,-0.96,-0.17,-2.45,0.12,0.11,0.0,0.9749871794028884,2.863389599757602,0.020999962013526052,0.28,0,5,0.0
7.960855731000265,591,629.17,-97.9,1.9,-57.4,-1.33,-1.98,-1.63,0.0,-0.98,-0.11,-2.45,0.22,-0.01,0.0,0.986154146165801,2.88897905842185,0.009636335345601155,0.28,0,5,0.0
7.969349779000368,592,629.18,-98.0,2.0,-57.6,-1.68,-1.99,-1.5,0.01,-1.01,-0.04,-2.44,0.35,-0.03,0.0,1.0108412338245805,3.0054117854297435,0.014749737266914753,0.28,0,5,0.0
7.980899364000379,593,629.19,-98.2,2.1,-57.8,-3.0,-1.98,-0.97,0.13,-1.13,-0.02,-2.44,0.54,-0.13,0.0,1.1376291135515122,3.72307668467895,0.13870686465396953,0.28,0,5,0.0
7.993478946000323,594,629.2,-98.6,2.1,-58.0,-4.58,-1.68,-0.14,0.31,-1.3,-0.13,-2.43,0.8,-0.13,0.0,1.3427583550289308,4.880409818857428,0.33695938400876035,0.28,1,6,3.0
8.001458991000163,595,629.21,-99.1,2.0,-58.1,-4.84,-1.04,0.82,0.47,-1.42,-0.2,-2.42,1.03,0.05,0.0,1.5090725628676707,5.017927859186499,0.49320812001055025,0.28,0,6,3.0
8.00942788400016,596,629.22,-99.4,1.9,-58.1,-1.52,-0.31,1.44,0.5,-1.43,-0.2,-2.41,0.22,2.88,3.49,1.5280379576437229,2.1166246714994137,0.5019300444908703,0.28,0,6,3.0
8.020956793000096,597,629.23,-99.2,1.8,-58.1,4.92,0.29,1.76,0.44,-1.19,-0.17,-2.44,-3.47,3.12,3.49,1.2800781226159597,5.233364118805417,0.248890805273845,0.28,0,6,3.0
8.029446079000081,598,629.24,-98.5,1.6,-58.0,8.56,1.43,1.73,0.37,-0.8,-0.3,-2.49,-5.11,3.09,3.49,0.9310746479203481,8.849372859135274,0.09811041603333115,0.28,0,6,3.0
8.040843308000149,599,629.25,-97.6,1.4,-57.7,8.0,3.09,1.72,0.25,-0.64,-0.3,-2.55,-6.05,3.3,3.49,0.7497332859090625,8.74679941464305,0.27386274248372444,0.28,0,6,3.0
8.049465670000245,600,629.26,-97.0,1.3,-57.3,4.82,4.31,1.17,0.09,-0.63,-0.17,-2.61,-6.31,3.72,3.49,0.6587108622149782,6.570951224898872,0.3575874628542526,0.28,0,6,3.0
8.060842637000405,601,629.27,-96.7,1.3,-56.9,1.12,5.08,0.44,-0.06,-0.7,-0.13,-2.67,-6.0,3.19,3.49,0.71449282711585,5.220574681009745,0.2957693879943132,0.28,0,6,3.0
8.069434531000297,602,629.28,-96.8,1.4,-56.3,-1.91,5.28,-0.41,-0.25,-0.82,0.05,-2.73,-5.46,3.95,3.49,0.8587199776411399,5.6297957334169775,0.14851139271964275,0.28,0,6,3.0
8.080882400000064,603,629.29,-97.0,1.5,-55.9,-3.33,4.54,-0.89,-0.34,-0.96,0.06,-2.77,-4.53,3.36,3.49,1.020196059588548,5.700228065612813,0.012705395443209921,0.28,0,6,3.0
8.089309572000275,604,629.3,-97.3,1.7,-55.5,-2.62,3.82,-1.04,-0.41,-1.1,0.04,-2.81,-3.69,3.62,3.49,1.1746063170271137,4.747462480104503,0.1637733398241401,0.28,0,6,3.0
8.100734499000282,605,629.31,-97.5,1.8,-55.2,-0.88,2.35,-1.02,-0.4,-1.13,0.07,-2.84,-2.52,3.64,3.49,1.20074976577137,2.7087450969037308,0.18611845279702832,0.28,0,6,3.0
8.109454780000306,606,629.32,-97.5,1.9,-55.0,0.95,0.83,-0.77,-0.35,-1.09,0.01,-2.86,-1.65,3.53,3.49,1.144858069806035,1.4779377524104322,0.12762222169505955,0.28,0,6,3.0
8.120888279000155,607,629.33,-97.3,2.0,-55.0,2.08,-0.3,-0.47,-0.25,-1.05,-0.01,-2.87,-0.53,3.39,3.49,1.0793979803575695,2.1534391098891095,0.06091888960166214,0.28,0,6,3.0
8.129449577000287,608,629.34,-97.1,2.0,-55.1,2.13,-1.28,-0.37,-0.16,-0.96,-0.05,-2.87,0.0,3.35,3.49,0.9745255255764211,2.5124092023394593,0.04307449387589646,0.28,0,6,3.0
8.140906850000192,609,629.35,-96.9,2.0,-55.3,1.26,-1.84,-0.32,-0.1,-0.9,-0.08,-2.87,0.0,3.55,3.49,0.9090654541890809,2.2529092303064497,0.10636387395797187,0.28,0,6,3.0
8.149397812000188,610,629.36,-96.9,2.0,-55.5,0.43,-2.17,-0.56,-0.05,-0.91,-0.1,-2.87,0.0,3.36,3.49,0.9168424073961675,2.2819728306883937,0.09661518233586752,0.28,0,6,3.0
8.16088440500016,611,629.37,-96.9,2.0,-55.7,-0.08,-2.28,-0.95,-0.01,-0.94,-0.15,-2.87,0.0,3.62,3.49,0.9519453765841819,2.4712952069714373,0.06028196888489612,0.28,0,6,3.0
8.169302611000148,612,629.38,-96.9,2.1,-56.0,-0.36,-2.19,-1.4,0.02,-0.97,-0.19,-2.87,0.0,3.7,3.49,0.9886354231970448,2.6240617370786077,0.023120083826592475,0.28,0,6,3.0
8.180762614000287,613,629.39,-97.0,2.2,-56.2,-0.64,-2.06,-1.68,0.05,-1.0,-0.21,-2.87,0.0,3.37,3.49,1.0230347012687302,2.734154348240055,0.011053610360191035,0.28,0,6,0.0
8.189447291000306,614,629.4,-97.2,2.4,-56.4,-0.92,-1.95,-1.72,0.06,-1.04,-0.2,-2.87,0.0,3.38,3.49,1.0607544484940896,2.7581334267942874,0.04779789043383942,0.28,0,6,0.0
8.200978193000083,615,629.41,-97.3,2.5,-56.6,-0.96,-2.01,-1.63,0.03,-1.07,-0.17,-2.87,1.38,0.6,0.0,1.0838357809188621,2.7601811534752567,0.06946163840143971,0.28,0,6,0.0
8.209529928000393,616,629.42,-97.4,2.6,-56.9,-1.04,-2.09,-1.48,-0.04,-1.11,-0.13,-2.84,3.68,0.02,0.0,1.1183022847155415,2.7640730815229904,0.10184957935415673,0.28,0,6,0.0
8.220907804000035,617,629.43,-97.5,2.7,-57.1,-0.8,-2.82,-1.44,-0.15,-1.08,-0.02,-2.79,4.88,0.0,0.0,1.0905503197927182,3.2658842600435185,0.07261566214270676,0.28,0,6,0.0
8.229387813000358,618,629.44,-97.6,2.8,-57.5,-0.97,-3.6,-1.26,-0.17,-1.04,-0.02,-2.74,5.51,0.04,0.0,1.0539924098398432,3.9355431645453973,0.0353365971460351,0.28,0,6,0.0
8.241081542000302,619,629.45,-97.8,2.9,-57.9,-1.31,-4.44,-1.0,-0.16,-1.04,-0.04,-2.68,5.72,0.07,0.0,1.0529957264870549,4.736000422297279,0.033653115517381815,0.28,0,6,0.0
8.249467814000127,620,629.46,-97.9,2.9,-58.4,-1.64,-5.13,-0.84,-0.12,-1.1,-0.06,-2.62,5.61,-0.06,0.0,1.1081516141756056,5.450880662792023,0.08703282314181382,0.28,0,6,0.0
8.260856848999993,621,629.47,-98.1,2.9,-58.9,-2.06,-5.61,-0.67,-0.05,-1.18,-0.07,-2.57,5.21,0.01,0.0,1.1831314381758267,6.013701023496264,0.1587723941991941,0.28,0,6,0.0
8.269476874000247,622,629.48,-98.4,2.9,-59.5,-2.05,-5.81,-0.52,0.04,-1.3,-0.14,-2.52,4.57,0.02,0.0,1.3081284340614268,6.182960455962823,0.2780940022830982,0.28,0,6,0.0
8.280869477000124,623,629.49,-98.5,2.8,-60.1,-1.02,-5.6,-0.34,0.16,-1.38,-0.16,-2.48,3.82,-0.3,0.0,1.398427688513067,5.702280245656118,0.3610253916000439,0.28,0,6,0.0
8.289512451000064,624,629.5,-98.5,2.8,-60.6,1.64,-5.19,-0.16,0.25,-1.42,-0.14,-2.45,2.95,0.11,0.0,1.4486200329969208,5.445300726314388,0.4029933813622195,0.28,0,6,0.0
8.300911990000259,625,629.51,-98.2,2.7,-61.1,5.22,-4.98,-0.23,0.3,-1.37,-0.08,-2.43,2.09,-0.13,0.0,1.404741969188648,7.218150732701555,0.3519330112028678,0.28,0,6,0.0
8.309459008999966,626,629.52,-97.5,2.7,-61.6,8.1,-4.84,-0.72,0.28,-1.17,-0.09,-2.41,1.22,-0.13,0.0,1.2063996021219503,9.463297522534099,0.15051883125344667,0.28,0,6,0.0
8.32100190400024,627,629.53,-96.7,2.7,-62.1,8.87,-4.73,-1.1,0.22,-0.94,-0.07,-2.4,0.28,-0.05,0.0,0.9679359482941007,10.11235877528087,0.08618592612291487,0.28,0,6,0.0
8.32938613100032,628,629.54,-95.9,2.8,-62.6,7.68,-4.66,-1.42,0.1,-0.72,-0.05,-2.41,-0.27,0.08,0.0,0.7286288492778747,9.094745735863098,0.3189831646363579,0.28,0,6,0.0
8.341226356000334,629,629.55,-95.2,3.0,-63.0,5.05,-4.46,-1.54,0.01,-0.62,-0.03,-2.41,-0.48,-0.05,0.0,0.6208059278067503,6.911273399309276,0.4182699643853328,0.28,0,6,0.0
8.349437414000022,630,629.56,-94.9,3.0,-63.5,1.97,-4.21,-1.38,-0.04,-0.61,-0.01,-2.42,-0.62,0.0,0.0,0.6113918547053109,4.848649296453601,0.4191303567370367,0.28,0,6,0.0
8.36126425800012,631,629.57,-94.9,3.1,-63.9,0.0,-3.86,-1.19,-0.06,-0.75,-0.03,-2.42,-0.77,0.03,0.0,0.752994023880668,4.039269735979512,0.2719776238104459,0.28,0,6,0.0
8.369492272000116,632,629.58,-94.9,3.2,-64.3,-0.29,-3.78,-1.1,-0.05,-0.9,-0.01,-2.43,-0.86,-0.18,0.0,0.901443287178955,3.947467542615138,0.12105779330191568,0.28,0,6,0.0
8.380828618000123,633,629.59,-94.9,3.3,-64.7,0.55,-3.88,-1.05,-0.01,-0.99,-0.03,-2.44,-1.09,0.18,0.0,0.9905049217444606,4.057018609767522,0.03135623556168188,0.28,0,6,0.0
8.389270972000304,634,629.6,-94.8,3.3,-65.1,1.6,-4.13,-0.97,0.03,-1.0,-0.02,-2.45,-1.35,-0.03,0.0,1.000649788887201,4.534071018411599,0.020787141050562674,0.28,0,6,0.0
8.400964700000259,635,629.61,-94.6,3.4,-65.5,2.2,-4.35,-0.89,0.1,-0.96,-0.05,-2.47,-1.56,0.03,0.0,0.9664884893261791,4.955259831734356,0.053849471799352955,0.28,0,6,0.0
8.409400768000069,636,629.62,-94.4,3.5,-66.0,2.18,-4.46,-1.0,0.19,-1.01,-0.01,-2.49,-1.8,-0.04,0.0,1.0277645644796283,5.063990521318144,0.007278071287014187,0.28,0,6,0.0
8.420928073000141,637,629.63,-94.2,3.6,-66.4,2.33,-4.58,-1.25,0.25,-0.93,-0.07,-2.51,-2.02,0.14,0.0,0.9655568341635826,5.288459132866586,0.053831065848450765,0.28,0,6,0.0
8.42957436200004,638,629.64,-94.0,3.6,-66.9,1.63,-4.34,-1.27,0.27,-0.96,-0.06,-2.53,-2.12,-0.06,0.0,0.9990495483208027,4.806807672457886,0.019931584657406076,0.28,0,6,0.0
8.441008883999984,639,629.65,-93.9,3.8,-67.3,1.24,-4.21,-1.47,0.27,-1.01,-0.09,-2.55,-2.22,0.21,0.0,1.0493331215586401,4.62845546591949,0.029744948808822613,0.28,0,6,0.0
8.4494342160001,640,629.66,-93.8,3.9,-67.7,0.83,-3.95,-1.49,0.24,-0.99,-0.11,-2.57,-2.25,-0.15,0.0,1.0245974819410792,4.302499273678032,0.004909123007436511,0.28,0,6,0.0
8.461187531000178,641,629.67,-93.8,4.0,-68.1,0.82,-3.86,-1.42,0.19,-1.0,-0.1,-2.59,-2.2,-0.04,0.0,1.0227903010881556,4.193852644049383,0.003039903311422565,0.28,0,6,0.0
8.469496764000269,642,629.68,-93.7,4.2,-68.5,1.1,-3.83,-1.37,0.13,-0.99,-0.08,-2.62,-2.09,-0.02,0.0,1.0016985574512924,4.213763163729068,0.01769080351893182,0.28,0,6,0.0
8.480817710000338,643,629.69,-93.6,4.3,-68.9,1.16,-3.86,-1.26,0.09,-0.94,-0.08,-2.64,-2.06,0.08,0.0,0.9476813810558905,4.222890005671471,0.07027382031604701,0.28,0,6,0.0
8.489431311000317,644,629.7,-93.6,4.4,-69.3,0.88,-3.83,-1.12,0.07,-0.91,-0.08,-2.66,-2.05,0.06,0.0,0.9161877536837086,4.086281928599641,0.09973209873446431,0.28,0,6,0.0
8.500965748999988,645,629.71,-93.6,4.5,-69.7,0.55,-3.82,-1.02,0.08,-0.91,-0.09,-2.68,-2.02,0.02,0.0,0.9179324593890337,3.991904307470308,0.09602764516855644,0.28,0,6,0.0
8.50944890000028,646,629.72,-93.6,4.6,-70.1,0.3,-3.73,-0.9,0.12,-0.92,-0.1,-2.7,-2.04,-0.02,0.0,0.9331666517830564,3.8487530448185425,0.07917758371904315,0.28,0,6,0.0
8.521066926000003,647,629.73,-93.6,4.7,-70.5,0.28,-3.63,-0.81,0.16,-0.94,-0.12,-2.72,-2.07,-0.03,0.0,0.961041102138717,3.729798922194064,0.05027707069611498,0.28,0,6,0.0
8.529546218000178,648,629.74,-93.6,4.7,-70.8,0.51,-3.5,-0.74,0.19,-0.96,-0.14,-2.74,-2.09,-0.06,0.0,0.9885848471426213,3.613543966800459,0.022278659178366356,0.28,0,6,0.0
8.540729917000135,649,629.75,-93.6,4.8,-71.2,0.71,-3.36,-0.68,0.23,-0.96,-0.16,-2.76,-2.11,-0.01,0.0,1.0000499987500624,3.5008713201144652,0.010597237419506689,0.28,0,6,0.0
8.549498719999974,650,629.76,-93.5,4.8,-71.5,0.85,-3.11,-0.57,0.27,-0.93,-0.2,-2.78,-2.18,0.01,0.0,0.9888377015466189,3.2740647519558923,0.021373343930491173,0.28,0,6,0.0
8.560934038000141,651,629.77,-93.5,4.8,-71.8,0.83,-2.76,-0.39,0.29,-0.93,-0.2,-2.8,-2.2,-0.01,0.0,0.9944847912361456,2.908367239534925,0.015411729156145082,0.28,0,6,0.0
8.569507266000073,652,629.78,-93.4,4.8,-72.1,1.02,-2.45,-0.22,0.31,-0.94,-0.21,-2.83,-2.21,-0.12,0.0,1.011830025251277,2.662949492573977,0.0018948347618066297,0.28,0,6,0.0
8.580837524000344,653,629.79,-93.3,4.8,-72.3,1.25,-2.08,-0.04,0.31,-0.93,-0.22,-2.85,-2.19,0.07,0.0,1.0046890066085128,2.4270352284217056,0.0051412602033384935,0.28,0,6,0.0
8.589431143000184,654,629.8,-93.2,4.8,-72.5,1.42,-1.7,0.16,0.31,-0.91,-0.21,-2.87,-2.05,0.09,0.0,0.9840223574695852,2.2208106627986095,0.025291751155420705,0.28,0,6,0.0
8.600947725999958,655,629.81,-93.0,4.8,-72.6,1.47,-1.28,0.36,0.3,-0.89,-0.2,-2.89,-1.81,0.08,0.0,0.9602603813549739,1.982145302443794,0.04807265272463135,0.28,0,6,0.0
8.609443064000061,656,629.82,-92.9,4.7,-72.7,1.33,-0.86,0.54,0.28,-0.87,-0.19,-2.9,-1.51,-0.06,0.0,0.9334880824091971,1.673349933516597,0.07334805263700006,0.28,0,6,0.0
8.621127213000364,657,629.83,-92.8,4.7,-72.8,1.09,-0.48,0.67,0.26,-0.85,-0.18,-2.92,-1.18,0.15,0.0,0.9069178573608526,1.3665284482951683,0.09791991213163775,0.28,0,6,0.0
8.629588597000293,658,629.84,-92.7,4.6,-72.8,0.75,-0.09,0.8,0.25,-0.84,-0.18,-2.93,-0.74,-0.06,0.0,0.8947066558375432,1.1002726934719411,0.10792849138184835,0.28,0,6,0.0
8.64091055400013,659,629.85,-92.7,4.5,-72.8,0.28,0.28,0.9,0.24,-0.86,-0.17,-2.93,-0.12,0.06,0.0,0.9089004345911602,0.9832598842625484,0.0918600183756666,0.28,0,6,0.0
8.649448108000342,660,629.86,-92.6,4.4,-72.8,-0.07,0.57,0.95,0.22,-0.86,-0.17,-2.93,0.18,-0.17,0.0,0.9038252043398657,1.1100900864344299,0.0949965436544219,0.28,0,6,0.0
8.660931198000071,661,629.87,-92.7,4.3,-72.7,-0.39,0.83,1.07,0.23,-0.86,-0.16,-2.93,0.13,-0.11,0.0,0.9044888059008801,1.4092196422133776,0.09244628325153936,0.28,0,6,0.0
8.669492092000382,662,629.88,-92.7,4.2,-72.6,-0.54,0.99,1.16,0.23,-0.88,-0.15,-2.93,0.0,0.07,0.0,0.921845974119321,1.6178071578528759,0.07358733273243645,0.28,0,6,0.0
8.680919609000284,663,629.89,-92.7,4.1,-72.5,-0.52,1.27,1.31,0.23,-0.88,-0.18,-2.93,0.0,-0.24,0.0,0.9272000862812729,1.8972084756293917,0.06686855615907483,0.28,0,6,0.0
8.689482606000183,664,629.9,-92.8,4.0,-72.3,-0.63,1.46,1.44,0.23,-0.9,-0.14,-2.93,0.06,0.19,0.0,0.9394147114027968,2.145250568115529,0.053560852416799976,0.28,0,6,0.0
8.700825555000392,665,629.91,-92.8,3.8,-72.2,-0.63,1.66,1.57,0.24,-0.91,-0.15,-2.92,0.19,-0.04,0.0,0.9529952780575568,2.3701054828846755,0.03918068004679909,0.28,0,6,0.0
8.709470559000238,666,629.92,-92.9,3.7,-72.0,-0.55,1.91,1.73,0.24,-0.92,-0.15,-2.92,0.41,0.0,0.0,0.9625487000666512,2.635052181646504,0.029034712876950586,0.28,0,6,0.0
8.720972299000096,667,629.93,-92.9,3.5,-71.8,-0.46,2.09,1.92,0.25,-0.91,-0.15,-2.92,0.54,0.09,0.0,0.9555626614722867,2.8750826075088693,0.03530033644188868,0.28,0,6,0.0
8.729481657000179,668,629.94,-93.0,3.3,-71.5,-0.39,2.36,2.16,0.25,-0.91,-0.15,-2.91,0.85,0.09,0.0,0.9555626614722867,3.222933446411824,0.034594329713050875,0.28,0,6,0.0
8.740769108000222,669,629.95,-93.0,3.1,-71.3,-0.32,2.66,2.38,0.25,-0.92,-0.16,-2.9,1.22,0.27,0.0,0.9666954018717582,3.5836294451296165,0.022992357527307883,0.28,0,6,0.0
8.749451987000157,670,629.96,-93.0,2.8,-71.0,-0.36,3.01,2.54,0.23,-0.93,-0.15,-2.88,1.7,0.07,0.0,0.9696906723280369,3.954908342806442,0.019597145329608656,0.28,0,6,0.0
8.760965509000016,671,629.97,-93.0,2.6,-70.6,-0.4,3.29,2.72,0.2,-0.91,-0.13,-2.86,2.34,0.28,0.0,0.940744386111339,4.287481778386936,0.04757256291538037,0.28,0,6,0.0
8.769473338000353,672,629.98,-93.0,2.3,-70.3,-0.29,3.53,3.0,0.19,-0.89,-0.13,-2.83,3.09,-0.01,0.0,0.9192932067626738,4.64165918611007,0.0676432674187647,0.28,0,6,0.0
8.780948509000154,673,629.99,-93.0,2.0,-69.9,-0.13,3.67,3.27,0.17,-0.87,-0.12,-2.8,3.82,0.38,0.0,0.8945389874119518,4.917184153557806,0.09054953703409696,0.28,0,6,0.0
8.789306234000378,674,630.0,-93.1,1.7,-69.5,-0.29,3.9,3.62,0.15,-0.83,-0.15,-2.75,4.55,0.21,0.0,0.8566796367370944,5.3290243009391505,0.12584070995477536,0.28,0,6,0.0
8.800886395000362,675,630.01,-93.1,1.4,-69.1,-0.76,4.23,3.85,0.09,-0.85,-0.12,-2.71,4.62,-0.08,0.0,0.8631338250816034,5.770008665504759,0.116998791178061,0.28,0,6,0.0
8.809420436999972,676,630.02,-93.2,1.0,-68.6,-1.77,4.54,3.74,0.0,-0.95,-0.02,-2.66,3.99,-0.08,0.0,0.9502105029939418,6.142646009660658,0.029323671000408114,0.28,0,6,0.0
8.821313394000299,677,630.03,-93.4,0.6,-68.1,-2.5,4.48,3.63,-0.01,-0.91,0.0,-2.63,3.14,0.1,0.0,0.9100549433962765,6.2846877408507735,0.068089645986112,0.28,0,6,0.0
8.829429691000314,678,630.04,-93.7,0.3,-67.7,-3.43,4.69,3.4,0.01,-1.12,0.09,-2.6,2.16,-0.11,0.0,1.123654751247019,6.732087343461907,0.14259995862733787,0.28,0,6,0.0
8.84128827700033,679,630.05,-94.1,0.0,-67.2,-5.49,4.86,2.62,-0.09,-1.39,0.13,-2.59,1.08,0.07,0.0,1.3989639023220004,7.786147956467307,0.40955092750827293,0.28,1,7,3.0
8.84956133500009,680,630.06,-94.7,0.0,-66.6,-6.67,5.37,1.64,-0.26,-1.61,0.0,-2.59,-0.01,-0.19,0.0,1.6308586695357756,8.718681092917667,0.6286167808276071,0.28,0,7,3.0
8.860851430000366,681,630.07,-95.4,-0.1,-66.1,-5.81,5.27,0.41,-0.35,-1.71,0.15,-2.6,-2.67,2.59,3.49,1.7518846994023323,7.854750155160889,0.7346499544802805,0.28,0,7,3.0
8.869455885000207,682,630.08,-95.8,0.0,-65.6,-1.67,4.12,-0.45,-0.29,-1.5,0.15,-2.67,-8.12,2.6,3.49,1.5351221449773955,4.4683106427373644,0.507529652054237,0.28,0,7,3.0
8.880782214000192,683,630.09,-95.7,0.0,-65.3,2.57,3.27,-0.57,-0.13,-1.17,0.04,-2.77,-11.48,2.89,3.49,1.177879450538127,4.197939970985769,0.14728121846266906,0.28,0,7,3.0
8.889357274000304,684,630.1,-95.2,0.1,-65.0,5.79,2.89,-0.18,0.11,-0.85,-0.03,-2.89,-12.22,3.97,3.49,0.8576129663198895,6.473685194693977,0.16952556044045708,0.28,0,7,3.0
8.900854627000172,685,630.11,-94.5,0.1,-64.7,7.63,2.97,0.2,0.37,-0.69,-0.07,-3.0,-10.1,4.24,3.49,0.7860661549767932,8.190103784446203,0.2362509243478822,0.28,0,7,3.0
8.909499404000144,686,630.12,-93.8,0.1,-64.3,7.26,3.78,0.12,0.45,-0.68,-0.19,-3.09,-7.48,3.8,3.49,0.8372574275573792,8.185988028332316,0.18135845873195033,0.28,0,7,3.0
8.920857235000312,687,630.13,-93.2,0.1,-63.9,4.73,5.48,-0.38,0.32,-0.74,-0.36,-3.14,-5.18,4.01,3.49,0.8829496021857647,7.248979238485926,0.13295295842149357,0.28,0,7,3.0
8.929431315000329,688,630.14,-92.9,0.2,-63.2,0.91,7.25,-0.92,0.05,-0.78,-0.19,-3.18,-3.54,4.0,3.49,0.8043631020876082,7.364577380949975,0.20730866934925707,0.28,0,7,3.0
8.941203502999997,689,630.15,-93.0,0.3,-62.5,-2.52,7.3,-0.89,-0.12,-0.82,0.1,-3.21,-2.25,3.73,3.49,0.8347454701883682,7.773834317761088,0.17338777522352722,0.28,0,7,3.0
8.949424679000003,690,630.16,-93.3,0.4,-61.8,-3.57,5.93,-0.36,-0.23,-1.07,0.29,-3.23,-1.21,3.67,3.49,1.1322102278287367,6.931046097090972,0.12159544276850442,0.28,0,7,3.0
8.960875806000331,691,630.17,-93.6,0.5,-61.3,-2.09,4.07,0.08,-0.28,-1.26,0.22,-3.23,-0.32,3.51,3.49,1.3093509842666329,4.575958915899486,0.2927614752222727,0.28,0,7,3.0
8.96953518700002,692,630.18,-93.7,0.5,-61.0,-0.26,2.38,0.24,-0.34,-1.31,0.05,-3.23,0.0,3.45,3.49,1.3543264008354854,2.4061587645041214,0.3309821539553026,0.28,0,7,3.0
8.980958878000365,693,630.19,-93.7,0.5,-60.8,0.93,1.69,0.44,-0.37,-1.25,-0.09,-3.23,0.0,3.67,3.49,1.306713434537198,1.978534811419804,0.277701803903875,0.28,0,7,3.0
8.989528774000064,694,630.2,-93.6,0.4,-60.7,1.16,1.34,0.57,-0.33,-1.19,-0.1,-3.23,0.0,3.47,3.49,1.2389511693363866,1.861746491872618,0.20574074792900232,0.28,0,7,3.0
9.000935434999974,695,630.21,-93.5,0.4,-60.6,1.02,0.99,0.67,-0.21,-1.12,-0.07,-3.23,0.0,3.46,3.49,1.1416654501210064,1.5714324675276377,0.10628592813934956,0.28,0,7,3.0
9.009451693000301,696,630.22,-93.4,0.3,-60.5,0.94,0.8,0.72,-0.06,-1.08,-0.11,-3.23,0.0,3.41,3.49,1.0872442227944925,1.4289856542317,0.050827406796579044,0.28,0,7,3.0
9.02082807700026,697,630.23,-93.3,0.2,-60.4,1.01,0.8,0.65,0.06,-1.05,-0.15,-3.23,0.0,3.63,3.49,1.0623558725775464,1.4431216164966834,0.025420275448040153,0.28,0,7,3.0
9.029443040000388,698,630.24,-93.2,0.2,-60.3,1.51,1.04,0.56,0.13,-1.01,-0.17,-3.23,0.0,3.49,3.49,1.0324243313676793,1.9171071957509314,0.0044210404465903075,0.28,0,7,0.0
9.040909957000167,699,630.25,-93.0,0.1,-60.2,1.81,1.39,0.56,0.15,-0.95,-0.15,-3.23,0.0,3.63,3.49,0.9733961166965892,2.349851059109917,0.06218027001532689,0.28,0,7,0.0
9.049507153000377,700,630.26,-92.8,0.1,-60.0,1.5,1.82,0.65,0.14,-0.92,-0.13,-3.22,1.91,0.4,0.0,0.9396275858019495,2.4464055264816587,0.09402982489176737,0.28,0,7,0.0
9.06081195600018,701,630.27,-92.7,0.0,-59.8,0.57,2.15,0.69,0.01,-0.93,-0.07,-3.19,3.92,0.35,0.0,0.9326842981416595,2.328840913415942,0.0989536503010161,0.28,0,7,0.0
9.069500663000326,702,630.28,-92.7,0.0,-59.6,-0.4,1.76,0.71,-0.11,-0.93,0.03,-3.14,5.04,0.07,0.0,0.9369631796394137,1.9395102474593942,0.09278127342719678,0.28,0,7,0.0
9.080871652000042,703,630.29,-92.8,0.0,-59.4,-0.81,1.27,0.85,-0.14,-0.92,0.01,-3.09,5.59,0.07,0.0,0.9306449376641985,1.7295953283933212,0.09711752509436367,0.28,0,7,0.0
9.089362114000323,704,630.3,-92.9,-0.1,-59.3,-0.71,0.87,1.04,-0.15,-0.94,0.0,-3.03,5.71,-0.06,0.0,0.951892851112981,1.5305554547287727,0.07435221941266945,0.28,0,7,0.0
