host_time_s,seq,device_time_s,roll,pitch,yaw,gyro_x,gyro_y,gyro_z,accel_x,accel_y,accel_z,belt_length,belt_velocity,belt_acceleration,motor_pos,motor_vel,motor_iq_meas,motor_iq_set,acc_mag,gyro_mag,gyro_corrected,gyro_side_score,gyro_side_separation,step_period_s,gait_cycle_s,cadence_spm,gait_speed_ratio,assist_pulse_s,acc_residual,threshold,gyro_threshold,belt_threshold,belt_ok,calibrated,imu_side,imu_heel_strike,heel_strike,hs_count,left_hs_count,right_hs_count,torque_cmd_nm
0.0050222919999214355,2,822.03,91.6,8.1,-64.8,-0.8,0.06,0.29,0.15,0.97,-0.06,-124.9,-4.3,-33.0,-1.12,0.18,-0.05,0.0,0.9833615815151617,0.853053339481184,0.0,0.0,2.0,0.6,1.2,100.0,1.0,0.18,0.0,0.2,1.0,-160.0,0,0,calibrating,0,0,0,0,0,0.0
0.01221751299999596,3,822.04,91.5,8.2,-64.8,-0.86,0.03,0.28,0.16,0.97,-0.05,-125.0,-8.7,-34.0,-1.12,0.28,-0.16,0.0,0.984377976185977,0.9049309365912959,0.0,0.0,2.0,0.6,1.2,100.0,1.0,0.18,0.0009960667773989407,0.2,1.0,-160.0,0,0,calibrating,0,0,0,0,0,0.0
0.02305474799982221,4,822.05,91.5,8.2,-64.8,-0.89,0.03,0.23,0.17,0.96,-0.05,-125.1,-10.3,-11.0,-1.11,0.25,-0.11,0.0,0.9762171889492625,0.9197282207261013,0.0,0.0,2.0,0.6,1.2,100.0,1.0,0.18,0.007021426050129231,0.2,1.0,-160.0,0,0,calibrating,0,0,0,0,0,0.0
0.032215620999977546,5,822.06,91.4,8.2,-64.8,-0.97,0.04,0.16,0.18,0.96,-0.06,-125.2,-10.3,-16.0,-1.11,0.32,-0.09,0.0,0.9785703858180055,0.9839207285142436,0.0,0.0,2.0,0.6,1.2,100.0,1.0,0.18,0.004574864597758466,0.2,1.0,-160.0,0,0,calibrating,0,0,0,0,0,0.0
0.04298188199982178,6,822.07,91.3,8.3,-64.8,-1.04,0.08,0.07,0.18,0.95,-0.06,-125.3,-10.0,10.0,-1.11,0.23,0.06,0.0,0.9687620966986683,1.0454185764563397,0.0,0.0,2.0,0.6,1.2,100.0,1.0,0.18,0.014095490642753727,0.2,1.0,-160.0,0,0,calibrating,0,0,0,0,0,0.0
0.052237786999967284,7,822.08,91.2,8.3,-64.8,-1.1,0.13,-0.02,0.19,0.94,-0.06,-125.4,-10.3,-18.0,-1.11,0.35,-0.04,0.0,0.9608850087289321,1.107835727894709,0.0,0.0,2.0,0.6,1.2,100.0,1.0,0.18,0.02153312704024013,0.2,1.0,-160.0,0,0,calibrating,0,0,0,0,0,0.0
0.06296465399987028,8,822.09,91.1,8.3,-64.8,-1.11,0.21,-0.13,0.19,0.93,-0.07,-125.5,-13.6,-16.0,-1.1,0.37,0.06,0.0,0.9517877914745493,1.1371455491712572,0.0,0.0,2.0,0.6,1.2,100.0,1.0,0.18,0.030017737408730483,0.2,1.0,-160.0,0,0,calibrating,0,0,0,0,0,0.0
0.07217183199986721,9,822.1,91.1,8.4,-64.8,-1.09,0.29,-0.21,0.2,0.93,-0.06,-125.6,-13.4,1.0,-1.1,0.32,-0.05,0.0,0.9531526635329727,1.1473011810331235,0.0,0.0,2.0,0.6,1.2,100.0,1.0,0.18,0.028079808043301013,0.2,1.0,-160.0,0,0,calibrating,0,0,0,0,0,0.0
0.0830142600000272,10,822.11,91.0,8.4,-64.9,-1.04,0.35,-0.27,0.2,0.94,-0.06,-125.7,-8.7,42.0,-1.1,0.14,-0.03,0.0,0.9629122493768578,1.1300442469213319,0.0,0.0,2.0,0.6,1.2,100.0,1.0,0.18,0.017953817755427592,0.2,1.0,-160.0,0,0,calibrating,0,0,0,0,0,0.0
0.09214905599992562,11,822.12,90.9,8.4,-64.9,-1.02,0.42,-0.3,0.19,0.94,-0.07,-125.8,-5.0,18.0,-1.1,0.15,0.03,0.0,0.9615612304996495,1.143153532995459,0.0,0.0,2.0,0.6,1.2,100.0,1.0,0.18,0.01891873989998316,0.2,1.0,-160.0,0,0,calibrating,0,0,0,0,0,0.0
0.1028498429998308,12,822.13,90.8,8.4,-64.9,-0.99,0.44,-0.33,0.18,0.94,-0.06,-125.9,-7.4,-12.0,-1.09,0.23,-0.01,0.0,0.9589577675789481,1.13251931550857,0.0,0.0,2.0,0.6,1.2,100.0,1.0,0.18,0.02109175876427083,0.2,1.0,-160.0,0,0,calibrating,0,0,0,0,0,0.0
0.1122228469998845,13,822.14,90.8,8.4,-65.0,-0.93,0.49,-0.38,0.17,0.93,-0.07,-126.0,-9.0,-12.0,-1.09,0.27,-0.05,0.0,0.9479978902930112,1.1177656283854858,0.0,0.0,2.0,0.6,1.2,100.0,1.0,0.18,0.031410603329203646,0.2,1.0,-160.0,0,0,calibrating,0,0,0,0,0,0.0
0.12295840599995245,14,822.15,90.7,8.4,-65.0,-0.79,0.52,-0.43,0.17,0.93,-0.08,-126.1,-11.2,-17.0,-1.09,0.31,-0.04,0.0,0.9487887014504337,1.038941769301822,0.0,0.0,2.0,0.6,1.2,100.0,1.0,0.18,0.03000739632834548,0.2,1.0,-160.0,0,0,calibrating,0,0,0,0,0,0.0
0.1321688579998863,15,822.16,90.7,8.3,-65.1,-0.69,0.62,-0.46,0.18,0.94,-0.08,-126.2,-9.9,15.0,-1.09,0.21,0.05,0.0,0.9604165762834375,1.0354226190305096,0.0,0.0,2.0,0.6,1.2,100.0,1.0,0.18,0.01801193106543486,0.2,1.0,-160.0,0,0,calibrating,0,0,0,0,0,0.0
0.1430599049999728,16,822.17,90.6,8.3,-65.1,-0.57,0.64,-0.46,0.18,0.93,-0.07,-126.3,-7.9,1.0,-1.08,0.25,0.0,0.0,0.9498420921395304,0.9726767191621274,0.0,0.0,2.0,0.6,1.2,100.0,1.0,0.18,0.028014686905155073,0.2,1.0,-160.0,0,0,calibrating,0,0,0,0,0,0.0
0.15223428299987063,17,822.18,90.6,8.3,-65.2,-0.49,0.74,-0.51,0.18,0.93,-0.08,-126.3,-10.2,-14.0,-1.08,0.29,-0.06,0.0,0.9506313691436865,1.0236210236215355,0.0,0.0,2.0,0.6,1.2,100.0,1.0,0.18,0.026680901702978876,0.2,1.0,-160.0,0,0,calibrating,0,0,0,0,0,0.0
0.162912335999863,18,822.19,90.6,8.3,-65.3,-0.44,0.83,-0.6,0.19,0.92,-0.08,-126.5,-11.2,-11.0,-1.08,0.32,0.18,0.0,0.9428149341201592,1.1146748404803977,0.0,0.0,2.0,0.6,1.2,100.0,1.0,0.18,0.03380738999197619,0.2,1.0,-160.0,0,0,calibrating,0,0,0,0,0,0.0
0.17216092399985428,19,822.2,90.6,8.2,-65.4,-0.46,0.95,-0.71,0.2,0.91,-0.07,-126.6,-11.7,-3.0,-1.07,0.3,0.0,0.0,0.9343446901438462,1.2720849028268515,0.0,0.0,2.0,0.6,1.2,100.0,1.0,0.18,0.041432081288923284,0.2,1.0,-160.0,0,0,calibrating,0,0,0,0,0,0.0
0.18288583100002143,20,822.21,90.5,8.1,-65.5,-0.41,1.04,-0.81,0.2,0.91,-0.07,-126.7,-12.0,-15.0,-1.07,0.38,0.19,0.0,0.9343446901438462,1.380507153186828,0.0,0.0,2.0,0.6,1.2,100.0,1.0,0.18,0.040603439663144836,0.2,1.0,-160.0,0,0,calibrating,0,0,0,0,0,0.0
0.19210564199988767,21,822.22,90.5,8.1,-65.6,-0.29,1.14,-0.9,0.2,0.91,-0.07,-126.8,-15.3,-21.0,-1.07,0.42,0.1,0.0,0.9343446901438462,1.4811144452742333,0.0,0.0,2.0,0.6,1.2,100.0,1.0,0.18,0.03979137086988194,0.2,1.0,-160.0,0,0,calibrating,0,0,0,0,0,0.0
0.20277080599998953,22,822.23,90.4,8.0,-65.7,-0.14,1.22,-0.97,0.19,0.91,-0.07,-127.0,-16.7,-14.0,-1.06,0.46,0.01,0.0,0.9322553298319083,1.5648961626893971,0.0,0.0,2.0,0.6,1.2,100.0,1.0,0.18,0.04104311655818349,0.2,1.0,-160.0,0,0,calibrating,0,0,0,0,0,0.0
0.21219817199994395,23,822.24,90.4,7.9,-65.8,0.0,1.29,-1.04,0.18,0.91,-0.07,-127.2,-18.6,-25.0,-1.06,0.55,-0.06,0.0,0.9302687783646187,1.657015389186232,0.0,0.0,2.0,0.6,1.2,100.0,1.0,0.18,0.04216907466496356,0.2,1.0,-160.0,0,0,calibrating,0,0,0,0,0,0.0
0.22278857699984655,24,822.25,90.5,7.8,-66.0,0.06,1.34,-1.09,0.16,0.92,-0.07,-127.4,-20.5,-19.0,-1.05,0.59,0.15,0.0,0.9364293886887575,1.7283807450906181,0.0,0.0,2.0,0.6,1.2,100.0,1.0,0.18,0.03528829505400832,0.2,1.0,-160.0,0,0,calibrating,0,0,0,0,0,0.0
0.23215229199990972,25,822.26,90.5,7.7,-66.1,0.05,1.39,-1.13,0.16,0.93,-0.08,-127.6,-24.2,-42.0,-1.04,0.74,0.0,0.0,0.9470480452437459,1.792065847004512,0.0,0.0,2.0,0.6,1.2,100.0,1.0,0.18,0.024176245729039536,0.2,1.0,-160.0,0,0,calibrating,0,0,0,0,0,0.0
0.24252824799987138,26,822.27,90.5,7.6,-66.2,0.05,1.45,-1.16,0.15,0.94,-0.08,-127.9,-28.7,-36.0,-1.04,0.82,0.0,0.0,0.9552486587271399,1.8575790696495262,0.0,0.0,2.0,0.6,1.2,100.0,1.0,0.18,0.015656119600732432,0.2,1.0,-160.0,0,0,calibrating,0,0,0,0,0,0.0
0.25211010699990766,27,822.28,90.6,7.5,-66.4,0.07,1.54,-1.19,0.15,0.93,-0.1,-128.2,-32.4,-37.0,-1.03,0.92,0.01,0.0,0.9473119866232033,1.9474598840540978,0.0,0.0,2.0,0.6,1.2,100.0,1.0,0.18,0.023120935870575843,0.2,1.0,-160.0,0,0,calibrating,0,0,0,0,0,0.0
0.26269172100001015,28,822.29,90.6,7.4,-66.5,0.18,1.66,-1.23,0.16,0.92,-0.11,-128.5,-35.7,-38.0,-1.02,1.05,0.03,0.0,0.9402659198333203,2.0738611332488004,0.0,0.0,2.0,0.6,1.2,100.0,1.0,0.18,0.02956366260724963,0.2,1.0,-160.0,0,0,calibrating,0,0,0,0,0,0.0
0.2721722569999656,29,822.3,90.6,7.3,-66.7,0.37,1.82,-1.27,0.18,0.92,-0.12,-128.9,-40.3,-46.0,-1.01,1.2,-0.07,0.0,0.9450925880568528,2.2499333323456496,0.0,0.0,2.0,0.6,1.2,100.0,1.0,0.18,0.02424225449604278,0.2,1.0,-160.0,0,0,calibrating,0,0,0,0,0,0.0
0.2828965950000111,30,822.31,90.6,7.2,-66.9,0.57,2.01,-1.27,0.19,0.92,-0.14,-129.4,-47.7,-63.0,-0.99,1.36,-0.02,0.0,0.9497894503520241,2.4449744374941833,0.0,0.0,2.0,0.6,1.2,100.0,1.0,0.18,0.019154484356854073,0.2,1.0,-160.0,0,0,calibrating,0,0,0,0,0,0.0
0.2920608169999923,31,822.32,90.6,7.1,-67.1,0.79,2.23,-1.29,0.19,0.93,-0.15,-129.9,-50.7,-31.0,-0.98,1.39,-0.03,0.0,0.9609890738192605,2.6946428334753385,0.0,0.0,2.0,0.6,1.2,100.0,1.0,0.18,0.007795763671825329,0.2,1.0,-160.0,0,0,calibrating,0,0,0,0,0,0.0
0.3029590629998893,32,822.33,90.7,6.9,-67.4,1.02,2.46,-1.27,0.2,0.95,-0.16,-130.4,-53.4,-35.0,-0.96,1.53,-0.09,0.0,0.9839207285142436,2.9504067516191728,0.0,0.0,2.0,0.6,1.2,100.0,1.0,0.18,0.014833173202694616,0.2,1.0,-160.0,0,0,calibrating,0,0,0,0,0,0.0
0.3120990190000157,33,822.34,90.8,6.8,-67.6,1.19,2.7,-1.19,0.21,0.98,-0.15,-131.0,-59.4,-51.0,-0.95,1.69,-0.03,0.0,1.0134100848126586,3.1815405073643177,0.0,0.0,2.0,0.6,1.2,100.0,1.0,0.18,0.04343607891108736,0.2,1.0,-160.0,0,0,calibrating,0,0,0,0,0,0.0
0.3225200809999933,34,822.35,90.9,6.7,-67.9,1.31,2.93,-1.04,0.21,1.01,-0.14,-131.6,-64.3,-51.0,-0.93,1.83,0.0,0.0,1.0410571550111936,3.3738109016363085,0.0,0.0,2.0,0.6,1.2,100.0,1.0,0.18,0.06966148612742984,0.2,1.0,-160.0,0,0,calibrating,0,0,0,0,0,0.0
0.33621935499991196,35,822.36,91.0,6.6,-68.2,1.46,3.09,-0.89,0.2,1.02,-0.13,-132.3,-70.5,-56.0,-0.91,1.99,-0.11,0.0,1.0475208828467335,3.5315435718676897,0.0,0.0,2.0,0.6,1.2,100.0,1.0,0.18,0.07460270968371041,0.2,1.0,-160.0,0,0,calibrating,0,0,0,0,0,0.0
0.3480990139998994,36,822.37,91.1,6.5,-68.5,1.56,3.17,-0.78,0.18,1.02,-0.12,-133.0,-74.4,-44.0,-0.89,2.1,0.06,0.0,1.042688831818966,3.618134878635676,0.0,0.0,2.0,0.6,1.2,100.0,1.0,0.18,0.06837524548282403,0.2,1.0,-160.0,0,0,calibrating,0,0,0,0,0,0.0
0.3561496419999912,37,822.38,91.2,6.5,-68.9,1.54,3.22,-0.71,0.16,1.03,-0.12,-133.8,-79.6,-49.0,-0.87,2.24,0.26,0.0,1.049237818609299,3.6392444270754885,0.0,0.0,2.0,0.6,1.2,100.0,1.0,0.18,0.07342574762769394,0.2,1.0,-160.0,0,0,calibrating,0,0,0,0,0,0.0
0.3641663209998569,38,822.39,91.4,6.4,-69.2,1.48,3.28,-0.64,0.14,1.05,-0.1,-134.7,-86.3,-69.0,-0.84,2.45,0.07,0.0,1.0640018796975879,3.6549144996839527,0.0,0.0,2.0,0.6,1.2,100.0,1.0,0.18,0.08642601254166316,0.2,1.0,-160.0,0,0,calibrating,0,0,0,0,0,0.0
0.3721109359998991,39,822.4,91.5,6.4,-69.5,1.48,3.32,-0.45,0.11,1.11,-0.06,-135.6,-92.0,-52.0,-0.82,2.57,0.03,0.0,1.1170496855556606,3.662690268095297,0.0,0.0,2.0,0.6,1.2,100.0,1.0,0.18,0.13668434203174118,0.2,1.0,-160.0,0,0,calibrating,0,0,0,0,0,0.0
0.3826302190000206,40,822.41,91.6,6.4,-69.9,1.56,3.3,-0.14,0.08,1.16,-0.02,-136.5,-96.3,-46.0,-0.79,2.69,-0.07,0.0,1.1629273408085303,3.652834515824663,0.0,0.0,2.0,0.6,1.2,100.0,1.0,0.18,0.1789107573389187,0.2,1.0,-160.0,0,0,calibrating,0,0,0,0,0,0.0
0.39222450099987327,41,822.42,91.8,6.3,-70.2,1.65,3.15,0.19,0.05,1.22,0.0,-137.5,-101.1,-45.0,-0.76,2.79,-0.23,0.0,1.221024160285127,3.5610532149913174,0.0,0.0,2.0,0.6,1.2,100.0,1.0,0.18,0.23226742527920508,0.2,1.0,-160.0,0,0,calibrating,0,0,0,0,0,0.0
0.40278943899988917,42,822.43,91.9,6.3,-70.5,1.5,2.88,0.52,0.02,1.26,0.02,-138.5,-105.0,-45.0,-0.73,2.92,-0.06,0.0,1.260317420335052,3.288586322418799,0.0,0.0,2.0,0.6,1.2,100.0,1.0,0.18,0.2661294716225474,0.2,1.0,-160.0,0,0,calibrating,0,0,0,0,0,0.0
0.41215586299995266,43,822.44,92.0,6.4,-70.8,1.03,2.48,0.81,0.0,1.25,0.04,-139.6,-109.4,-45.0,-0.7,3.05,0.06,0.0,1.2506398362438325,2.804888589587829,0.0,0.0,2.0,0.6,1.2,100.0,1.0,0.18,0.2513228497807013,0.2,1.0,-160.0,0,0,calibrating,0,0,0,0,0,0.0
0.4229857240000001,44,822.45,92.0,6.5,-71.0,0.56,2.04,0.94,0.0,1.19,0.04,-140.8,-113.8,-42.0,-0.67,3.15,0.01,0.0,1.1906720791217034,2.3149082055234933,0.0,0.0,2.0,0.6,1.2,100.0,1.0,0.18,0.18752799080540083,0.2,1.0,-160.0,0,0,calibrating,0,0,0,0,0,0.0
0.4321609379999245,45,822.46,92.0,6.6,-71.2,0.21,1.6,0.88,0.01,1.1,0.03,-141.9,-118.3,-45.0,-0.64,3.29,0.03,0.0,1.100454451578983,1.838069639594757,0.0,0.0,2.0,0.6,1.2,100.0,1.0,0.18,0.09536415599742676,0.2,1.0,-160.0,0,0,calibrating,0,0,0,0,0,0.0
0.44301446099984787,46,822.47,92.0,6.7,-71.3,0.07,1.21,0.69,0.06,1.02,0.01,-143.1,-123.5,-45.0,-0.61,3.4,0.1,0.0,1.0218121158021176,1.3946684193742969,0.0,0.0,2.0,0.6,1.2,100.0,1.0,0.18,0.016387383816150125,0.2,1.0,-160.0,0,0,calibrating,0,0,0,0,0,0.0
0.45215001699989443,47,822.48,92.0,6.7,-71.4,0.15,0.96,0.47,0.13,0.97,0.0,-144.4,-127.1,-40.0,-0.57,3.5,0.17,0.0,0.9786725703727472,1.0793516572461452,0.0,0.0,2.0,0.6,1.2,100.0,1.0,0.18,0.02621711838095586,0.2,1.0,-160.0,0,0,calibrating,0,0,0,0,0,0.0
0.4625255019998349,48,822.49,92.0,6.8,-71.5,0.41,0.88,0.24,0.19,0.93,-0.01,-145.7,-130.0,-24.0,-0.54,3.55,-0.06,0.0,0.9492628719169417,1.0000499987500624,0.0,0.0,2.0,0.6,1.2,100.0,1.0,0.18,0.05451428050002616,0.2,1.0,-160.0,0,0,calibrating,0,0,0,0,0,0.0
0.47208347099990533,49,822.5,92.0,6.9,-71.6,0.63,0.94,-0.01,0.23,0.91,-0.03,-147.0,-130.9,-12.0,-0.5,3.56,-0.06,0.0,0.9390953093270139,1.1316359838746735,0.0,0.0,2.0,0.6,1.2,100.0,1.0,0.18,0.06338820622815489,0.2,1.0,-160.0,0,0,calibrating,0,0,0,0,0,0.0
0.4827748039999733,50,822.51,92.1,6.9,-71.7,0.78,1.16,-0.27,0.26,0.9,-0.07,-148.3,-131.8,-3.0,-0.46,3.55,0.06,0.0,0.9394147114027969,1.4236923825040295,0.0,0.0,2.0,0.6,1.2,100.0,1.0,0.18,0.06180742806932438,0.2,1.0,-160.0,0,0,calibrating,0,0,0,0,0,0.0
0.49215220699989004,51,822.52,92.1,6.8,-71.8,0.8,1.56,-0.52,0.25,0.9,-0.09,-149.6,-131.3,0.0,-0.43,3.57,-0.12,0.0,0.9384028985462481,1.8286607121059937,0.0,0.0,2.0,0.6,1.2,100.0,1.0,0.18,0.06156285610735568,0.2,1.0,-160.0,0,0,calibrating,0,0,0,0,0,0.0
0.5029768619999686,52,822.53,92.2,6.8,-72.0,0.72,2.0,-0.74,0.23,0.9,-0.09,-150.9,-130.3,15.0,-0.39,3.5,-0.08,0.0,0.9332738076256079,2.2507776433935005,0.0,0.0,2.0,0.6,1.2,100.0,1.0,0.18,0.06535810808743603,0.2,1.0,-160.0,0,0,calibrating,0,0,0,0,0,0.0
0.5121495969999614,53,822.54,92.2,6.7,-72.2,0.6,2.48,-0.86,0.19,0.91,-0.09,-152.2,-128.7,9.0,-0.36,3.5,-0.13,0.0,0.9339700209321496,2.6925824035672523,0.0,0.0,2.0,0.6,1.2,100.0,1.0,0.18,0.06336865688527638,0.2,1.0,-160.0,0,0,calibrating,0,0,0,0,0,0.0
0.5228020949998609,54,822.55,92.3,6.6,-72.5,0.51,2.91,-0.9,0.14,0.92,-0.09,-153.5,-127.8,16.0,-0.32,3.43,0.0,0.0,0.9349331526906082,3.088397642791485,0.0,0.0,2.0,0.6,1.2,100.0,1.0,0.18,0.06115741462428148,0.2,1.0,-160.0,0,0,calibrating,0,0,0,0,0,0.0
0.5321110610000233,55,822.56,92.3,6.6,-72.8,0.47,3.26,-0.86,0.1,0.93,-0.07,-154.8,-125.0,21.0,-0.29,3.37,0.32,0.0,0.9379765455489812,3.4041298447620942,0.0,0.0,2.0,0.6,1.2,100.0,1.0,0.18,0.05695174133059022,0.2,1.0,-160.0,0,0,calibrating,0,0,0,0,0,0.0
0.5428224869999667,56,822.57,92.3,6.5,-73.2,0.4,3.49,-0.75,0.05,0.94,-0.05,-156.0,-124.0,12.0,-0.26,3.34,-0.11,0.0,0.9426558226627574,3.5920189309077983,0.0,0.0,2.0,0.6,1.2,100.0,1.0,0.18,0.05122701493247783,0.2,1.0,-160.0,0,0,calibrating,0,0,0,0,0,0.0
0.5521163679998153,57,822.58,92.3,6.4,-73.5,0.29,3.61,-0.66,0.02,0.95,-0.03,-157.3,-123.5,4.0,-0.22,3.37,0.04,0.0,0.9506839643120104,3.6812769523631337,0.0,0.0,2.0,0.6,1.2,100.0,1.0,0.18,0.042334895817560336,0.2,1.0,-160.0,0,0,calibrating,0,0,0,0,0,0.0
0.5627046459999292,58,822.59,92.3,6.3,-73.9,0.08,3.58,-0.56,0.0,0.97,-0.01,-158.5,-124.6,-3.0,-0.19,3.39,-0.1,0.0,0.970051545022222,3.6244171945293493,0.0,0.0,2.0,0.6,1.2,100.0,1.0,0.18,0.022507968805201783,0.2,1.0,-160.0,0,0,calibrating,0,0,0,0,0,0.0
0.5721616419998554,59,822.6,92.3,6.3,-74.3,-0.15,3.43,-0.43,-0.02,0.98,0.02,-159.7,-125.2,-3.0,-0.15,3.38,-0.08,0.0,0.9804080783020914,3.4601011545907157,0.0,0.0,2.0,0.6,1.2,100.0,1.0,0.18,0.011908406814825634,0.2,1.0,-160.0,0,0,calibrating,0,0,0,0,0,0.0
0.5828685179999411,60,822.61,92.2,6.2,-74.6,-0.26,3.17,-0.27,-0.04,0.98,0.05,-161.0,-124.6,5.0,-0.12,3.38,-0.1,0.0,0.982089608946149,3.1920839587955703,0.0,0.0,2.0,0.6,1.2,100.0,1.0,0.18,0.010022338647352802,0.2,1.0,-160.0,0,0,calibrating,0,0,0,0,0,0.0
0.5922248919998765,61,822.62,92.1,6.2,-74.9,-0.27,2.84,-0.17,-0.04,0.97,0.06,-162.2,-123.9,13.0,-0.09,3.32,0.01,0.0,0.9726767191621274,2.8578663369723927,0.0,0.0,2.0,0.6,1.2,100.0,1.0,0.18,0.019046523862746967,0.2,1.0,-160.0,0,0,calibrating,0,0,0,0,0,0.0
0.6028911029998199,62,822.63,92.1,6.2,-75.2,-0.23,2.5,-0.09,-0.04,0.98,0.07,-163.5,-121.4,19.0,-0.05,3.24,0.05,0.0,0.9833107342035884,2.5121703763877163,0.0,0.0,2.0,0.6,1.2,100.0,1.0,0.18,0.008244258644860336,0.2,1.0,-160.0,0,0,calibrating,0,0,0,0,0,0.0
0.6121669069998461,63,822.64,92.0,6.2,-75.4,-0.19,2.14,-0.06,-0.02,0.97,0.08,-164.6,-116.3,46.0,-0.02,3.05,-0.02,0.0,0.973498844375277,2.149255685115198,0.0,0.0,2.0,0.6,1.2,100.0,1.0,0.18,0.01769502550370805,0.2,1.0,-160.0,0,0,calibrating,0,0,0,0,0,0.0
0.6226432609998938,64,822.65,92.0,6.2,-75.6,-0.15,1.83,-0.1,0.0,0.97,0.07,-165.8,-109.3,59.0,0.0,2.88,0.89,0.0,0.9725224933131367,1.8388583414716861,0.0,0.0,2.0,0.6,1.2,100.0,1.0,0.18,0.018297949034531524,0.2,1.0,-160.0,0,0,calibrating,0,0,0,0,0,0.0
0.6322532780000074,65,822.66,92.0,6.2,-75.8,-0.17,1.57,-0.16,0.0,0.98,0.09,-166.8,-102.5,70.0,0.02,2.66,-0.22,0.0,0.9841239759298621,1.5872617931519677,0.0,0.0,2.0,0.6,1.2,100.0,1.0,0.18,0.006562537089449982,0.2,1.0,-160.0,0,0,calibrating,0,0,0,0,0,0.0
0.6429785670000001,66,822.67,91.9,6.2,-75.9,-0.23,1.39,-0.23,0.01,0.99,0.08,-167.8,-95.3,72.0,0.05,2.44,0.12,0.0,0.9932774033471213,1.42755034937476,0.0,0.0,2.0,0.6,1.2,100.0,1.0,0.18,0.002539072521253072,0.2,1.0,-160.0,0,0,calibrating,0,0,0,0,0,0.0
0.6521721540000271,67,822.68,91.9,6.2,-76.0,-0.31,1.26,-0.3,0.01,1.0,0.08,-168.7,-87.1,74.0,0.07,2.26,-0.03,0.0,1.0032447358446492,1.3318032887780389,0.0,0.0,2.0,0.6,1.2,100.0,1.0,0.18,0.012256276918405362,0.2,1.0,-160.0,0,0,calibrating,0,0,0,0,0,0.0
0.6628283029999693,68,822.69,91.8,6.1,-76.2,-0.48,1.22,-0.39,0.02,1.0,0.08,-169.5,-78.4,89.0,0.09,2.0,-0.31,0.0,1.0033942395688744,1.367808466123821,0.0,0.0,2.0,0.6,1.2,100.0,1.0,0.18,0.012157665029777887,0.2,1.0,-160.0,0,0,calibrating,0,0,0,0,0,0.0
0.6721516449999854,69,822.7,91.8,6.1,-76.3,-0.63,1.17,-0.46,0.02,1.01,0.08,-170.2,-69.7,88.0,0.11,1.77,-0.12,0.0,1.0133607452432722,1.4062005546862795,0.0,0.0,2.0,0.6,1.2,100.0,1.0,0.18,0.021681687290092233,0.2,1.0,-160.0,0,0,calibrating,0,0,0,0,0,0.0
0.6829275269999471,70,822.71,91.7,6.1,-76.4,-0.83,1.17,-0.48,0.02,1.02,0.08,-170.9,-61.1,91.0,0.13,1.52,-0.08,0.0,1.0233279044372825,1.5126797413861268,0.0,0.0,2.0,0.6,1.2,100.0,1.0,0.18,0.031015869554420483,0.2,1.0,-160.0,0,0,calibrating,0,0,0,0,0,0.0
0.6921038189998399,71,822.72,91.6,6.0,-76.5,-0.96,1.21,-0.47,0.02,1.01,0.07,-171.4,-53.2,73.0,0.14,1.36,-0.1,0.0,1.0126203632161461,1.6144968256394931,0.0,0.0,2.0,0.6,1.2,100.0,1.0,0.18,0.01990216176661863,0.2,1.0,-160.0,0,0,calibrating,0,0,0,0,0,0.0
0.7026839559998734,72,822.73,91.4,6.0,-76.7,-1.04,1.27,-0.48,0.01,1.0,0.06,-171.9,-45.5,77.0,0.15,1.12,0.15,0.0,1.0018482919085105,1.7102339021315185,0.0,0.0,2.0,0.6,1.2,100.0,1.0,0.18,0.008947488649803215,0.2,1.0,-160.0,0,0,calibrating,0,0,0,0,0,0.0
0.7121371309999631,73,822.74,91.3,5.9,-76.8,-1.04,1.38,-0.43,0.02,1.01,0.06,-172.3,-37.4,83.0,0.16,0.9,-0.07,0.0,1.0119782606360672,1.7807021087200408,0.0,0.0,2.0,0.6,1.2,100.0,1.0,0.18,0.018695908229812708,0.2,1.0,-160.0,0,0,calibrating,0,0,0,0,0,0.0
0.7226094179998199,74,822.75,91.2,5.9,-76.9,-0.92,1.47,-0.35,0.03,1.0,0.05,-172.6,-30.1,70.0,0.17,0.74,0.0,0.0,1.0016985574512922,1.7691240770505612,0.0,0.0,2.0,0.6,1.2,100.0,1.0,0.18,0.008247880944137198,0.2,1.0,-160.0,0,0,calibrating,0,0,0,0,0,0.0
0.7321621119999691,75,822.76,91.1,5.8,-77.1,-0.75,1.52,-0.29,0.05,1.01,0.04,-172.9,-24.5,62.0,0.18,0.57,0.02,0.0,1.01202766760598,1.7195929750961416,0.0,0.0,2.0,0.6,1.2,100.0,1.0,0.18,0.01820545127684836,0.2,1.0,-160.0,0,0,calibrating,0,0,0,0,0,0.0
0.7427726789999269,76,822.77,91.0,5.8,-77.3,-0.64,1.56,-0.27,0.07,1.01,0.03,-173.1,-17.5,63.0,0.18,0.41,-0.01,0.0,1.0128672173587216,1.7076592165886029,0.0,0.0,2.0,0.6,1.2,100.0,1.0,0.18,0.01866410100899818,0.2,1.0,-160.0,0,0,calibrating,0,0,0,0,0,0.0
0.7521457969999119,77,822.78,90.8,5.7,-77.4,-0.61,1.6,-0.31,0.09,1.01,0.02,-173.2,-12.2,65.0,0.18,0.19,0.13,0.0,1.0141991914806479,1.7401724052518477,0.0,0.0,2.0,0.6,1.2,100.0,1.0,0.18,0.019596153628305912,0.2,1.0,-160.0,0,0,calibrating,0,0,0,0,0,0.0
0.7628100629999608,78,822.79,90.7,5.7,-77.6,-0.57,1.66,-0.42,0.1,1.0,0.03,-173.3,-0.6,101.0,0.18,-0.12,-0.08,0.0,1.0054352291420865,1.8046883387443937,0.0,0.0,2.0,0.6,1.2,100.0,1.0,0.18,0.01061554746394966,0.2,1.0,-160.0,0,0,calibrating,0,0,0,0,0,0.0
0.7719570360000034,79,822.8,90.7,5.7,-77.8,-0.42,1.71,-0.61,0.11,0.99,0.03,-173.2,5.2,48.0,0.18,-0.14,0.15,0.0,0.9965440281292142,1.8634913469077339,0.0,0.0,2.0,0.6,1.2,100.0,1.0,0.18,0.0016898595220558033,0.2,1.0,-160.0,0,0,calibrating,0,0,0,0,0,0.0
0.7828671610000129,80,822.81,90.6,5.6,-77.9,-0.26,1.76,-0.83,0.11,0.99,0.03,-173.2,5.4,18.0,0.18,-0.15,0.04,0.0,0.9965440281292142,1.9631861857704684,0.0,0.0,2.0,0.6,1.2,100.0,1.0,0.18,0.0016560623316146383,0.2,1.0,-160.0,0,0,calibrating,0,0,0,0,0,0.0
0.7921731439998894,81,822.82,90.5,5.5,-78.1,-0.14,1.75,-1.02,0.1,1.0,0.04,-173.1,7.7,32.0,0.18,-0.32,-0.15,0.0,1.0057832768544126,2.0303940504246953,0.0,0.0,2.0,0.6,1.2,100.0,1.0,0.18,0.010677404835676807,0.2,1.0,-160.0,0,0,calibrating,0,0,0,0,0,0.0
0.802796595000018,82,822.83,90.4,5.4,-78.3,-0.05,1.73,-1.19,0.07,1.0,0.04,-172.9,17.8,101.0,0.17,-0.68,-0.02,0.0,1.0032447358446492,2.100357112493016,0.0,0.0,2.0,0.6,1.2,100.0,1.0,0.18,0.00797608654939519,0.2,1.0,-160.0,0,0,calibrating,0,0,0,0,0,0.0
0.8121852550000312,83,822.84,90.4,5.3,-78.5,0.02,1.68,-1.34,0.04,1.0,0.04,-172.7,32.7,137.0,0.16,-1.22,0.07,0.0,1.001598722043913,2.1490463001061655,0.0,0.0,2.0,0.6,1.2,100.0,1.0,0.18,0.006203471293685814,0.2,1.0,-160.0,0,0,calibrating,0,0,0,0,0,0.0
0.8242191350000212,84,822.85,90.4,5.1,-78.6,0.07,1.59,-1.44,0.02,1.0,0.03,-172.2,52.8,190.0,0.15,-1.73,-0.06,0.0,1.000649788887201,2.146299140380949,0.0,0.0,2.0,0.6,1.2,100.0,1.0,0.18,0.005149447374234284,0.2,1.0,-160.0,0,0,calibrating,0,0,0,0,0,0.0
0.8321039979998659,85,822.86,90.3,4.9,-78.8,0.12,1.49,-1.52,0.0,0.99,0.03,-171.5,74.6,212.0,0.12,-2.36,-0.13,0.0,0.9904544411531506,2.131877107152286,0.0,0.0,2.0,0.6,1.2,100.0,1.0,0.18,0.004944982352619753,0.2,1.0,-160.0,0,0,calibrating,0,0,0,0,0,0.0
0.8426809129998674,86,822.87,90.3,4.7,-79.0,0.13,1.4,-1.57,0.0,1.0,0.02,-170.6,98.3,225.0,0.09,-3.02,-0.09,0.0,1.000199980003999,2.1075578283881087,0.0,0.0,2.0,0.6,1.2,100.0,1.0,0.18,0.004704545368263924,0.2,1.0,-160.0,0,0,calibrating,0,0,0,0,0,0.0
0.8520110909998948,87,822.88,90.3,4.5,-79.1,0.08,1.35,-1.6,0.0,0.99,0.01,-169.4,120.3,222.0,0.06,-3.61,-0.04,0.0,0.9900505037623081,2.0949701668520246,0.0,0.0,2.0,0.6,1.2,100.0,1.0,0.18,0.005336032255958356,0.2,1.0,-160.0,0,0,calibrating,0,0,0,0,0,0.0
0.8627766699999029,88,822.89,90.3,4.3,-79.2,-0.02,1.37,-1.62,0.0,0.99,0.0,-168.1,141.3,207.0,0.02,-4.16,-0.08,0.0,0.99,2.121720999566154,0.0,0.0,2.0,0.6,1.2,100.0,1.0,0.18,0.005278805297901146,0.2,1.0,-160.0,0,0,calibrating,0,0,0,0,0,0.0
0.8721558069998991,89,822.9,90.3,4.1,-79.4,-0.14,1.41,-1.62,0.0,0.98,0.0,-166.5,161.3,210.0,-0.01,-4.68,-0.13,0.0,0.98,2.152231400198408,0.0,0.0,2.0,0.6,1.2,100.0,1.0,0.18,0.014973229191943105,0.2,1.0,-160.0,0,0,calibrating,0,0,0,0,0,0.0
0.8828914159998931,90,822.91,90.2,3.9,-79.5,-0.25,1.46,-1.58,0.01,0.98,0.0,-164.8,183.7,225.0,-0.07,-5.39,-0.12,0.0,0.9800510190801293,2.1657562189683306,0.0,0.0,2.0,0.6,1.2,100.0,1.0,0.18,0.01462376590957759,0.2,1.0,-160.0,0,0,calibrating,0,0,0,0,0,0.0
0.8921690180000041,91,822.92,90.2,3.7,-79.7,-0.31,1.5,-1.51,0.01,0.97,0.0,-162.8,207.8,234.0,-0.12,-5.96,-0.01,0.0,0.970051545022222,2.1508602929990595,0.0,0.0,2.0,0.6,1.2,100.0,1.0,0.18,0.02413077516813511,0.2,1.0,-160.0,0,0,calibrating,0,0,0,0,0,0.0
0.9028076189999865,92,822.93,90.1,3.5,-79.8,-0.29,1.52,-1.45,0.0,0.97,0.0,-160.6,229.0,211.0,-0.19,-6.55,0.0,0.0,0.97,2.1206131188880257,0.0,0.0,2.0,0.6,1.2,100.0,1.0,0.18,0.023698673786549995,0.2,1.0,-160.0,0,0,calibrating,0,0,0,0,0,0.0
0.9122183889999178,93,822.94,90.1,3.3,-80.0,-0.28,1.51,-1.37,0.0,0.97,0.0,-158.1,248.5,195.0,-0.25,-7.0,-0.15,0.0,0.97,2.0580087463370997,0.0,0.0,2.0,0.6,1.2,100.0,1.0,0.18,0.023224700310819024,0.2,1.0,-160.0,0,0,calibrating,0,0,0,0,0,0.0
0.9241086509998695,94,822.95,90.0,3.2,-80.1,-0.25,1.47,-1.3,0.0,0.97,0.0,-155.5,267.0,198.0,-0.33,-7.57,0.07,0.0,0.97,1.9782315334661917,0.0,0.0,2.0,0.6,1.2,100.0,1.0,0.18,0.022760206304602626,0.2,1.0,-160.0,0,0,calibrating,0,0,0,0,0,0.0
0.9321270220000315,95,822.96,90.0,3.0,-80.3,-0.19,1.39,-1.21,-0.01,0.97,0.0,-152.7,287.1,196.0,-0.41,-8.1,-0.01,0.0,0.970051545022222,1.8526467553206143,0.0,0.0,2.0,0.6,1.2,100.0,1.0,0.18,0.022254488056733024,0.2,1.0,-160.0,0,0,calibrating,0,0,0,0,0,0.0
0.942898889999924,96,822.97,90.0,2.8,-80.4,-0.13,1.27,-1.11,-0.02,0.97,0.0,-149.6,306.1,187.0,-0.5,-8.62,-0.07,0.0,0.9702061636580134,1.6917151060388391,0.0,0.0,2.0,0.6,1.2,100.0,1.0,0.18,0.021657872032522785,0.2,1.0,-160.0,0,0,calibrating,0,0,0,0,0,0.0
0.9521720269999605,97,822.98,90.0,2.7,-80.5,-0.1,1.12,-0.98,-0.03,0.97,0.0,-146.5,326.9,214.0,-0.59,-9.29,-0.17,0.0,0.9704638066409277,1.4915763473587265,0.0,0.0,2.0,0.6,1.2,100.0,1.0,0.18,0.02097222446861635,0.2,1.0,-160.0,0,0,calibrating,0,0,0,0,0,0.0
0.9626800999999432,98,822.99,90.0,2.6,-80.6,-0.09,0.95,-0.84,-0.04,0.97,0.0,-143.0,350.0,201.0,-0.68,-9.74,0.03,0.0,0.9708243919473799,1.2712985487288184,0.0,0.0,2.0,0.6,1.2,100.0,1.0,0.18,0.020199406378920814,0.2,1.0,-160.0,0,0,calibrating,0,0,0,0,0,0.0
0.9754995879998205,99,823.0,89.9,2.4,-80.7,-0.07,0.74,-0.72,-0.05,0.97,0.0,-140.6,360.3,226.0,-0.79,-10.22,-0.12,0.0,0.9712878049270462,1.034842983258813,0.0,0.0,2.0,0.6,1.2,100.0,1.0,0.18,0.019341273531269354,0.2,1.0,-160.0,0,0,calibrating,0,0,0,0,0,0.0
0.983571197999936,100,823.01,89.9,2.3,-80.8,-0.04,0.51,-0.6,-0.06,0.97,0.0,-135.1,387.7,223.0,-0.89,-10.78,-0.11,0.0,0.9718538984847466,0.7884795495128583,0.0,0.0,2.0,0.6,1.2,100.0,1.0,0.18,0.018399676374097673,0.2,1.0,-160.0,0,0,calibrating,0,0,0,0,0,0.0
0.9920433019999564,101,823.02,89.9,2.2,-80.8,0.0,0.28,-0.5,-0.06,0.97,0.0,-131.1,397.4,82.0,-1.0,-10.75,0.04,0.0,0.9718538984847466,0.5730619512757762,0.0,0.0,2.0,0.6,1.2,100.0,1.0,0.18,0.018031682846615715,0.2,1.0,-160.0,0,0,calibrating,0,0,0,0,0,0.0
1.0028583809998963,102,823.03,89.9,2.1,-80.8,-0.06,0.03,-0.36,-0.08,0.98,-0.01,-127.2,395.4,25.0,-1.11,-10.74,-0.07,0.0,0.9833107342035883,0.3661966684720111,0.0,0.0,2.0,0.6,1.2,100.0,1.0,0.18,0.006443350185218577,0.2,1.0,-160.0,0,0,calibrating,0,0,0,0,0,0.0
1.0122104779998153,103,823.04,89.9,2.0,-80.8,-0.11,-0.25,-0.25,-0.08,0.98,-0.01,-123.4,386.2,-118.0,-1.21,-10.17,0.08,0.0,0.9833107342035883,0.37027017163147236,0.0,0.0,2.0,0.6,1.2,100.0,1.0,0.18,0.006314483181514174,0.2,1.0,-160.0,0,0,calibrating,0,0,0,0,0,0.0
1.0227178029999777,104,823.05,89.9,1.9,-80.8,-0.16,-0.46,-0.16,-0.06,0.99,-0.02,-119.6,357.3,-238.0,-1.31,-9.35,-0.02,0.0,0.9920181449953422,0.5126402247190519,0.0,0.0,2.0,0.6,1.2,100.0,1.0,0.18,0.0023450690580349987,0.2,1.0,-160.0,0,0,calibrating,0,0,0,0,0,0.0
1.0320229949998065,105,823.06,89.9,1.8,-80.7,-0.25,-0.7,-0.09,-0.03,0.99,-0.02,-116.2,328.3,-267.0,-1.4,-8.57,0.34,0.0,0.9906563480844404,0.7487322618933954,0.0,0.0,2.0,0.6,1.2,100.0,1.0,0.18,0.0009636067041904894,0.2,1.0,-160.0,0,0,calibrating,0,0,0,0,0,0.0
1.0429212089998146,106,823.07,89.9,1.8,-80.6,-0.27,-0.88,-0.06,0.0,1.0,-0.03,-113.5,300.4,-301.0,-1.47,-7.69,0.09,0.0,1.0004498987955368,0.9224424101265075,0.0,0.0,2.0,0.6,1.2,100.0,1.0,0.18,0.010542014266981203,0.2,1.0,-160.0,0,0,calibrating,0,0,0,0,0,0.0
1.0522134159998586,107,823.08,89.9,1.8,-80.5,-0.3,-1.01,-0.04,0.01,1.0,-0.05,-110.7,272.4,-256.0,-1.55,-7.11,0.08,0.0,1.0012991560967182,1.0543718509140882,0.0,0.0,2.0,0.6,1.2,100.0,1.0,0.18,0.011163446136799315,0.2,1.0,-160.0,0,0,calibrating,0,0,0,0,0,0.0
1.0629541379998955,108,823.09,89.9,1.8,-80.4,-0.38,-1.04,-0.02,0.02,1.01,-0.06,-108.1,253.5,-210.0,-1.62,-6.59,0.33,0.0,1.0119782606360672,1.1074294559925704,0.0,0.0,2.0,0.6,1.2,100.0,1.0,0.18,0.0214056996626254,0.2,1.0,-160.0,0,0,calibrating,0,0,0,0,0,0.0
1.0721551649999128,109,823.1,89.9,1.7,-80.3,-0.6,-1.08,0.04,0.0,1.0,-0.07,-105.7,231.9,-219.0,-1.68,-5.96,-0.03,0.0,1.0024470060806208,1.2361229712289956,0.0,0.0,2.0,0.6,1.2,100.0,1.0,0.18,0.011636956205035354,0.2,1.0,-160.0,0,0,calibrating,0,0,0,0,0,0.0
1.082853976000024,110,823.11,89.9,1.7,-80.2,-0.77,-1.16,0.14,0.0,0.99,-0.07,-103.5,210.4,-208.0,-1.73,-5.44,0.02,0.0,0.9924716620639604,1.399321264041964,0.0,0.0,2.0,0.6,1.2,100.0,1.0,0.18,0.0016283799446075164,0.2,1.0,-160.0,0,0,calibrating,0,0,0,0,0,0.0
1.0922141199998805,111,823.12,89.9,1.7,-80.1,-0.79,-1.31,0.24,0.0,0.97,-0.08,-101.5,194.6,-154.0,-1.78,-5.12,0.04,0.0,0.9732933781753578,1.5484831287424479,0.0,0.0,2.0,0.6,1.2,100.0,1.0,0.18,0.017198905865115188,0.2,1.0,-160.0,0,0,calibrating,0,0,0,0,0,0.0
1.1029055970000172,112,823.13,89.9,1.8,-79.9,-0.72,-1.43,0.32,0.0,0.97,-0.09,-99.6,186.3,-97.0,-1.83,-4.98,0.12,0.0,0.9741663102366043,1.6326971550168143,0.0,0.0,2.0,0.6,1.2,100.0,1.0,0.18,0.015999454327791263,0.2,1.0,-160.0,0,0,calibrating,0,0,0,0,0,0.0
1.1121891709999545,113,823.14,89.8,1.8,-79.8,-0.72,-1.55,0.4,0.0,0.98,-0.09,-97.8,179.5,-82.0,-1.88,-4.79,-0.04,0.0,0.9841239759298621,1.7552492700468503,0.0,0.0,2.0,0.6,1.2,100.0,1.0,0.18,0.005920952861842799,0.2,1.0,-160.0,0,0,calibrating,0,0,0,0,0,0.0
1.122888951999812,114,823.15,89.8,1.8,-79.6,-0.75,-1.6,0.49,0.0,0.98,-0.1,-96.1,172.2,-72.0,-1.93,-4.6,0.11,0.0,0.9850888284819801,1.8337393489806562,0.0,0.0,2.0,0.6,1.2,100.0,1.0,0.18,0.004856978303530379,0.2,1.0,-160.0,0,0,calibrating,0,0,0,0,0,0.0
1.1320703530000173,115,823.16,89.8,1.8,-79.5,-0.71,-1.64,0.52,0.01,0.97,-0.09,-94.4,166.4,-59.0,-1.97,-4.47,-0.1,0.0,0.9742176348229383,1.8612092843095318,0.0,0.0,2.0,0.6,1.2,100.0,1.0,0.18,0.015413608523320743,0.2,1.0,-160.0,0,0,calibrating,0,0,0,0,0,0.0
1.1427939479999623,116,823.17,89.8,1.9,-79.3,-0.66,-1.71,0.55,0.01,0.97,-0.09,-92.8,164.9,-8.0,-2.02,-4.53,-0.16,0.0,0.9742176348229383,1.9136875398037163,0.0,0.0,2.0,0.6,1.2,100.0,1.0,0.18,0.015105336352854382,0.2,1.0,-160.0,0,0,calibrating,0,0,0,0,0,0.0
1.152099034999992,117,823.18,89.8,1.9,-79.1,-0.63,-1.81,0.58,0.0,0.98,-0.08,-91.1,170.2,39.0,-2.06,-4.71,0.01,0.0,0.9832598842625483,2.0023486209948556,0.0,0.0,2.0,0.6,1.2,100.0,1.0,0.18,0.0059418251749795425,0.2,1.0,-160.0,0,0,calibrating,0,0,0,0,0,0.0
1.1627526929999021,118,823.19,89.8,2.0,-78.9,-0.62,-1.91,0.63,0.0,0.97,-0.08,-89.3,177.9,67.0,-2.11,-4.94,0.15,0.0,0.9732933781753578,2.1046139788569302,0.0,0.0,2.0,0.6,1.2,100.0,1.0,0.18,0.01559016463692664,0.2,1.0,-160.0,0,0,calibrating,0,0,0,0,0,0.0
1.172215671999993,119,823.2,89.8,2.0,-78.7,-0.57,-2.02,0.69,-0.02,0.97,-0.08,-87.5,185.6,60.0,-2.16,-5.09,-0.05,0.0,0.973498844375277,2.2093890558251617,0.0,0.0,2.0,0.6,1.2,100.0,1.0,0.18,0.015077004468267097,0.2,1.0,-160.0,0,0,calibrating,0,0,0,0,0,0.0
1.1828065949998745,120,823.21,89.8,2.1,-78.5,-0.48,-2.13,0.75,-0.03,0.97,-0.08,-85.6,187.9,24.0,-2.21,-5.1,0.0,0.0,0.973755616158387,2.3086359609085187,0.0,0.0,2.0,0.6,1.2,100.0,1.0,0.18,0.014523828031454022,0.2,1.0,-160.0,0,0,calibrating,0,0,0,0,0,0.0
1.1921570509998674,121,823.22,89.7,2.2,-78.3,-0.4,-2.32,0.82,-0.03,0.97,-0.07,-83.7,185.9,-12.0,-2.26,-5.0,0.11,0.0,0.9729850975220535,2.4929500596682637,0.0,0.0,2.0,0.6,1.2,100.0,1.0,0.18,0.014988459734431747,0.2,1.0,-160.0,0,0,calibrating,0,0,0,0,0,0.0
1.2028239969999959,122,823.23,89.7,2.2,-78.0,-0.38,-2.54,0.88,-0.03,0.97,-0.08,-81.9,180.8,-44.0,-2.31,-4.84,-0.01,0.0,0.973755616158387,2.714848062046935,0.0,0.0,2.0,0.6,1.2,100.0,1.0,0.18,0.01393358227613628,0.2,1.0,-160.0,0,0,calibrating,0,0,0,0,0,0.0
1.2121642580000298,123,823.24,89.7,2.3,-77.8,-0.35,-2.71,0.92,-0.02,0.96,-0.08,-80.1,174.4,-64.0,-2.36,-4.63,-0.09,0.0,0.9635351576356723,2.8832273583607657,0.0,0.0,2.0,0.6,1.2,100.0,1.0,0.18,0.02367095998287394,0.2,1.0,-160.0,0,0,calibrating,0,0,0,0,0,0.0
1.2227660819999073,124,823.25,89.7,2.4,-77.5,-0.3,-2.82,0.95,-0.01,0.96,-0.09,-78.5,162.7,-115.0,-2.4,-4.22,0.0,0.0,0.9642613753542137,2.9908025678737133,0.0,0.0,2.0,0.6,1.2,100.0,1.0,0.18,0.022485847419045912,0.2,1.0,-160.0,0,0,calibrating,0,0,0,0,0,0.0
1.2320680519999314,125,823.26,89.6,2.5,-77.2,-0.27,-2.88,1.0,0.0,0.96,-0.1,-77.0,145.2,-162.0,-2.44,-3.7,0.18,0.0,0.9651942809610923,3.060604515451155,0.0,0.0,2.0,0.6,1.2,100.0,1.0,0.18,0.02112188297592399,0.2,1.0,-160.0,0,0,calibrating,0,0,0,0,0,0.0
1.242830129999902,126,823.27,89.6,2.6,-76.9,-0.21,-2.91,1.04,0.0,0.96,-0.11,-75.7,125.1,-198.0,-2.47,-3.11,0.23,0.0,0.9662815324738437,3.0973859946735733,0.0,0.0,2.0,0.6,1.2,100.0,1.0,0.18,0.01963393883390907,0.2,1.0,-160.0,0,0,calibrating,0,0,0,0,0,0.0
1.2521359549998579,127,823.28,89.6,2.7,-76.6,-0.19,-2.94,1.08,0.01,0.96,-0.11,-74.6,100.0,-236.0,-2.5,-2.41,0.14,0.0,0.9663332758422427,3.1378495821183012,0.0,0.0,2.0,0.6,1.2,100.0,1.0,0.18,0.019190551556199864,0.2,1.0,-160.0,0,0,calibrating,0,0,0,0,0,0.0
1.2628075420000187,128,823.29,89.6,2.9,-76.3,-0.17,-2.91,1.1,0.02,0.97,-0.12,-73.8,72.7,-265.0,-2.52,-1.64,0.16,0.0,0.9775990998359194,3.115605880081754,0.0,0.0,2.0,0.6,1.2,100.0,1.0,0.18,0.007766233011272661,0.2,1.0,-160.0,0,0,calibrating,0,0,0,0,0,0.0
1.2722009589999743,129,823.3,89.6,3.0,-76.1,-0.21,-2.85,1.14,0.03,0.97,-0.13,-73.2,45.0,-275.0,-2.53,-0.86,0.09,0.0,0.9791322688993556,3.07671903169594,0.0,0.0,2.0,0.6,1.2,100.0,1.0,0.18,0.006108402668879798,0.2,1.0,-160.0,0,0,calibrating,0,0,0,0,0,0.0
1.2827626799999052,130,823.31,89.6,3.1,-75.8,-0.26,-2.75,1.2,0.04,0.98,-0.13,-73.0,15.5,-288.0,-2.53,-0.06,0.1,0.0,0.9893937537704591,3.0116606714568626,0.0,0.0,2.0,0.6,1.2,100.0,1.0,0.18,0.004070020558179288,0.2,1.0,-160.0,0,0,calibrating,0,0,0,0,0,0.0
1.2922159569998257,131,823.32,89.6,3.2,-75.5,-0.29,-2.66,1.29,0.04,0.98,-0.14,-73.0,-5.3,-170.0,-2.53,0.18,-0.13,0.0,0.9907572861200667,2.970488175367813,0.0,0.0,2.0,0.6,1.2,100.0,1.0,0.18,0.005324881849631202,0.2,1.0,-160.0,0,0,calibrating,0,0,0,0,0,0.0
1.3029013279999617,132,823.33,89.6,3.4,-75.2,-0.36,-2.61,1.41,0.03,0.99,-0.14,-73.1,-6.3,-52.0,-2.53,0.15,-0.04,0.0,1.000299955013495,2.9882770955853473,0.0,0.0,2.0,0.6,1.2,100.0,1.0,0.18,0.014570199728198285,0.2,1.0,-160.0,0,0,calibrating,0,0,0,0,0,0.0
1.312017188000027,133,823.34,89.6,3.5,-75.0,-0.42,-2.58,1.5,0.01,0.97,-0.14,-73.1,-5.7,-19.0,-2.53,0.16,-0.07,0.0,0.9801020355044672,3.013768405169847,0.0,0.0,2.0,0.6,1.2,100.0,1.0,0.18,0.005515165385212795,0.2,1.0,-160.0,0,0,calibrating,0,0,0,0,0,0.0
1.3225873229998797,134,823.35,89.5,3.7,-74.7,-0.42,-2.58,1.53,0.0,0.97,-0.13,-73.2,-7.8,-26.0,-2.53,0.25,0.0,0.0,0.9786725703727472,3.0288116481550977,0.0,0.0,2.0,0.6,1.2,100.0,1.0,0.18,0.0068057379065942225,0.2,1.0,-160.0,0,0,calibrating,0,0,0,0,0,0.0
1.3320963589999337,135,823.36,89.5,3.8,-74.5,-0.34,-2.66,1.54,0.0,0.98,-0.13,-73.3,-14.5,-76.0,-2.52,0.54,0.0,0.0,0.9885848471426213,3.0923777259578107,0.0,0.0,2.0,0.6,1.2,100.0,1.0,0.18,0.0030444080860142497,0.2,1.0,-160.0,0,0,calibrating,0,0,0,0,0,0.0
1.3427164079998875,136,823.37,89.5,4.0,-74.2,-0.3,-2.69,1.52,0.0,0.98,-0.14,-73.5,-29.1,-119.0,-2.51,0.93,0.21,0.0,0.9899494936611665,3.104271251034613,0.0,0.0,2.0,0.6,1.2,100.0,1.0,0.18,0.004320873512468237,0.2,1.0,-160.0,0,0,calibrating,0,0,0,0,0,0.0
1.352134253000031,137,823.38,89.5,4.1,-73.9,-0.31,-2.74,1.49,0.01,0.97,-0.13,-73.9,-42.3,-130.0,-2.5,1.31,0.3,0.0,0.9787236586493656,3.1342941789181182,0.0,0.0,2.0,0.6,1.2,100.0,1.0,0.18,0.006766862269345975,0.2,1.0,-160.0,0,0,calibrating,0,0,0,0,0,0.0
1.3627624829998695,138,823.39,89.5,4.3,-73.6,-0.1,-2.85,1.35,0.04,0.96,-0.1,-74.4,-52.2,-85.0,-2.49,1.46,-0.06,0.0,0.9660227740586658,3.1551545128567002,0.0,0.0,2.0,0.6,1.2,100.0,1.0,0.18,0.019078391922844884,0.2,1.0,-160.0,0,0,calibrating,0,0,0,0,0,0.0
1.3721410949999608,139,823.4,89.6,4.4,-73.4,0.49,-2.86,1.09,0.08,0.98,-0.11,-75.0,-54.6,-44.0,-2.47,1.52,-0.09,0.0,0.9893937537704591,3.0996451409798507,0.0,0.0,2.0,0.6,1.2,100.0,1.0,0.18,0.004206736033169456,0.2,1.0,-160.0,0,0,calibrating,0,0,0,0,0,0.0
1.3829136629999539,140,823.41,89.7,4.5,-73.1,0.78,-2.66,0.77,0.06,1.01,-0.13,-75.5,-60.1,-77.0,-2.46,1.77,0.04,0.0,1.0200980345045274,2.8769602013236124,0.0,0.0,2.0,0.6,1.2,100.0,1.0,0.18,0.03421279643189301,0.2,1.0,-160.0,0,0,calibrating,0,0,0,0,0,0.0
1.3921447829998215,141,823.42,89.8,4.5,-72.8,0.69,-2.43,0.5,0.03,1.03,-0.12,-76.2,-75.2,-146.0,-2.43,2.31,0.25,0.0,1.0374005976477938,2.5750728145044754,0.0,0.0,2.0,0.6,1.2,100.0,1.0,0.18,0.050485052383656415,0.2,1.0,-160.0,0,0,calibrating,0,0,0,0,0,0.0
1.4028198389999034,142,823.43,89.9,4.6,-72.6,0.43,-2.3,0.45,0.02,1.03,-0.11,-77.2,-99.2,-219.0,-2.41,3.01,-0.07,0.0,1.0360501918343532,2.3827295272439124,0.0,0.0,2.0,0.6,1.2,100.0,1.0,0.18,0.04815195363881131,0.2,1.0,-160.0,0,0,calibrating,0,0,0,0,0,0.0
1.4120252759998948,143,823.44,90.0,4.6,-72.3,0.42,-2.31,0.54,0.04,0.99,-0.1,-78.3,-124.7,-242.0,-2.37,3.7,0.36,0.0,0.9958413528268446,2.4091699815496623,0.0,0.0,2.0,0.6,1.2,100.0,1.0,0.18,0.007784252338676634,0.2,1.0,-160.0,0,0,calibrating,0,0,0,0,0,0.0
1.422569380999903,144,823.45,90.1,4.7,-72.1,0.81,-2.36,0.58,0.08,0.96,-0.08,-79.7,-144.6,-185.0,-2.33,4.09,0.08,0.0,0.9666436778875657,2.561659618294359,0.0,0.0,2.0,0.6,1.2,100.0,1.0,0.18,0.020985154148590146,0.2,1.0,-160.0,0,0,calibrating,0,0,0,0,0,0.0
1.43215694599985,145,823.46,90.3,4.7,-71.9,1.41,-2.32,0.44,0.11,0.96,-0.05,-81.3,-157.6,-146.0,-2.29,4.44,-0.04,0.0,0.9675742865537508,2.7502908937056096,0.0,0.0,2.0,0.6,1.2,100.0,1.0,0.18,0.019653454572757023,0.2,1.0,-160.0,0,0,calibrating,0,0,0,0,0,0.0
1.4429316299999755,146,823.47,90.5,4.8,-71.6,1.86,-2.07,0.14,0.13,1.01,-0.05,-82.9,-169.8,-121.0,-2.24,4.72,0.0,0.0,1.0195587280779856,2.786413465370852,0.0,0.0,2.0,0.6,1.2,100.0,1.0,0.18,0.03168436721244827,0.2,1.0,-160.0,0,0,calibrating,0,0,0,0,0,0.0
1.452037713999971,147,823.48,90.7,4.8,-71.5,2.04,-1.7,-0.21,0.17,1.03,-0.05,-84.7,-176.4,-61.0,-2.19,4.79,0.0,0.0,1.0451315706646698,2.663775516067373,0.0,0.0,2.0,0.6,1.2,100.0,1.0,0.18,0.05611206560314996,0.2,1.0,-160.0,0,0,calibrating,0,0,0,0,0,0.0
1.4629221019999932,148,823.49,91.0,4.8,-71.3,2.24,-1.23,-0.71,0.19,1.03,-0.05,-86.4,-172.1,37.0,-2.15,4.53,0.15,0.0,1.0485704554296769,2.6522820362849804,0.0,0.0,2.0,0.6,1.2,100.0,1.0,0.18,0.05835993136079365,0.2,1.0,-160.0,0,0,calibrating,0,0,0,0,0,0.0
1.47209275299997,149,823.5,91.3,4.8,-71.2,2.66,-0.74,-1.31,0.2,1.04,-0.06,-88.1,-158.5,114.0,-2.1,4.1,0.07,0.0,1.0607544484940896,3.0560268323429365,0.0,0.0,2.0,0.6,1.2,100.0,1.0,0.18,0.06913304593670233,0.2,1.0,-160.0,0,0,calibrating,0,0,0,0,0,0.0
1.4827688309999303,150,823.51,91.6,4.6,-71.2,3.0,-0.2,-1.91,0.23,1.1,-0.07,-89.5,-141.0,158.0,-2.07,3.6,0.0,0.0,1.1259662517144997,3.5620359346867905,0.0,0.0,2.0,0.6,1.2,100.0,1.0,0.18,0.13165795217397014,0.2,1.0,-160.0,0,0,calibrating,0,0,0,0,0,0.0
1.4920657099999062,151,823.52,91.9,4.4,-71.2,2.98,0.37,-2.33,0.23,1.17,-0.07,-90.8,-121.6,176.0,-2.03,3.09,0.05,0.0,1.1944454780357283,3.800815701925049,0.0,0.0,2.0,0.6,1.2,100.0,1.0,0.18,0.19613443492529503,0.2,1.0,-160.0,0,0,calibrating,0,0,0,0,0,0.0
1.5027617050000117,152,823.53,92.1,4.2,-71.3,2.42,0.89,-2.38,0.15,1.2,-0.08,-91.9,-108.3,127.0,-2.01,2.84,-0.16,0.0,1.2119818480488889,3.5089742090816225,0.0,0.0,2.0,0.6,1.2,100.0,1.0,0.18,0.20939738883968628,0.2,1.0,-160.0,0,0,calibrating,0,0,0,0,0,0.0
1.5121515119999458,153,823.54,92.3,4.0,-71.4,1.45,1.09,-2.07,0.03,1.18,-0.06,-93.0,-104.1,53.0,-1.98,2.83,-0.1,0.0,1.181905241548577,2.7523626214581536,0.0,0.0,2.0,0.6,1.2,100.0,1.0,0.18,0.1757343666925868,0.2,1.0,-160.0,0,0,calibrating,0,0,0,0,0,0.0
1.522428674999901,154,823.55,92.4,3.8,-71.5,0.88,0.98,-1.52,-0.08,1.14,-0.01,-94.0,-107.6,-28.0,-1.95,3.03,-0.12,0.0,1.1428473213863695,2.0112682565983087,0.0,0.0,2.0,0.6,1.2,100.0,1.0,0.18,0.13394291759977173,0.2,1.0,-160.0,0,0,calibrating,0,0,0,0,0,0.0
1.532071925999844,155,823.56,92.5,3.7,-71.6,0.98,0.49,-0.94,-0.16,1.08,0.04,-95.2,-118.1,-86.0,-1.91,3.36,0.13,0.0,1.092520022699813,1.443641229668923,0.0,0.0,2.0,0.6,1.2,100.0,1.0,0.18,0.08194330653495108,0.2,1.0,-160.0,0,0,calibrating,0,0,0,0,0,0.0
1.542754771999853,156,823.57,92.7,3.6,-71.6,1.55,-0.2,-0.47,-0.19,1.07,0.06,-96.4,-129.3,-103.0,-1.88,3.66,0.15,0.0,1.088393311262064,1.6319926470422592,0.0,0.0,2.0,0.6,1.2,100.0,1.0,0.18,0.07626026319525803,0.2,1.0,-160.0,0,0,calibrating,0,0,0,0,0,0.0
1.5522431609999785,157,823.58,92.8,3.6,-71.5,1.9,-0.78,-0.14,-0.16,1.08,0.07,-97.8,-139.3,-89.0,-1.84,3.87,0.11,0.0,1.0940292500660118,2.058640327983497,0.0,0.0,2.0,0.6,1.2,100.0,1.0,0.18,0.08025827795922158,0.2,1.0,-160.0,0,0,calibrating,0,0,0,0,0,0.0
1.5629159179998169,158,823.59,93.0,3.6,-71.4,1.84,-1.31,0.05,-0.13,1.08,0.06,-99.2,-144.2,-55.0,-1.8,3.95,-0.06,0.0,1.0894494022211403,2.2592476623867515,0.0,0.0,2.0,0.6,1.2,100.0,1.0,0.18,0.07416486151206314,0.2,1.0,-160.0,0,0,calibrating,0,0,0,0,0,0.0
1.5721367379999265,159,823.6,93.2,3.6,-71.3,1.61,-1.78,0.14,-0.1,1.06,0.05,-100.7,-144.5,-2.0,-1.76,3.88,0.05,0.0,1.0658799181896619,2.404183853202579,0.0,0.0,2.0,0.6,1.2,100.0,1.0,0.18,0.049583469930972957,0.2,1.0,-160.0,0,0,calibrating,0,0,0,0,0,0.0
1.5829260009998052,160,823.61,93.4,3.6,-71.1,1.33,-2.15,0.2,-0.05,1.02,0.05,-102.1,-140.0,33.0,-1.72,3.73,0.0,0.0,1.0224480426897007,2.5360205046489668,0.0,0.0,2.0,0.6,1.2,100.0,1.0,0.18,0.00602856254239148,0.2,1.0,-160.0,0,0,calibrating,0,0,0,0,0,0.0
1.592094237999845,161,823.62,93.5,3.6,-70.8,1.12,-2.43,0.29,-0.01,0.99,0.06,-103.4,-133.6,58.0,-1.69,3.53,-0.1,0.0,0.9918669265581951,2.691356535281047,0.0,0.0,2.0,0.6,1.2,100.0,1.0,0.18,0.024061502517331745,0.2,1.0,-160.0,0,0,calibrating,0,0,0,0,0,0.0
1.6026932349998333,162,823.63,93.6,3.6,-70.6,0.93,-2.6,0.4,0.03,0.97,0.07,-104.7,-126.5,69.0,-1.65,3.32,0.14,0.0,0.9729850975220535,2.7901433654921752,0.0,0.0,2.0,0.6,1.2,100.0,1.0,0.18,0.04208446492240392,0.2,1.0,-160.0,0,0,calibrating,0,0,0,0,0,0.0
1.6121572989998185,163,823.64,93.7,3.7,-70.3,0.85,-2.77,0.52,0.07,0.94,0.08,-105.9,-116.9,96.0,-1.62,3.02,0.0,0.0,0.9459915433025815,2.943773089081426,0.0,0.0,2.0,0.6,1.2,100.0,1.0,0.18,0.0676964587590384,0.2,1.0,-160.0,0,0,calibrating,0,0,0,0,0,0.0
1.622696354000027,164,823.65,93.8,3.7,-70.0,0.92,-2.91,0.63,0.11,0.93,0.09,-107.0,-104.6,117.0,-1.59,2.67,0.06,0.0,0.9407975340103736,3.1163119227702483,0.0,0.0,2.0,0.6,1.2,100.0,1.0,0.18,0.07143265869022142,0.2,1.0,-160.0,0,0,calibrating,0,0,0,0,0,0.0
1.63203797999995,165,823.66,94.0,3.7,-69.7,0.95,-2.97,0.66,0.13,0.92,0.09,-108.0,-89.9,144.0,-1.57,2.23,-0.01,0.0,0.9334880824091971,3.18731862229053,0.0,0.0,2.0,0.6,1.2,100.0,1.0,0.18,0.07716726808556995,0.2,1.0,-160.0,0,0,calibrating,0,0,0,0,0,0.0
1.642945447999864,166,823.67,94.1,3.8,-69.4,0.95,-2.97,0.6,0.15,0.92,0.1,-108.7,-72.9,170.0,-1.55,1.73,0.0,0.0,0.9374966666607407,3.1754369778032125,0.0,0.0,2.0,0.6,1.2,100.0,1.0,0.18,0.07169551015734577,0.2,1.0,-160.0,0,0,calibrating,0,0,0,0,0,0.0
1.6521868709999126,167,823.68,94.2,3.8,-69.1,0.76,-2.93,0.48,0.16,0.92,0.11,-109.3,-53.4,183.0,-1.54,1.22,-0.16,0.0,0.9402659198333203,3.0647838422962232,0.0,0.0,2.0,0.6,1.2,100.0,1.0,0.18,0.06754773184507079,0.2,1.0,-160.0,0,0,calibrating,0,0,0,0,0,0.0
1.6628407549999338,168,823.69,94.3,3.8,-68.8,0.52,-2.9,0.31,0.16,0.91,0.11,-109.7,-34.3,188.0,-1.53,0.69,-0.1,0.0,0.9304837451562493,2.9625158227425556,0.0,0.0,2.0,0.6,1.2,100.0,1.0,0.18,0.075783308391699,0.2,1.0,-160.0,0,0,calibrating,0,0,0,0,0,0.0
1.6721509139999853,169,823.7,94.3,3.8,-68.5,0.41,-2.85,0.12,0.15,0.9,0.12,-110.0,-15.2,191.0,-1.53,0.17,-0.06,0.0,0.9202716990106781,2.881839690197913,0.0,0.0,2.0,0.6,1.2,100.0,1.0,0.18,0.08427544744652482,0.2,1.0,-160.0,0,0,calibrating,0,0,0,0,0,0.0
1.6828525779999381,170,823.71,94.4,3.8,-68.2,0.3,-2.8,-0.02,0.14,0.91,0.11,-110.0,2.1,152.0,-1.53,-0.16,-0.06,0.0,0.9272540105062905,2.8160965892525773,0.0,0.0,2.0,0.6,1.2,100.0,1.0,0.18,0.0757472732318939,0.2,1.0,-160.0,0,0,calibrating,0,0,0,0,0,0.0
1.6920866859998114,171,823.72,94.4,3.8,-68.0,0.23,-2.73,-0.08,0.13,0.93,0.12,-109.9,4.5,34.0,-1.53,-0.06,0.08,0.0,0.9466784036831093,2.740839287517603,0.0,0.0,2.0,0.6,1.2,100.0,1.0,0.18,0.055196422453973826,0.2,1.0,-160.0,0,0,calibrating,0,0,0,0,0,0.0
1.702672845999814,172,823.73,94.5,3.8,-67.7,0.17,-2.66,-0.08,0.13,0.94,0.1,-109.9,-1.3,-20.0,-1.53,0.07,0.0,0.0,0.95420123663722,2.6666270830395464,0.0,0.0,2.0,0.6,1.2,100.0,1.0,0.18,0.04672011770986584,0.2,1.0,-160.0,0,0,calibrating,0,0,0,0,0,0.0
1.7121635889998288,173,823.74,94.5,3.7,-67.4,0.1,-2.56,-0.07,0.12,0.95,0.08,-109.9,-1.2,10.0,-1.53,-0.01,-0.15,0.0,0.9608850087289321,2.562908504024285,0.0,0.0,2.0,0.6,1.2,100.0,1.0,0.18,0.03923561870579062,0.2,1.0,-160.0,0,0,calibrating,0,0,0,0,0,0.0
1.7226896529998612,174,823.75,94.5,3.7,-67.2,0.11,-2.51,-0.03,0.12,0.97,0.07,-109.9,1.2,9.0,-1.53,-0.03,0.0,0.0,0.9798979538707079,2.5125883069058483,0.0,0.0,2.0,0.6,1.2,100.0,1.0,0.18,0.019818220092734595,0.2,1.0,-160.0,0,0,calibrating,0,0,0,0,0,0.0
1.7320297909998317,175,823.76,94.6,3.7,-66.9,0.08,-2.4,0.02,0.11,0.98,0.06,-109.9,-0.2,-6.0,-1.53,0.01,-0.15,0.0,0.9879777325425912,2.401416248799862,0.0,0.0,2.0,0.6,1.2,100.0,1.0,0.18,0.011503672592434233,0.2,1.0,-160.0,0,0,calibrating,0,0,0,0,0,0.0
1.7430066209999495,176,823.77,94.6,3.7,-66.7,0.08,-2.33,0.06,0.11,0.98,0.04,-109.9,0.0,1.0,-1.53,0.0,0.0,0.0,0.9869650449737316,2.332144935461774,0.0,0.0,2.0,0.6,1.2,100.0,1.0,0.18,0.01226603295806794,0.2,1.0,-160.0,0,0,calibrating,0,0,0,0,0,0.0
1.7522237359999053,177,823.78,94.6,3.7,-66.5,0.18,-2.23,0.08,0.1,0.99,0.02,-109.9,0.0,0.0,-1.53,0.0,0.0,0.0,0.995238664843765,2.2386826483447804,0.0,0.0,2.0,0.6,1.2,100.0,1.0,0.18,0.00391256482627389,0.2,1.0,-160.0,0,0,calibrating,0,0,0,0,0,0.0
1.7627944019998267,178,823.79,94.6,3.7,-66.3,0.36,-2.11,0.13,0.11,1.01,0.0,-109.9,-0.2,0.0,-1.53,0.0,0.0,0.0,1.0159724405711013,2.1444346574330493,0.0,0.0,2.0,0.6,1.2,100.0,1.0,0.18,0.016484786683041097,0.2,1.0,-160.0,0,0,calibrating,0,0,0,0,0,0.0
1.7722105159998591,179,823.8,94.6,3.7,-66.1,0.51,-1.97,0.2,0.11,1.04,0.0,-109.9,-0.3,-5.0,-1.53,0.03,0.07,0.0,1.0458011283222064,2.0447493733951845,0.0,0.0,2.0,0.6,1.2,100.0,1.0,0.18,0.04538720494546333,0.2,1.0,-160.0,0,0,calibrating,0,0,0,0,0,0.0
1.7829393469999104,180,823.81,94.7,3.7,-65.9,0.6,-1.75,0.33,0.11,1.08,-0.03,-109.9,-1.0,-1.0,-1.53,0.02,-0.07,0.0,1.0860018416190647,1.8792019582790989,0.0,0.0,2.0,0.6,1.2,100.0,1.0,0.18,0.0838761598774751,0.2,1.0,-160.0,0,0,calibrating,0,0,0,0,0,0.0
1.7920736849998775,181,823.82,94.7,3.8,-65.7,0.62,-1.49,0.52,0.11,1.12,-0.04,-110.0,-1.7,-7.0,-1.53,0.06,-0.04,0.0,1.1260994627474077,1.6955530071336606,0.0,0.0,2.0,0.6,1.2,100.0,1.0,0.18,0.12149430538570183,0.2,1.0,-160.0,0,0,calibrating,0,0,0,0,0,0.0
1.8026777860000038,182,823.83,94.8,3.9,-65.6,0.64,-1.28,0.74,0.12,1.15,-0.04,-110.0,-2.7,-5.0,-1.53,0.06,0.02,0.0,1.1569356075426152,1.6110865898517064,0.0,0.0,2.0,0.6,1.2,100.0,1.0,0.18,0.1492838411772912,0.2,1.0,-160.0,0,0,calibrating,0,0,0,0,0,0.0
1.8121766599999773,183,823.84,94.8,4.0,-65.4,0.43,-1.14,0.98,0.13,1.14,-0.04,-110.0,-3.2,-10.0,-1.53,0.11,-0.03,0.0,1.1480853626799707,1.5636176003102549,0.0,0.0,2.0,0.6,1.2,100.0,1.0,0.18,0.13762492438835383,0.2,1.0,-160.0,0,0,calibrating,0,0,0,0,0,0.0
1.8227231169998959,184,823.85,94.8,4.1,-65.3,0.13,-1.1,1.13,0.14,1.1,-0.04,-110.1,-7.2,-43.0,-1.52,0.28,0.0,0.0,1.109594520534416,1.5823400393088711,0.0,0.0,2.0,0.6,1.2,100.0,1.0,0.18,0.09715140059794303,0.2,1.0,-160.0,0,0,calibrating,0,0,0,0,0,0.0
1.8321550619998561,185,823.86,94.8,4.2,-65.2,-0.13,-1.1,1.22,0.14,1.05,-0.04,-110.2,-17.6,-94.0,-1.52,0.63,0.02,0.0,1.0600471687618434,1.6478167373831352,0.0,0.0,2.0,0.6,1.2,100.0,1.0,0.18,0.04665196784886305,0.2,1.0,-160.0,0,0,calibrating,0,0,0,0,0,0.0
1.8429304699998283,186,823.87,94.8,4.4,-65.1,-0.24,-1.12,1.2,0.14,0.99,-0.04,-110.5,-27.5,-77.0,-1.51,0.8,0.02,0.0,1.000649788887201,1.6589153082662178,0.0,0.0,2.0,0.6,1.2,100.0,1.0,0.18,0.012490503785263618,0.2,1.0,-160.0,0,0,calibrating,0,0,0,0,0,0.0
1.852138911999873,187,823.88,94.7,4.5,-65.0,-0.27,-1.09,1.1,0.15,0.96,-0.04,-110.8,-34.7,-79.0,-1.5,1.03,0.04,0.0,0.9724710792614863,1.5719414747375298,0.0,0.0,2.0,0.6,1.2,100.0,1.0,0.18,0.03985582914275865,0.2,1.0,-160.0,0,0,calibrating,0,0,0,0,0,0.0
1.8627250989998174,188,823.89,94.7,4.7,-64.9,-0.28,-1.03,0.98,0.15,0.95,-0.03,-111.2,-42.1,-70.0,-1.49,1.21,0.05,0.0,0.9622369770487933,1.4490341610879987,0.0,0.0,2.0,0.6,1.2,100.0,1.0,0.18,0.04908813272834256,0.2,1.0,-160.0,0,0,calibrating,0,0,0,0,0,0.0
1.8721962239999357,189,823.9,94.6,4.8,-64.7,-0.3,-0.89,0.89,0.15,0.94,-0.05,-111.6,-45.2,-36.0,-1.48,1.25,0.06,0.0,0.9532051195833979,1.2939088066784306,0.0,0.0,2.0,0.6,1.2,100.0,1.0,0.18,0.056957590389863144,0.2,1.0,-160.0,0,0,calibrating,0,0,0,0,0,0.0
1.8829174249999596,190,823.91,94.6,4.9,-64.7,-0.33,-0.76,0.84,0.14,0.95,-0.05,-112.1,-47.8,-29.0,-1.46,1.32,-0.05,0.0,0.9615612304996494,1.179872874508097,0.0,0.0,2.0,0.6,1.2,100.0,1.0,0.18,0.04762944988413942,0.2,1.0,-160.0,0,0,calibrating,0,0,0,0,0,0.0
1.8921673549998559,191,823.92,94.6,5.0,-64.6,-0.35,-0.6,0.84,0.13,0.95,-0.07,-112.6,-48.8,-6.0,-1.45,1.31,-0.03,0.0,0.9614052215377239,1.09,0.0,0.0,2.0,0.6,1.2,100.0,1.0,0.18,0.04682974966914377,0.2,1.0,-160.0,0,0,calibrating,0,0,0,0,0,0.0
1.9029397570000128,192,823.93,94.5,5.2,-64.5,-0.36,-0.49,0.85,0.13,0.94,-0.07,-113.1,-46.4,20.0,-1.44,1.21,0.17,0.0,0.9515250916292224,1.045083728703112,0.0,0.0,2.0,0.6,1.2,100.0,1.0,0.18,0.05557568198609242,0.2,1.0,-160.0,0,0,calibrating,0,0,0,0,0,0.0
1.9121237229999224,193,823.94,94.5,5.3,-64.5,-0.42,-0.43,0.87,0.13,0.94,-0.07,-113.5,-41.7,45.0,-1.43,1.05,-0.07,0.0,0.9515250916292224,1.0574497624000867,0.0,0.0,2.0,0.6,1.2,100.0,1.0,0.18,0.05446416834637047,0.2,1.0,-160.0,0,0,calibrating,0,0,0,0,0,0.0
1.9225590099999863,194,823.95,94.5,5.4,-64.4,-0.55,-0.4,0.9,0.13,0.94,-0.07,-113.9,-37.1,47.0,-1.42,0.93,0.07,0.0,0.9515250916292224,1.1280514172678477,0.0,0.0,2.0,0.6,1.2,100.0,1.0,0.18,0.053374884979443094,0.2,1.0,-160.0,0,0,calibrating,0,0,0,0,0,0.0
1.9319392009999774,195,823.96,94.4,5.5,-64.4,-0.65,-0.43,0.93,0.12,0.93,-0.06,-114.2,-30.3,59.0,-1.41,0.75,-0.11,0.0,0.9396275858019496,1.2133836985883732,0.0,0.0,2.0,0.6,1.2,100.0,1.0,0.18,0.06396694299058159,0.2,1.0,-160.0,0,0,calibrating,0,0,0,0,0,0.0
1.9428251509998518,196,823.97,94.3,5.6,-64.3,-0.68,-0.52,0.94,0.12,0.92,-0.06,-114.5,-22.4,70.0,-1.4,0.53,-0.02,0.0,0.9297311439335568,1.2713772060250255,0.0,0.0,2.0,0.6,1.2,100.0,1.0,0.18,0.07238611716179488,0.2,1.0,-160.0,0,0,calibrating,0,0,0,0,0,0.0
1.9520625569998629,197,823.98,94.3,5.7,-64.3,-0.67,-0.67,0.92,0.12,0.91,-0.05,-114.6,-15.1,78.0,-1.4,0.3,0.04,0.0,0.9192388155425117,1.3206816421833083,0.0,0.0,2.0,0.6,1.2,100.0,1.0,0.18,0.08122087664178312,0.2,1.0,-160.0,0,0,calibrating,0,0,0,0,0,0.0
1.9629338949998782,198,823.99,94.2,5.8,-64.2,-0.63,-0.86,0.82,0.12,0.9,-0.05,-114.7,-7.8,69.0,-1.4,0.13,0.05,0.0,0.9093404203047393,1.3449535307957667,0.0,0.0,2.0,0.6,1.2,100.0,1.0,0.18,0.08929688644196443,0.2,1.0,-160.0,0,0,calibrating,0,0,0,0,0,0.0
1.9721382909999647,199,824.0,94.1,5.9,-64.1,-0.55,-1.05,0.65,0.12,0.89,-0.06,-114.8,-0.6,88.0,-1.4,-0.07,0.13,0.0,0.9000555538409838,1.3518505834595775,0.0,0.0,2.0,0.6,1.2,100.0,1.0,0.18,0.09661011784760565,0.2,1.0,-160.0,0,0,calibrating,0,0,0,0,0,0.0
1.9827383189999637,200,824.01,94.1,6.0,-63.9,-0.51,-1.24,0.41,0.13,0.89,-0.07,-114.7,0.2,10.0,-1.4,0.02,-0.02,0.0,0.9021640649017229,1.402069898400219,0.0,0.0,2.0,0.6,1.2,100.0,1.0,0.18,0.09261157465112924,0.2,1.0,-160.0,0,0,calibrating,0,0,0,0,0,0.0
1.9921936279999954,201,824.02,94.1,6.0,-63.8,-0.52,-1.32,0.12,0.15,0.9,-0.09,-114.8,0.0,14.0,-1.4,-0.02,0.05,0.0,0.9168424073961675,1.423797738444615,0.0,0.0,2.0,0.6,1.2,100.0,1.0,0.18,0.07637456751355087,0.2,1.0,-160.0,0,0,calibrating,0,0,0,0,0,0.0
2.003061490999926,202,824.03,94.1,6.0,-63.7,-0.58,-1.34,-0.13,0.16,0.92,-0.1,-114.7,0.2,4.0,-1.4,-0.02,0.05,0.0,0.9391485505499116,1.4659126849850233,0.0,0.0,2.0,0.6,1.2,100.0,1.0,0.18,0.052987055872610656,0.2,1.0,-160.0,0,0,calibrating,0,0,0,0,0,0.0
2.0120950629998333,203,824.04,94.0,6.0,-63.5,-0.63,-1.27,-0.34,0.16,0.94,-0.11,-114.7,0.3,-1.0,-1.4,0.0,0.05,0.0,0.9598437372822723,1.4578751661236296,0.0,0.0,2.0,0.6,1.2,100.0,1.0,0.18,0.03164603175744496,0.2,1.0,-160.0,0,0,calibrating,0,0,0,0,0,0.0
2.022919301999991,204,824.05,94.0,6.0,-63.4,-0.64,-1.16,-0.49,0.16,0.97,-0.12,-114.7,0.4,1.0,-1.4,0.0,-0.18,0.0,0.9904039579888602,1.4125508840392262,0.0,0.0,2.0,0.6,1.2,100.0,1.0,0.18,0.0010640948298400454,0.2,1.0,-160.0,0,0,calibrating,0,0,0,0,0,0.0
2.0322040599999127,205,824.06,94.0,6.0,-63.3,-0.75,-0.99,-0.58,0.16,0.99,-0.13,-114.7,0.2,2.0,-1.4,-0.01,-0.02,0.0,1.011236866416568,1.370766209096212,0.0,0.0,2.0,0.6,1.2,100.0,1.0,0.18,0.01937343732591046,0.2,1.0,-160.0,0,0,calibrating,0,0,0,0,0,0.0
2.042937083999959,206,824.07,93.9,6.0,-63.2,-0.95,-0.79,-0.61,0.16,1.0,-0.12,-114.7,0.5,2.0,-1.4,-0.01,0.22,0.0,1.019803902718557,1.37793323495734,0.0,0.0,2.0,0.6,1.2,100.0,1.0,0.18,0.02738166415534138,0.2,1.0,-160.0,0,0,calibrating,0,0,0,0,0,0.0
2.0521733659998063,207,824.08,93.9,5.9,-63.2,-1.11,-0.6,-0.62,0.15,1.0,-0.11,-114.7,-0.1,-2.0,-1.4,0.0,0.14,0.0,1.017152889196113,1.4058805070133096,0.0,0.0,2.0,0.6,1.2,100.0,1.0,0.18,0.024236037620239403,0.2,1.0,-160.0,0,0,calibrating,0,0,0,0,0,0.0
2.0628783449999446,208,824.09,93.8,5.9,-63.1,-1.21,-0.42,-0.6,0.14,0.99,-0.1,-114.7,0.4,4.0,-1.4,-0.02,-0.18,0.0,1.004838295448576,1.4143903280212289,0.0,0.0,2.0,0.6,1.2,100.0,1.0,0.18,0.011683014995248486,0.2,1.0,-160.0,0,0,calibrating,0,0,0,0,0,0.0
2.0720860979999998,209,824.1,93.7,5.8,-63.1,-1.22,-0.29,-0.6,0.13,0.98,-0.1,-114.7,0.5,-1.0,-1.4,0.0,0.06,0.0,0.9936297097007516,1.3901438774457844,0.0,0.0,2.0,0.6,1.2,100.0,1.0,0.18,0.00046494066247548815,0.2,1.0,-160.0,0,0,calibrating,0,0,0,0,0,0.0
2.082846302000007,210,824.11,93.6,5.8,-63.1,-1.16,-0.18,-0.58,0.12,0.98,-0.09,-114.7,-0.2,-3.0,-1.4,0.0,-0.02,0.0,0.9914131328563284,1.3093509842666327,0.0,0.0,2.0,0.6,1.2,100.0,1.0,0.18,0.0017166034583088186,0.2,1.0,-160.0,0,0,calibrating,0,0,0,0,0,0.0
2.092236506999825,211,824.12,93.5,5.7,-63.0,-1.11,-0.09,-0.58,0.11,0.98,-0.09,-114.7,0.0,2.0,-1.4,-0.01,-0.18,0.0,0.9902524930541705,1.2556273332482055,0.0,0.0,2.0,0.6,1.2,100.0,1.0,0.18,0.0028196983952573085,0.2,1.0,-160.0,0,0,calibrating,0,0,0,0,0,0.0
2.1029199539998444,212,824.13,93.4,5.7,-63.0,-1.04,-0.03,-0.54,0.11,0.98,-0.1,-114.7,-0.2,-7.0,-1.4,0.03,-0.02,0.0,0.9912113800799505,1.1722201158485552,0.0,0.0,2.0,0.6,1.2,100.0,1.0,0.18,0.0018235951420878527,0.2,1.0,-160.0,0,0,calibrating,0,0,0,0,0,0.0
2.112055181999949,213,824.14,93.3,5.7,-63.0,-0.94,0.02,-0.48,0.11,0.98,-0.1,-114.7,0.3,4.0,-1.4,0.0,-0.18,0.0,0.9912113800799505,1.0556514576317317,0.0,0.0,2.0,0.6,1.2,100.0,1.0,0.18,0.0017871232392461245,0.2,1.0,-160.0,0,0,calibrating,0,0,0,0,0,0.0
2.122751006999806,214,824.15,93.3,5.6,-63.0,-0.86,0.08,-0.44,0.11,0.98,-0.11,-114.7,-0.2,-2.0,-1.4,0.0,-0.1,0.0,0.9922701245124737,0.9693296652842107,0.0,0.0,2.0,0.6,1.2,100.0,1.0,0.18,0.0007138112305884459,0.2,1.0,-160.0,0,0,calibrating,0,0,0,0,0,0.0
2.1321609489998536,215,824.16,93.2,5.6,-63.1,-0.8,0.12,-0.4,0.11,0.98,-0.11,-114.7,0.0,3.0,-1.4,0.0,0.05,0.0,0.9922701245124737,0.9024411338142783,0.0,0.0,2.0,0.6,1.2,100.0,1.0,0.18,0.000699535005976637,0.2,1.0,-160.0,0,0,calibrating,0,0,0,0,0,0.0
2.142925446999925,216,824.17,93.2,5.6,-63.1,-0.8,0.16,-0.39,0.11,0.97,-0.12,-114.7,-0.1,-3.0,-1.4,0.0,-0.02,0.0,0.9835649444749441,0.904267659490264,0.0,0.0,2.0,0.6,1.2,100.0,1.0,0.18,0.009216620742636072,0.2,1.0,-160.0,0,0,calibrating,0,0,0,0,0,0.0
2.152178198999991,217,824.18,93.1,5.5,-63.1,-0.79,0.21,-0.37,0.12,0.96,-0.12,-114.7,-0.5,-4.0,-1.4,0.03,0.21,0.0,0.9748846085563152,0.8972736483370055,0.0,0.0,2.0,0.6,1.2,100.0,1.0,0.18,0.017539017528039658,0.2,1.0,-160.0,0,0,calibrating,0,0,0,0,0,0.0
2.162893805999829,218,824.19,93.1,5.5,-63.1,-0.73,0.27,-0.37,0.13,0.96,-0.12,-114.7,-0.4,0.0,-1.4,0.01,-0.19,0.0,0.9761659694949419,0.8618004409374597,0.0,0.0,2.0,0.6,1.2,100.0,1.0,0.18,0.015932503457624647,0.2,1.0,-160.0,0,0,calibrating,0,0,0,0,0,0.0
2.1721082809999643,219,824.2,93.1,5.5,-63.1,-0.67,0.37,-0.37,0.14,0.96,-0.13,-114.7,-1.0,-6.0,-1.4,0.04,0.13,0.0,0.9788258272031853,0.8501176389182853,0.0,0.0,2.0,0.6,1.2,100.0,1.0,0.18,0.013007192834393666,0.2,1.0,-160.0,0,0,calibrating,0,0,0,0,0,0.0
2.1830100519998723,220,824.21,93.0,5.5,-63.2,-0.6,0.49,-0.37,0.16,0.96,-0.13,-114.8,-1.6,-3.0,-1.4,0.04,-0.02,0.0,0.9818859404228171,0.8584870412533901,0.0,0.0,2.0,0.6,1.2,100.0,1.0,0.18,0.009748138022466657,0.2,1.0,-160.0,0,0,calibrating,0,0,0,0,0,0.0
2.1920994619999874,221,824.22,93.0,5.5,-63.2,-0.55,0.63,-0.38,0.17,0.96,-0.13,-114.8,-0.7,0.0,-1.4,0.02,-0.18,0.0,0.9835649444749441,0.9185858696931931,0.0,0.0,2.0,0.6,1.2,100.0,1.0,0.18,0.007907751290932796,0.2,1.0,-160.0,0,0,calibrating,0,0,0,0,0,0.0
2.2029689239998334,222,824.23,92.9,5.4,-63.3,-0.52,0.79,-0.4,0.17,0.96,-0.13,-114.8,-1.9,-10.0,-1.4,0.07,-0.17,0.0,0.9835649444749441,1.0268885041717042,0.0,0.0,2.0,0.6,1.2,100.0,1.0,0.18,0.007749596265114178,0.2,1.0,-160.0,0,0,calibrating,0,0,0,0,0,0.0
2.2118839099998695,223,824.24,92.9,5.4,-63.4,-0.47,0.94,-0.43,0.17,0.96,-0.13,-114.8,-3.3,-15.0,-1.39,0.12,-0.02,0.0,0.9835649444749441,1.1355175031676086,0.0,0.0,2.0,0.6,1.2,100.0,1.0,0.18,0.00759460433981185,0.2,1.0,-160.0,0,0,calibrating,0,0,0,0,0,0.0
2.2228208019998874,224,824.25,92.8,5.4,-63.5,-0.45,1.08,-0.49,0.17,0.95,-0.12,-114.9,-7.7,-46.0,-1.39,0.3,-0.05,0.0,0.9725224933131367,1.2684636376341263,0.0,0.0,2.0,0.6,1.2,100.0,1.0,0.18,0.018264314391586933,0.2,1.0,-160.0,0,0,calibrating,0,0,0,0,0,0.0
2.232171333999986,225,824.26,92.7,5.3,-63.6,-0.47,1.23,-0.58,0.17,0.94,-0.13,-115.0,-13.7,-43.0,-1.39,0.4,0.13,0.0,0.9640539403996023,1.4388189601197225,0.0,0.0,2.0,0.6,1.2,100.0,1.0,0.18,0.02619820995901878,0.2,1.0,-160.0,0,0,calibrating,0,0,0,0,0,0.0
2.2429712599998766,226,824.27,92.7,5.2,-63.8,-0.47,1.38,-0.68,0.16,0.94,-0.14,-115.1,-15.8,-28.0,-1.38,0.45,0.15,0.0,0.9637427042525406,1.6086329600005091,0.0,0.0,2.0,0.6,1.2,100.0,1.0,0.18,0.02597925718395888,0.2,1.0,-160.0,0,0,calibrating,0,0,0,0,0,0.0
2.252162926999972,227,824.28,92.6,5.2,-63.9,-0.43,1.52,-0.76,0.15,0.93,-0.14,-115.3,-19.9,-55.0,-1.38,0.65,0.23,0.0,0.9523654760647301,1.7529689101635544,0.0,0.0,2.0,0.6,1.2,100.0,1.0,0.18,0.036609355664333876,0.2,1.0,-160.0,0,0,calibrating,0,0,0,0,0,0.0
2.262887743999954,228,824.29,92.6,5.1,-64.1,-0.34,1.67,-0.79,0.14,0.93,-0.14,-115.6,-26.1,-44.0,-1.37,0.74,0.04,0.0,0.9508417323613851,1.8784568134508708,0.0,0.0,2.0,0.6,1.2,100.0,1.0,0.18,0.037370437380325305,0.2,1.0,-160.0,0,0,calibrating,0,0,0,0,0,0.0
2.2720358819999547,229,824.3,92.5,5.0,-64.3,-0.3,1.83,-0.8,0.14,0.94,-0.15,-115.9,-30.3,-48.0,-1.36,0.88,0.01,0.0,0.9621330469326993,2.0196286787427042,0.0,0.0,2.0,0.6,1.2,100.0,1.0,0.18,0.025557540352830976,0.2,1.0,-160.0,0,0,calibrating,0,0,0,0,0,0.0
2.28311742599999,230,824.31,92.5,5.0,-64.5,-0.23,2.01,-0.8,0.14,0.94,-0.15,-116.2,-35.5,-54.0,-1.35,1.05,-0.02,0.0,0.9621330469326993,2.1755459085020474,0.0,0.0,2.0,0.6,1.2,100.0,1.0,0.18,0.025046389545774317,0.2,1.0,-160.0,0,0,calibrating,0,0,0,0,0,0.0
2.292150580999987,231,824.32,92.4,4.9,-64.7,-0.15,2.17,-0.79,0.15,0.93,-0.15,-116.6,-40.3,-32.0,-1.34,1.09,0.03,0.0,0.9538867857350788,2.314195324513469,0.0,0.0,2.0,0.6,1.2,100.0,1.0,0.18,0.03262679772852706,0.2,1.0,-160.0,0,0,calibrating,0,0,0,0,0,0.0
2.3029395129999557,232,824.33,92.4,4.8,-64.9,-0.07,2.33,-0.79,0.15,0.92,-0.16,-117.0,-41.8,-20.0,-1.33,1.14,-0.04,0.0,0.9457801012920498,2.4612801547162406,0.0,0.0,2.0,0.6,1.2,100.0,1.0,0.18,0.0399188125281249,0.2,1.0,-160.0,0,0,calibrating,0,0,0,0,0,0.0
2.3120988719999787,233,824.34,92.4,4.8,-65.2,0.08,2.49,-0.81,0.16,0.92,-0.16,-117.4,-43.1,-13.0,-1.32,1.17,0.03,0.0,0.9474175425861608,2.619656466027559,0.0,0.0,2.0,0.6,1.2,100.0,1.0,0.18,0.037515743809333535,0.2,1.0,-160.0,0,0,calibrating,0,0,0,0,0,0.0
2.3228528839999854,234,824.35,92.4,4.7,-65.4,0.3,2.62,-0.78,0.17,0.94,-0.16,-117.9,-44.1,-12.0,-1.31,1.21,-0.03,0.0,0.9685556256612213,2.75005454491361,0.0,0.0,2.0,0.6,1.2,100.0,1.0,0.18,0.016050107519587686,0.2,1.0,-160.0,0,0,calibrating,0,0,0,0,0,0.0
2.3321586849999676,235,824.36,92.4,4.6,-65.7,0.54,2.83,-0.58,0.17,1.04,-0.13,-118.3,-46.9,-33.0,-1.29,1.33,0.0,0.0,1.0617909398747005,2.9388603233226314,0.0,0.0,2.0,0.6,1.2,100.0,1.0,0.18,0.0756415025600139,0.2,1.0,-160.0,0,0,calibrating,0,0,0,0,0,0.0
2.3429991429998154,236,824.37,92.5,4.6,-66.0,0.7,3.02,-0.29,0.13,1.09,-0.11,-118.8,-52.7,-54.0,-1.28,1.51,-0.01,0.0,1.1032225523438144,3.1135992034942452,0.0,0.0,2.0,0.6,1.2,100.0,1.0,0.18,0.11473165272854502,0.2,1.0,-160.0,0,0,calibrating,0,0,0,0,0,0.0
2.3522200180000254,237,824.38,92.6,4.6,-66.3,0.89,3.09,0.05,0.11,1.17,-0.07,-119.4,-57.2,-32.0,-1.26,1.56,0.17,0.0,1.1772425408555365,3.216006840788744,0.0,0.0,2.0,0.6,1.2,100.0,1.0,0.18,0.18497660841546182,0.2,1.0,-160.0,0,0,calibrating,0,0,0,0,0,0.0
2.3629024509998544,238,824.39,92.6,4.7,-66.6,0.67,2.95,0.45,0.09,1.17,-0.05,-120.0,-57.3,-13.0,-1.25,1.57,-0.08,0.0,1.1745211790342478,3.058414621989635,0.0,0.0,2.0,0.6,1.2,100.0,1.0,0.18,0.17861014166228972,0.2,1.0,-160.0,0,0,calibrating,0,0,0,0,0,0.0
2.372072335999974,239,824.4,92.7,4.8,-66.9,0.37,2.57,0.66,0.09,1.08,-0.06,-120.6,-58.2,-16.0,-1.23,1.61,-0.05,0.0,1.0854031509075326,2.679067001775058,0.0,0.0,2.0,0.6,1.2,100.0,1.0,0.18,0.08770227126486307,0.2,1.0,-160.0,0,0,calibrating,0,0,0,0,0,0.0
2.3829543949998424,240,824.41,92.7,4.8,-67.1,0.04,2.24,0.62,0.1,0.97,-0.1,-121.2,-63.1,-48.0,-1.21,1.8,0.15,0.0,0.9802550688468793,2.324564475337262,0.0,0.0,2.0,0.6,1.2,100.0,1.0,0.18,0.0170968945798744,0.2,1.0,-160.0,0,0,calibrating,0,0,0,0,0,0.0
2.392159492000019,241,824.42,92.7,4.9,-67.3,0.03,2.04,0.46,0.12,0.92,-0.1,-121.9,-70.7,-63.0,-1.2,1.99,-0.1,0.0,0.9331666517830564,2.091434914119968,0.0,0.0,2.0,0.6,1.2,100.0,1.0,0.18,0.06290160541082335,0.2,1.0,-160.0,0,0,calibrating,0,0,0,0,0,0.0
2.4029439019998335,242,824.43,92.7,5.0,-67.5,0.35,1.95,0.41,0.12,0.93,-0.07,-122.6,-77.4,-74.0,-1.17,2.22,-0.12,0.0,0.9403190947758108,2.023141122116794,0.0,0.0,2.0,0.6,1.2,100.0,1.0,0.18,0.054634179169707586,0.2,1.0,-160.0,0,0,calibrating,0,0,0,0,0,0.0
2.4121435949998613,243,824.44,92.8,5.1,-67.7,0.8,1.86,0.51,0.1,0.96,-0.06,-123.5,-87.6,-95.0,-1.15,2.51,0.18,0.0,0.9670573922989266,2.087989463574948,0.0,0.0,2.0,0.6,1.2,100.0,1.0,0.18,0.027337964013659954,0.2,1.0,-160.0,0,0,calibrating,0,0,0,0,0,0.0
2.4228306699999393,244,824.45,92.9,5.1,-67.9,1.01,1.82,0.64,0.08,1.02,-0.05,-124.4,-98.5,-97.0,-1.12,2.79,0.13,0.0,1.02435345462394,2.177636333275141,0.0,0.0,2.0,0.6,1.2,100.0,1.0,0.18,0.029358936345126208,0.2,1.0,-160.0,0,0,calibrating,0,0,0,0,0,0.0
2.4320005189999847,245,824.46,92.9,5.2,-68.0,0.82,1.77,0.75,0.07,1.07,-0.04,-125.5,-107.1,-86.0,-1.09,2.99,0.16,0.0,1.0730330842988953,2.089928228432737,0.0,0.0,2.0,0.6,1.2,100.0,1.0,0.18,0.07647779469967997,0.2,1.0,-160.0,0,0,calibrating,0,0,0,0,0,0.0
2.4429127539999627,246,824.47,93.0,5.3,-68.2,0.5,1.81,0.83,0.06,1.09,-0.04,-126.6,-114.8,-85.0,-1.06,3.23,-0.01,0.0,1.092382716816776,2.053046516764781,0.0,0.0,2.0,0.6,1.2,100.0,1.0,0.18,0.09391087867320935,0.2,1.0,-160.0,0,0,calibrating,0,0,0,0,0,0.0
2.4521266679998917,247,824.48,93.0,5.4,-68.4,0.35,1.81,0.93,0.04,1.09,-0.02,-127.8,-123.5,-83.0,-1.03,3.45,0.0,0.0,1.0909170454255448,2.064824447743682,0.0,0.0,2.0,0.6,1.2,100.0,1.0,0.18,0.0905963031363386,0.2,1.0,-160.0,0,0,calibrating,0,0,0,0,0,0.0
2.462925309999946,248,824.49,93.0,5.4,-68.6,0.44,1.74,1.09,0.04,1.08,-0.01,-129.1,-131.5,-80.0,-0.99,3.66,0.01,0.0,1.0807867504739315,2.0998333267190517,0.0,0.0,2.0,0.6,1.2,100.0,1.0,0.18,0.07885668802103085,0.2,1.0,-160.0,0,0,calibrating,0,0,0,0,0,0.0
2.4720991589999812,249,824.5,93.0,5.5,-68.7,0.58,1.61,1.19,0.04,1.03,-0.02,-130.4,-139.1,-80.0,-0.95,3.89,-0.04,0.0,1.030970416646375,2.08437040854067,0.0,0.0,2.0,0.6,1.2,100.0,1.0,0.18,0.028459547109604744,0.2,1.0,-160.0,0,0,calibrating,0,0,0,0,0,0.0
2.482928842999854,250,824.51,93.0,5.6,-68.9,0.58,1.49,1.2,0.07,1.01,-0.03,-131.9,-147.8,-87.0,-0.91,4.12,0.04,0.0,1.0128672173587216,1.9991248085099638,0.0,0.0,2.0,0.6,1.2,100.0,1.0,0.18,0.01014922086551251,0.2,1.0,-160.0,0,0,calibrating,0,0,0,0,0,0.0
2.4920318150000185,251,824.52,93.1,5.8,-69.0,0.42,1.38,1.16,0.11,0.98,-0.04,-133.4,-155.7,-77.0,-0.87,4.31,0.23,0.0,0.9869650449737316,1.8510537539466538,0.0,0.0,2.0,0.6,1.2,100.0,1.0,0.18,0.015437892489088001,0.2,1.0,-160.0,0,0,calibrating,0,0,0,0,0,0.0
2.5028885629999422,252,824.53,93.1,5.9,-69.2,0.43,1.31,1.13,0.15,0.98,-0.04,-135.0,-161.2,-54.0,-0.83,4.41,-0.09,0.0,0.9922197337283712,1.7826665420094696,0.0,0.0,2.0,0.6,1.2,100.0,1.0,0.18,0.009979539659759395,0.2,1.0,-160.0,0,0,calibrating,0,0,0,0,0,0.0
2.5121046859999296,253,824.54,93.1,6.1,-69.3,0.61,1.38,1.24,0.19,1.02,-0.04,-136.7,-163.6,-27.0,-0.78,4.46,0.04,0.0,1.038315944209661,1.9529720940146584,0.0,0.0,2.0,0.6,1.2,100.0,1.0,0.18,0.035394337405099785,0.2,1.0,-160.0,0,0,calibrating,0,0,0,0,0,0.0
2.522827088999975,254,824.55,93.2,6.3,-69.4,0.78,1.53,1.41,0.18,1.05,-0.03,-138.3,-162.6,12.0,-0.74,4.36,0.01,0.0,1.0657391800998965,2.2220261024569448,0.0,0.0,2.0,0.6,1.2,100.0,1.0,0.18,0.0615612218294288,0.2,1.0,-160.0,0,0,calibrating,0,0,0,0,0,0.0
2.5321671550000246,255,824.56,93.2,6.4,-69.6,0.91,1.7,1.46,0.16,1.07,-0.03,-139.9,-158.4,26.0,-0.69,4.26,-0.34,0.0,1.0823123393919152,2.418615306327155,0.0,0.0,2.0,0.6,1.2,100.0,1.0,0.18,0.07657169349901838,0.2,1.0,-160.0,0,0,calibrating,0,0,0,0,0,0.0
2.543103452999958,256,824.57,93.3,6.6,-69.8,0.85,1.84,1.42,0.15,1.1,-0.03,-141.3,-155.1,31.0,-0.65,4.15,0.3,0.0,1.110585431202841,2.474772716836841,0.0,0.0,2.0,0.6,1.2,100.0,1.0,0.18,0.10274788960374526,0.2,1.0,-160.0,0,0,calibrating,0,0,0,0,0,0.0
2.5521863599999506,257,824.58,93.3,6.8,-69.9,0.54,1.92,1.34,0.13,1.1,-0.04,-143.0,-149.7,50.0,-0.61,3.99,0.15,0.0,1.1083771921146701,2.4028316628511455,0.0,0.0,2.0,0.6,1.2,100.0,1.0,0.18,0.09852885750526297,0.2,1.0,-160.0,0,0,calibrating,0,0,0,0,0,0.0
2.56279088999986,258,824.59,93.3,6.9,-70.1,0.05,2.0,1.19,0.12,1.08,-0.01,-144.4,-142.5,64.0,-0.57,3.78,-0.15,0.0,1.0866922287382017,2.3277886502000134,0.0,0.0,2.0,0.6,1.2,100.0,1.0,0.18,0.0753070162462186,0.2,1.0,-160.0,0,0,calibrating,0,0,0,0,0,0.0
2.5721083070000077,259,824.6,93.2,7.0,-70.3,-0.32,1.98,1.04,0.11,1.04,0.0,-145.8,-135.1,74.0,-0.54,3.57,-0.31,0.0,1.0458011283222064,2.2592919244754537,0.0,0.0,2.0,0.6,1.2,100.0,1.0,0.18,0.03372759751361887,0.2,1.0,-160.0,0,0,calibrating,0,0,0,0,0,0.0
2.582908426999893,260,824.61,93.1,7.1,-70.5,-0.43,1.99,0.87,0.11,0.99,0.0,-147.1,-126.6,84.0,-0.5,3.32,0.07,0.0,0.9960923651951158,2.2140234867769584,0.0,0.0,2.0,0.6,1.2,100.0,1.0,0.18,0.015661542301202203,0.2,1.0,-160.0,0,0,calibrating,0,0,0,0,0,0.0
2.59210079699983,261,824.62,93.0,7.2,-70.7,-0.26,2.01,0.69,0.1,0.96,0.01,-148.3,-119.0,78.0,-0.47,3.12,-0.08,0.0,0.9652460826131334,2.1409810835222243,0.0,0.0,2.0,0.6,1.2,100.0,1.0,0.18,0.04557766838552102,0.2,1.0,-160.0,0,0,calibrating,0,0,0,0,0,0.0
2.603080953000017,262,824.63,93.0,7.3,-70.9,0.02,2.06,0.56,0.11,0.94,0.01,-149.4,-112.6,59.0,-0.44,3.01,0.14,0.0,0.9464671151181112,2.1348536249588634,0.0,0.0,2.0,0.6,1.2,100.0,1.0,0.18,0.06306950316293225,0.2,1.0,-160.0,0,0,calibrating,0,0,0,0,0,0.0
2.6121408499998324,263,824.64,92.9,7.3,-71.2,0.31,2.08,0.42,0.11,0.93,0.01,-150.5,-109.1,40.0,-0.41,2.92,0.05,0.0,0.9365361712181757,2.1445046047980405,0.0,0.0,2.0,0.6,1.2,100.0,1.0,0.18,0.07154043812161048,0.2,1.0,-160.0,0,0,calibrating,0,0,0,0,0,0.0
2.6228755170000113,264,824.65,92.9,7.4,-71.4,0.42,2.13,0.29,0.11,0.93,0.0,-151.6,-106.4,27.0,-0.38,2.87,0.01,0.0,0.9364827814754525,2.190296783543271,0.0,0.0,2.0,0.6,1.2,100.0,1.0,0.18,0.07016195130704694,0.2,1.0,-160.0,0,0,calibrating,0,0,0,0,0,0.0
2.6320981859998938,265,824.66,92.9,7.4,-71.6,0.43,2.18,0.13,0.11,0.93,0.0,-152.7,-105.8,11.0,-0.35,2.87,-0.12,0.0,0.9364827814754525,2.225803225804114,0.0,0.0,2.0,0.6,1.2,100.0,1.0,0.18,0.06875871228090602,0.2,1.0,-160.0,0,0,calibrating,0,0,0,0,0,0.0
2.6430516030000035,266,824.67,92.9,7.4,-71.8,0.46,2.25,-0.02,0.1,0.93,0.0,-153.7,-104.8,14.0,-0.32,2.83,-0.08,0.0,0.9353608929178086,2.296627962905616,0.0,0.0,2.0,0.6,1.2,100.0,1.0,0.18,0.06848298882177906,0.2,1.0,-160.0,0,0,calibrating,0,0,0,0,0,0.0
2.6520896469999116,267,824.68,92.8,7.4,-72.1,0.44,2.3,-0.15,0.09,0.94,0.0,-154.8,-105.3,-3.0,-0.3,2.87,0.19,0.0,0.9442986815621421,2.3465080438813755,0.0,0.0,2.0,0.6,1.2,100.0,1.0,0.18,0.058354296173896536,0.2,1.0,-160.0,0,0,calibrating,0,0,0,0,0,0.0
2.6630725369998345,268,824.69,92.8,7.4,-72.3,0.46,2.31,-0.22,0.07,0.95,0.0,-155.8,-107.3,-13.0,-0.27,2.92,0.06,0.0,0.9525754563287887,2.3656077443227987,0.0,0.0,2.0,0.6,1.2,100.0,1.0,0.18,0.04907597097910488,0.2,1.0,-160.0,0,0,calibrating,0,0,0,0,0,0.0
2.6721583609999016,269,824.7,92.8,7.3,-72.5,0.43,2.28,-0.23,0.05,0.96,0.01,-156.8,-109.6,-22.0,-0.24,3.02,0.01,0.0,0.9613532129243653,2.3315659973502787,0.0,0.0,2.0,0.6,1.2,100.0,1.0,0.18,0.03949225009585777,0.2,1.0,-160.0,0,0,calibrating,0,0,0,0,0,0.0
2.6830707179999536,270,824.71,92.8,7.3,-72.8,0.37,2.23,-0.2,0.02,0.96,0.01,-158.0,-112.5,-32.0,-0.21,3.12,-0.01,0.0,0.9602603813549739,2.2693170778892933,0.0,0.0,2.0,0.6,1.2,100.0,1.0,0.18,0.039773380031944194,0.2,1.0,-160.0,0,0,calibrating,0,0,0,0,0,0.0
2.6921473669999614,271,824.72,92.8,7.3,-73.0,0.3,2.18,-0.19,0.0,0.96,0.02,-159.2,-115.9,-31.0,-0.17,3.2,-0.17,0.0,0.9602083107326242,2.2087326682964603,0.0,0.0,2.0,0.6,1.2,100.0,1.0,0.18,0.03902894164120796,0.2,1.0,-160.0,0,0,calibrating,0,0,0,0,0,0.0
2.703065859999924,272,824.73,92.8,7.3,-73.2,0.26,2.13,-0.19,-0.01,0.97,0.03,-160.4,-119.3,-34.0,-0.14,3.29,0.23,0.0,0.9705153270299238,2.1542051898554138,0.0,0.0,2.0,0.6,1.2,100.0,1.0,0.18,0.028147486837030167,0.2,1.0,-160.0,0,0,calibrating,0,0,0,0,0,0.0
2.712099674000001,273,824.74,92.8,7.3,-73.4,0.27,2.07,-0.22,-0.01,0.96,0.04,-161.6,-123.5,-40.0,-0.11,3.41,0.03,0.0,0.9608850087289321,2.0990950431078623,0.0,0.0,2.0,0.6,1.2,100.0,1.0,0.18,0.03702224903526141,0.2,1.0,-160.0,0,0,calibrating,0,0,0,0,0,0.0
2.723000223999861,274,824.75,92.8,7.2,-73.6,0.31,1.98,-0.3,-0.01,0.97,0.05,-162.9,-128.1,-41.0,-0.07,3.52,0.06,0.0,0.9713392816107047,2.026450098077917,0.0,0.0,2.0,0.6,1.2,100.0,1.0,0.18,0.026036616630419007,0.2,1.0,-160.0,0,0,calibrating,0,0,0,0,0,0.0
2.7361971119999,275,824.76,92.8,7.2,-73.8,0.32,1.91,-0.38,0.0,0.99,0.05,-164.2,-131.5,-35.0,-0.04,3.61,0.13,0.0,0.9912618221237011,1.9735501007068454,0.0,0.0,2.0,0.6,1.2,100.0,1.0,0.18,0.005991794595074151,0.2,1.0,-160.0,0,0,calibrating,0,0,0,0,0,0.0
2.744193907999943,276,824.77,92.8,7.2,-74.0,0.33,1.88,-0.42,0.0,1.0,0.04,-165.5,-134.6,-30.0,0.0,3.69,0.0,0.0,1.0007996802557444,1.9544052803858263,0.0,0.0,2.0,0.6,1.2,100.0,1.0,0.18,0.0034751422662298026,0.2,1.0,-160.0,0,0,calibrating,0,0,0,0,0,0.0
2.7519790389999343,277,824.78,92.8,7.2,-74.2,0.3,1.85,-0.43,0.02,1.0,0.03,-166.9,-137.3,-26.0,0.03,3.76,-0.03,0.0,1.000649788887201,1.9228624495787523,0.0,0.0,2.0,0.6,1.2,100.0,1.0,0.18,0.0032587458797327384,0.2,1.0,-160.0,0,0,calibrating,0,0,0,0,0,0.0
2.7628664929998195,278,824.79,92.8,7.1,-74.4,0.24,1.8,-0.42,0.03,1.0,0.02,-168.3,-139.7,-25.0,0.07,3.83,-0.04,0.0,1.000649788887201,1.863866948041088,0.0,0.0,2.0,0.6,1.2,100.0,1.0,0.18,0.003193570962138126,0.2,1.0,-160.0,0,0,calibrating,0,0,0,0,0,0.0
2.7720368660000076,279,824.8,92.8,7.1,-74.6,0.18,1.69,-0.41,0.02,0.98,0.02,-169.7,-142.3,-24.0,0.1,3.89,0.02,0.0,0.9804080783020914,1.7483134730362286,0.0,0.0,2.0,0.6,1.2,100.0,1.0,0.18,0.016707176830511927,0.2,1.0,-160.0,0,0,calibrating,0,0,0,0,0,0.0
2.7828874189999624,280,824.81,92.8,7.1,-74.7,0.19,1.62,-0.39,0.02,0.97,0.01,-171.1,-145.5,-29.0,0.14,3.99,0.0,0.0,0.9702576977277737,1.6770807970995316,0.0,0.0,2.0,0.6,1.2,100.0,1.0,0.18,0.026320406256733153,0.2,1.0,-160.0,0,0,calibrating,0,0,0,0,0,0.0
2.7920525259999067,281,824.82,92.8,7.0,-74.9,0.22,1.56,-0.39,0.02,0.97,0.01,-172.6,-147.5,-24.0,0.18,4.04,0.16,0.0,0.9702576977277737,1.6229910659027056,0.0,0.0,2.0,0.6,1.2,100.0,1.0,0.18,0.02579399813159844,0.2,1.0,-160.0,0,0,calibrating,0,0,0,0,0,0.0
2.802820684999915,282,824.83,92.8,7.0,-75.1,0.27,1.55,-0.38,0.02,0.98,0.01,-174.1,-147.8,5.0,0.22,3.96,0.06,0.0,0.9802550688468792,1.6185796242384867,0.0,0.0,2.0,0.6,1.2,100.0,1.0,0.18,0.015480694472243095,0.2,1.0,-160.0,0,0,calibrating,0,0,0,0,0,0.0
2.8119099609998557,283,824.84,92.8,6.9,-75.2,0.28,1.58,-0.35,0.04,0.98,0.0,-175.5,-144.1,21.0,0.26,3.89,0.07,0.0,0.9808159868191383,1.6423458831805193,0.0,0.0,2.0,0.6,1.2,100.0,1.0,0.18,0.014621380969984332,0.2,1.0,-160.0,0,0,calibrating,0,0,0,0,0,0.0
2.8228168260000075,284,824.85,92.8,6.9,-75.4,0.21,1.62,-0.32,0.05,0.99,0.0,-177.0,-141.0,37.0,0.3,3.75,-0.1,0.0,0.9912618221237011,1.6646020545463711,0.0,0.0,2.0,0.6,1.2,100.0,1.0,0.18,0.004092034752113172,0.2,1.0,-160.0,0,0,calibrating,0,0,0,0,0,0.0
2.831911769999806,285,824.86,92.8,6.8,-75.6,0.11,1.68,-0.3,0.06,0.98,0.0,-178.3,-133.5,71.0,0.34,3.51,-0.22,0.0,0.9818350166906862,1.7101169550647697,0.0,0.0,2.0,0.6,1.2,100.0,1.0,0.18,0.01324846338142549,0.2,1.0,-160.0,0,0,calibrating,0,0,0,0,0,0.0
2.8428516760000093,286,824.87,92.7,6.8,-75.7,0.05,1.77,-0.28,0.06,0.97,0.0,-179.6,-123.5,95.0,0.37,3.22,-0.07,0.0,0.9718538984847466,1.7927074496414634,0.0,0.0,2.0,0.6,1.2,100.0,1.0,0.18,0.02276498995561782,0.2,1.0,-160.0,0,0,calibrating,0,0,0,0,0,0.0
2.8519062479999775,287,824.88,92.7,6.7,-75.9,0.06,1.87,-0.29,0.05,0.97,0.0,-180.7,-110.1,130.0,0.4,2.79,-0.11,0.0,0.9712878049270462,1.8933039903829496,0.0,0.0,2.0,0.6,1.2,100.0,1.0,0.18,0.022864461843051798,0.2,1.0,-160.0,0,0,calibrating,0,0,0,0,0,0.0
2.86284621599998,288,824.89,92.7,6.7,-76.1,0.04,1.97,-0.32,0.05,0.98,-0.01,-181.7,-94.9,142.0,0.42,2.4,-0.08,0.0,0.9813256340277675,1.9962214306033286,0.0,0.0,2.0,0.6,1.2,100.0,1.0,0.18,0.012570100087483937,0.2,1.0,-160.0,0,0,calibrating,0,0,0,0,0,0.0
2.8718884400000206,289,824.9,92.6,6.6,-76.3,-0.04,2.08,-0.34,0.05,0.99,-0.01,-182.6,-77.2,179.0,0.45,1.84,-0.18,0.0,0.991312261600753,2.1079848196796864,0.0,0.0,2.0,0.6,1.2,100.0,1.0,0.18,0.0025318030642083045,0.2,1.0,-160.0,0,0,calibrating,0,0,0,0,0,0.0
2.8829863019998356,290,824.91,92.6,6.5,-76.5,-0.19,2.17,-0.35,0.04,1.0,-0.01,-183.2,-56.7,195.0,0.46,1.29,-0.09,0.0,1.0008496390567367,2.2062411472910206,0.0,0.0,2.0,0.6,1.2,100.0,1.0,0.18,0.006865462903939745,0.2,1.0,-160.0,0,0,calibrating,0,0,0,0,0,0.0
2.8919051159998617,291,824.92,92.5,6.5,-76.8,-0.3,2.23,-0.34,0.03,0.99,-0.01,-183.6,-36.0,207.0,0.47,0.71,-0.01,0.0,0.9905049217444606,2.2756317804073665,0.0,0.0,2.0,0.6,1.2,100.0,1.0,0.18,0.003409669320169728,0.2,1.0,-160.0,0,0,calibrating,0,0,0,0,0,0.0
2.9028561959999024,292,824.93,92.4,6.4,-77.0,-0.33,2.23,-0.32,0.03,1.0,-0.01,-183.8,-15.1,208.0,0.47,0.15,0.05,0.0,1.000499875062461,2.276883835420683,0.0,0.0,2.0,0.6,1.2,100.0,1.0,0.18,0.006453578317874076,0.2,1.0,-160.0,0,0,calibrating,0,0,0,0,0,0.0
2.9118946269998105,293,824.94,92.3,6.3,-77.2,-0.35,2.17,-0.3,0.05,1.0,-0.01,-183.8,3.5,164.0,0.47,-0.21,0.08,0.0,1.0012991560967182,2.2184228632071026,0.0,0.0,2.0,0.6,1.2,100.0,1.0,0.18,0.007107802165088661,0.2,1.0,-160.0,0,0,calibrating,0,0,0,0,0,0.0
2.9230752989999473,294,824.95,92.3,6.3,-77.4,-0.32,2.13,-0.35,0.08,0.99,-0.01,-183.7,11.1,92.0,0.47,-0.35,-0.07,0.0,0.9932774033471213,2.1821548982599746,0.0,0.0,2.0,0.6,1.2,100.0,1.0,0.18,0.000895671572818002,0.2,1.0,-160.0,0,0,calibrating,0,0,0,0,0,0.0
2.931904265999947,295,824.96,92.2,6.3,-77.7,-0.23,2.11,-0.46,0.1,0.99,-0.02,-183.6,18.4,102.0,0.46,-0.65,-0.14,0.0,0.995238664843765,2.1717734688498247,0.0,0.0,2.0,0.6,1.2,100.0,1.0,0.18,0.0010442781253491296,0.2,1.0,-160.0,0,0,calibrating,0,0,0,0,0,0.0
2.942745511999874,296,824.97,92.2,6.2,-77.9,-0.17,2.18,-0.6,0.11,0.99,-0.03,-183.3,32.3,126.0,0.45,-1.05,-0.04,0.0,0.9965440281292142,2.267443494334534,0.0,0.0,2.0,0.6,1.2,100.0,1.0,0.18,0.002302648582582334,0.2,1.0,-160.0,0,0,calibrating,0,0,0,0,0,0.0
2.952161265999848,297,824.98,92.1,6.1,-78.1,-0.14,2.27,-0.75,0.1,0.99,-0.04,-182.9,48.2,151.0,0.44,-1.5,-0.18,0.0,0.9958413528268446,2.3947860029656094,0.0,0.0,2.0,0.6,1.2,100.0,1.0,0.18,0.001567973814608492,0.2,1.0,-160.0,0,0,calibrating,0,0,0,0,0,0.0
2.9629844229998525,298,824.99,92.1,6.1,-78.3,-0.17,2.38,-0.86,0.09,1.0,-0.04,-182.3,66.4,181.0,0.42,-2.05,0.0,0.0,1.0048382954485762,2.5363162263408716,0.0,0.0,2.0,0.6,1.2,100.0,1.0,0.18,0.01035361810761326,0.2,1.0,-160.0,0,0,calibrating,0,0,0,0,0,0.0
2.9722871849999137,299,825.0,92.0,6.0,-78.6,-0.24,2.47,-0.87,0.07,1.01,-0.03,-181.6,83.9,250.0,0.4,-2.63,-0.05,0.0,1.0128672173587216,2.6297148134350996,0.0,0.0,2.0,0.6,1.2,100.0,1.0,0.18,0.018014889217403574,0.2,1.0,-160.0,0,0,calibrating,0,0,0,0,0,0.0
2.9828140109998458,300,825.01,92.0,5.9,-78.8,-0.31,2.47,-0.8,0.05,1.01,-0.03,-180.4,108.8,230.0,0.36,-3.23,0.0,0.0,1.0116817681464858,2.614765763887848,0.0,0.0,2.0,0.6,1.2,100.0,1.0,0.18,0.016492851205064385,0.2,1.0,-160.0,0,0,calibrating,0,0,0,0,0,0.0
2.9916199679998954,301,825.02,91.9,5.8,-79.1,-0.35,2.43,-0.69,0.03,1.02,-0.03,-179.2,130.3,216.0,0.33,-3.79,-0.02,0.0,1.0208819716304132,2.5501960708933735,0.0,0.0,2.0,0.6,1.2,100.0,1.0,0.18,0.025179193595212146,0.2,1.0,-160.0,0,0,calibrating,0,0,0,0,0,0.0
3.0026843779999126,302,825.03,91.9,5.7,-79.3,-0.37,2.34,-0.58,0.02,1.02,-0.03,-177.7,151.8,220.0,0.29,-4.4,-0.19,0.0,1.0206370559606386,2.439036695090912,0.0,0.0,2.0,0.6,1.2,100.0,1.0,0.18,0.024435592366928827,0.2,1.0,-160.0,0,0,calibrating,0,0,0,0,0,0.0
3.012118838999868,303,825.04,91.8,5.6,-79.6,-0.38,2.23,-0.51,0.01,1.02,-0.03,-176.1,173.9,219.0,0.24,-4.99,-0.22,0.0,1.0204900783447137,2.3189221634198938,0.0,0.0,2.0,0.6,1.2,100.0,1.0,0.18,0.02380284245598363,0.2,1.0,-160.0,0,0,calibrating,0,0,0,0,0,0.0
3.0231488549998176,304,825.05,91.7,5.5,-79.8,-0.35,2.08,-0.49,0.01,1.01,-0.03,-174.2,196.7,230.0,0.18,-5.65,-0.13,0.0,1.0104949282406122,2.165409891914231,0.0,0.0,2.0,0.6,1.2,100.0,1.0,0.18,0.013531538504844454,0.2,1.0,-160.0,0,0,calibrating,0,0,0,0,0,0.0
3.0321626299999025,305,825.06,91.7,5.4,-80.0,-0.32,1.92,-0.5,0.02,1.0,-0.03,-172.0,221.1,239.0,0.12,-6.3,0.15,0.0,1.000649788887201,2.0096765908971523,0.0,0.0,2.0,0.6,1.2,100.0,1.0,0.18,0.003612671168404691,0.2,1.0,-160.0,0,0,calibrating,0,0,0,0,0,0.0
3.0428919629998745,306,825.07,91.7,5.3,-80.2,-0.3,1.74,-0.52,0.02,0.99,-0.03,-169.7,242.9,214.0,0.06,-6.84,-0.24,0.0,0.9906563480844404,1.8406520583749661,0.0,0.0,2.0,0.6,1.2,100.0,1.0,0.18,0.006253154241668835,0.2,1.0,-160.0,0,0,calibrating,0,0,0,0,0,0.0
3.0521440640000037,307,825.08,91.6,5.2,-80.3,-0.29,1.56,-0.56,0.03,0.98,-0.04,-167.1,261.4,193.0,-0.01,-7.33,0.15,0.0,0.9812746812182611,1.682646724657318,0.0,0.0,2.0,0.6,1.2,100.0,1.0,0.18,0.015322124685691163,0.2,1.0,-160.0,0,0,calibrating,0,0,0,0,0,0.0
3.063088251999943,308,825.09,91.6,5.2,-80.5,-0.29,1.4,-0.6,0.03,0.98,-0.04,-164.4,283.1,226.0,-0.08,-8.01,-0.26,0.0,0.9812746812182611,1.5505160431288674,0.0,0.0,2.0,0.6,1.2,100.0,1.0,0.18,0.015015682191977353,0.2,1.0,-160.0,0,0,calibrating,0,0,0,0,0,0.0
3.0721905749999223,309,825.1,91.5,5.1,-80.6,-0.32,1.25,-0.62,0.03,0.97,-0.03,-161.4,307.9,227.0,-0.17,-8.63,-0.04,0.0,0.9709273917240155,1.431537634852818,0.0,0.0,2.0,0.6,1.2,100.0,1.0,0.18,0.024855712252498496,0.2,1.0,-160.0,0,0,calibrating,0,0,0,0,0,0.0
3.0829158719998304,310,825.11,91.5,5.0,-80.7,-0.35,1.1,-0.65,0.02,0.97,-0.03,-158.1,327.2,195.0,-0.26,-9.11,0.06,0.0,0.9706698717895801,1.3247641299491772,0.0,0.0,2.0,0.6,1.2,100.0,1.0,0.18,0.02461096754319525,0.2,1.0,-160.0,0,0,calibrating,0,0,0,0,0,0.0
3.0921923509999942,311,825.12,91.5,4.9,-80.8,-0.37,0.96,-0.65,0.01,0.97,-0.04,-154.7,344.6,182.0,-0.35,-9.59,0.0,0.0,0.9708758932015976,1.216963434126104,0.0,0.0,2.0,0.6,1.2,100.0,1.0,0.18,0.023916847208554137,0.2,1.0,-160.0,0,0,calibrating,0,0,0,0,0,0.0
3.1028987539998525,312,825.13,91.4,4.8,-80.9,-0.41,0.82,-0.63,0.0,0.98,-0.04,-151.2,362.8,181.0,-0.45,-10.07,-0.08,0.0,0.9808159868191383,1.1123848254988018,0.0,0.0,2.0,0.6,1.2,100.0,1.0,0.18,0.013697218519193144,0.2,1.0,-160.0,0,0,calibrating,0,0,0,0,0,0.0
3.1121396039998217,313,825.14,91.4,4.7,-81.0,-0.47,0.68,-0.61,0.0,0.98,-0.04,-147.4,382.6,215.0,-0.56,-10.73,-0.05,0.0,0.9808159868191383,1.0273266277090263,0.0,0.0,2.0,0.6,1.2,100.0,1.0,0.18,0.013423274148809283,0.2,1.0,-160.0,0,0,calibrating,0,0,0,0,0,0.0
3.1231233280000197,314,825.15,91.3,4.5,-81.1,-0.56,0.51,-0.57,-0.01,0.98,-0.05,-143.4,408.1,220.0,-0.67,-11.32,-0.01,0.0,0.9813256340277675,0.9479451460923254,0.0,0.0,2.0,0.6,1.2,100.0,1.0,0.18,0.01265535440137644,0.2,1.0,-160.0,0,0,calibrating,0,0,0,0,0,0.0
3.1321386109998457,315,825.16,91.3,4.4,-81.1,-0.62,0.35,-0.52,-0.01,0.98,-0.06,-139.2,425.2,194.0,-0.79,-11.83,-0.17,0.0,0.9818859404228171,0.8816461875378354,0.0,0.0,2.0,0.6,1.2,100.0,1.0,0.18,0.01185314704620033,0.2,1.0,-160.0,0,0,calibrating,0,0,0,0,0,0.0
3.143054943999914,316,825.17,91.3,4.3,-81.1,-0.67,0.19,-0.43,-0.01,0.99,-0.06,-134.8,449.3,226.0,-0.91,-12.48,-0.02,0.0,0.9918669265581951,0.8184741901856161,0.0,0.0,2.0,0.6,1.2,100.0,1.0,0.18,0.0018347176926059028,0.2,1.0,-160.0,0,0,calibrating,0,0,0,0,0,0.0
3.1521987879998505,317,825.18,91.2,4.3,-81.2,-0.73,0.09,-0.32,0.0,0.98,-0.07,-130.2,463.7,150.0,-1.03,-12.76,-0.08,0.0,0.9824968193332739,0.802122185206219,0.0,0.0,2.0,0.6,1.2,100.0,1.0,0.18,0.010980728419176522,0.2,1.0,-160.0,0,0,calibrating,0,0,0,0,0,0.0
3.162863454999979,318,825.19,91.2,4.2,-81.2,-0.76,0.0,-0.18,0.0,0.98,-0.07,-125.4,483.1,185.0,-1.17,-13.32,-0.08,0.0,0.9824968193332739,0.7810249675906654,0.0,0.0,2.0,0.6,1.2,100.0,1.0,0.18,0.010761113850793036,0.2,1.0,-160.0,0,0,calibrating,0,0,0,0,0,0.0
3.172209020999844,319,825.2,91.1,4.1,-81.1,-0.8,-0.11,-0.02,0.0,0.99,-0.07,-120.5,488.2,43.0,-1.3,-13.2,-0.03,0.0,0.9924716620639604,0.8077747210701757,0.0,0.0,2.0,0.6,1.2,100.0,1.0,0.18,0.0007705456977044056,0.2,1.0,-160.0,0,0,calibrating,0,0,0,0,0,0.0
3.1829222379999464,320,825.21,91.1,4.1,-81.1,-0.8,-0.25,0.13,0.0,0.99,-0.06,-115.7,483.8,-18.0,-1.43,-13.05,-0.19,0.0,0.9918165152889924,0.8481745103456011,0.0,0.0,2.0,0.6,1.2,100.0,1.0,0.18,0.0013971786232189753,0.2,1.0,-160.0,0,0,calibrating,0,0,0,0,0,0.0
3.192142008000019,321,825.22,91.0,4.1,-81.1,-0.83,-0.41,0.28,-0.01,1.0,-0.06,-110.9,470.6,-116.0,-1.56,-12.57,0.07,0.0,1.0018482919085105,0.9671607932500159,0.0,0.0,2.0,0.6,1.2,100.0,1.0,0.18,0.008461906036373201,0.2,1.0,-160.0,0,0,calibrating,0,0,0,0,0,0.0
3.2030627229999027,322,825.23,90.9,4.1,-81.0,-0.98,-0.63,0.42,-0.02,1.01,-0.06,-106.4,444.8,-281.0,-1.68,-11.52,0.09,0.0,1.0119782606360672,1.2384264209067892,0.0,0.0,2.0,0.6,1.2,100.0,1.0,0.18,0.01822003726865129,0.2,1.0,-160.0,0,0,calibrating,0,0,0,0,0,0.0
3.212107328000002,323,825.24,90.8,4.1,-81.0,-1.19,-0.89,0.56,-0.02,1.01,-0.06,-102.3,391.1,-466.0,-1.78,-9.97,0.26,0.0,1.0119782606360672,1.5880176321439254,0.0,0.0,2.0,0.6,1.2,100.0,1.0,0.18,0.017855636523278262,0.2,1.0,-160.0,0,0,calibrating,0,0,0,0,0,0.0
3.2231209579999813,324,825.25,90.8,4.1,-80.8,-1.28,-1.16,0.63,0.01,0.99,-0.06,-98.7,340.9,-466.0,-1.87,-8.7,0.15,0.0,0.9918669265581951,1.8387223825254317,0.0,0.0,2.0,0.6,1.2,100.0,1.0,0.18,0.0022105836035020143,0.2,1.0,-160.0,0,0,calibrating,0,0,0,0,0,0.0
3.2320985469998504,325,825.26,90.7,4.2,-80.7,-1.09,-1.36,0.61,0.04,0.98,-0.06,-95.6,295.2,-467.0,-1.95,-7.43,0.25,0.0,0.9826494797230597,1.8465643774317755,0.0,0.0,2.0,0.6,1.2,100.0,1.0,0.18,0.011199469829864639,0.2,1.0,-160.0,0,0,calibrating,0,0,0,0,0,0.0
3.2431653009998627,326,825.27,90.6,4.2,-80.6,-1.12,-1.54,0.61,0.03,0.99,-0.06,-93.0,248.5,-452.0,-2.02,-6.23,0.09,0.0,0.9922701245124737,1.9995249435803497,0.0,0.0,2.0,0.6,1.2,100.0,1.0,0.18,0.0015472485396417213,0.2,1.0,-160.0,0,0,calibrating,0,0,0,0,0,0.0
3.252176501999884,327,825.28,90.5,4.3,-80.4,-1.24,-1.7,0.63,0.03,0.97,-0.07,-90.8,211.2,-369.0,-2.07,-5.37,0.0,0.0,0.9729850975220535,2.1964744478368057,0.0,0.0,2.0,0.6,1.2,100.0,1.0,0.18,0.020415630019460562,0.2,1.0,-160.0,0,0,calibrating,0,0,0,0,0,0.0
3.2629486999999244,328,825.29,90.5,4.3,-80.2,-1.13,-1.76,0.65,0.03,0.96,-0.06,-88.9,185.0,-279.0,-2.12,-4.76,0.13,0.0,0.9623408959407265,2.1902054698132774,0.0,0.0,2.0,0.6,1.2,100.0,1.0,0.18,0.03043863496877197,0.2,1.0,-160.0,0,0,calibrating,0,0,0,0,0,0.0
3.2721031539999785,329,825.3,90.4,4.3,-80.0,-0.99,-1.88,0.7,0.01,0.95,-0.06,-87.2,161.9,-249.0,-2.17,-4.11,0.06,0.0,0.951945376584182,2.2370739817896057,0.0,0.0,2.0,0.6,1.2,100.0,1.0,0.18,0.040017471238810054,0.2,1.0,-160.0,0,0,calibrating,0,0,0,0,0,0.0
3.283095753999987,330,825.31,90.4,4.4,-79.8,-0.91,-2.08,0.77,0.0,0.95,-0.05,-85.7,141.9,-197.0,-2.2,-3.68,0.03,0.0,0.9513148795220223,2.397373562880846,0.0,0.0,2.0,0.6,1.2,100.0,1.0,0.18,0.03983500893495029,0.2,1.0,-160.0,0,0,calibrating,0,0,0,0,0,0.0
3.292134826999927,331,825.32,90.3,4.4,-79.6,-0.76,-2.33,0.83,0.0,0.95,-0.06,-84.4,128.5,-147.0,-2.24,-3.35,-0.07,0.0,0.951892851112981,2.587547101020579,0.0,0.0,2.0,0.6,1.2,100.0,1.0,0.18,0.0384718965971117,0.2,1.0,-160.0,0,0,calibrating,0,0,0,0,0,0.0
3.3029243789999327,332,825.33,90.3,4.5,-79.4,-0.58,-2.58,0.86,0.0,0.94,-0.07,-83.2,118.1,-108.0,-2.27,-3.12,0.16,0.0,0.9426027795418386,2.780719331396105,0.0,0.0,2.0,0.6,1.2,100.0,1.0,0.18,0.04680672880488912,0.2,1.0,-160.0,0,0,calibrating,0,0,0,0,0,0.0
3.312091351999925,333,825.34,90.3,4.5,-79.1,-0.44,-2.79,0.8,0.0,0.94,-0.09,-82.0,110.8,-87.0,-2.3,-2.92,-0.16,0.0,0.9442986815621421,2.9355919334948446,0.0,0.0,2.0,0.6,1.2,100.0,1.0,0.18,0.04420861024889389,0.2,1.0,-160.0,0,0,calibrating,0,0,0,0,0,0.0
3.323020907,334,825.35,90.3,4.6,-78.8,-0.34,-2.98,0.72,0.0,0.94,-0.09,-81.0,102.7,-85.0,-2.33,-2.67,-0.16,0.0,0.9442986815621421,3.084542105402356,0.0,0.0,2.0,0.6,1.2,100.0,1.0,0.18,0.04332443804391606,0.2,1.0,-160.0,0,0,calibrating,0,0,0,0,0,0.0
3.3320239380000203,335,825.36,90.3,4.7,-78.5,-0.18,-3.16,0.64,0.01,0.94,-0.1,-80.0,96.8,-54.0,-2.35,-2.6,-0.07,0.0,0.9453570753953238,3.22917946234024,0.0,0.0,2.0,0.6,1.2,100.0,1.0,0.18,0.04142072332651969,0.2,1.0,-160.0,0,0,calibrating,0,0,0,0,0,0.0
3.343173945999979,336,825.37,90.3,4.7,-78.2,-0.03,-3.34,0.56,0.03,0.95,-0.1,-79.1,93.8,-36.0,-2.38,-2.54,0.01,0.0,0.9557196241576292,3.3867536078079254,0.0,0.0,2.0,0.6,1.2,100.0,1.0,0.18,0.030437011072929954,0.2,1.0,-160.0,0,0,calibrating,0,0,0,0,0,0.0
3.352030634999892,337,825.38,90.3,4.8,-77.8,0.01,-3.47,0.49,0.04,0.96,-0.12,-78.1,91.1,-40.0,-2.4,-2.4,0.04,0.0,0.9682974749528164,3.5044400408624488,0.0,0.0,2.0,0.6,1.2,100.0,1.0,0.18,0.017501977072187924,0.2,1.0,-160.0,0,0,calibrating,0,0,0,0,0,0.0
3.3630687229999694,338,825.39,90.4,4.8,-77.5,0.05,-3.54,0.44,0.04,0.97,-0.13,-77.3,84.4,-62.0,-2.43,-2.2,-0.02,0.0,0.9794896630388705,3.567590223105787,0.0,0.0,2.0,0.6,1.2,100.0,1.0,0.18,0.006183593206411153,0.2,1.0,-160.0,0,0,calibrating,0,0,0,0,0,0.0
3.3720699009998043,339,825.4,90.4,4.9,-77.1,0.03,-3.55,0.41,0.04,0.99,-0.14,-76.5,72.0,-129.0,-2.45,-1.71,0.0,0.0,1.000649788887201,3.573723548345619,0.0,0.0,2.0,0.6,1.2,100.0,1.0,0.18,0.014677001989081062,0.2,1.0,-160.0,0,0,calibrating,0,0,0,0,0,0.0
3.3831272969998736,340,825.41,90.4,4.9,-76.7,-0.06,-3.56,0.43,0.05,0.99,-0.15,-75.9,50.8,-197.0,-2.46,-1.08,0.0,0.0,1.002546757014355,3.586377001933846,0.0,0.0,2.0,0.6,1.2,100.0,1.0,0.18,0.016242490713910263,0.2,1.0,-160.0,0,0,calibrating,0,0,0,0,0,0.0
3.3961672259999887,341,825.42,90.4,4.9,-76.4,-0.16,-3.53,0.43,0.06,1.0,-0.16,-75.6,24.7,-256.0,-2.46,-0.28,0.06,0.0,1.0144949482377918,3.5596909978255136,0.0,0.0,2.0,0.6,1.2,100.0,1.0,0.18,0.027626868298600282,0.2,1.0,-160.0,0,0,calibrating,0,0,0,0,0,0.0
3.4040855270000066,342,825.43,90.4,5.0,-76.0,-0.29,-3.51,0.44,0.07,1.0,-0.17,-75.6,-3.6,-230.0,-2.46,0.26,-0.07,0.0,1.0167595585978033,3.549337966438248,0.0,0.0,2.0,0.6,1.2,100.0,1.0,0.18,0.02929364908543952,0.2,1.0,-160.0,0,0,calibrating,0,0,0,0,0,0.0
3.4120429929998863,343,825.44,90.4,5.0,-75.7,-0.5,-3.45,0.49,0.07,1.01,-0.18,-75.7,-10.4,-91.0,-2.46,0.29,0.0,0.0,1.0282995672468214,3.520312486129605,0.0,0.0,2.0,0.6,1.2,100.0,1.0,0.18,0.04001698457976843,0.2,1.0,-160.0,0,0,calibrating,0,0,0,0,0,0.0
3.4229786209998565,344,825.45,90.4,5.1,-75.3,-0.7,-3.38,0.58,0.05,1.0,-0.19,-75.8,-12.0,-43.0,-2.46,0.34,0.02,0.0,1.0191172650877818,3.500114283848457,0.0,0.0,2.0,0.6,1.2,100.0,1.0,0.18,0.030217988772314297,0.2,1.0,-160.0,0,0,calibrating,0,0,0,0,0,0.0
3.4321221509999305,345,825.46,90.4,5.1,-75.0,-0.74,-3.36,0.64,0.04,0.96,-0.19,-75.9,-16.9,-70.0,-2.45,0.59,0.01,0.0,0.979438614717635,3.499542827284729,0.0,0.0,2.0,0.6,1.2,100.0,1.0,0.18,0.00927144836587579,0.2,1.0,-160.0,0,0,calibrating,0,0,0,0,0,0.0
3.4430052870000054,346,825.47,90.3,5.2,-74.7,-0.71,-3.42,0.67,0.03,0.94,-0.18,-76.2,-28.1,-99.0,-2.44,0.9,-0.1,0.0,0.9575489543621255,3.55659949952198,0.0,0.0,2.0,0.6,1.2,100.0,1.0,0.18,0.03053788654695766,0.2,1.0,-160.0,0,0,calibrating,0,0,0,0,0,0.0
3.4520433669999875,347,825.48,90.3,5.3,-74.3,-0.58,-3.51,0.7,0.03,0.93,-0.18,-76.5,-42.4,-134.0,-2.43,1.33,0.21,0.0,0.947734139935879,3.6258102542742083,0.0,0.0,2.0,0.6,1.2,100.0,1.0,0.18,0.03954564695374008,0.2,1.0,-160.0,0,0,calibrating,0,0,0,0,0,0.0
3.4629804510000213,348,825.49,90.3,5.3,-73.9,-0.29,-3.65,0.68,0.06,0.91,-0.17,-77.1,-55.9,-125.0,-2.41,1.64,0.08,0.0,0.9276852914647296,3.7241106320838537,0.0,0.0,2.0,0.6,1.2,100.0,1.0,0.18,0.05840260551639176,0.2,1.0,-160.0,0,0,calibrating,0,0,0,0,0,0.0
3.4719084639998528,349,825.5,90.3,5.4,-73.6,0.31,-3.76,0.48,0.11,0.92,-0.16,-77.6,-63.0,-78.0,-2.4,1.77,-0.31,0.0,0.9402659198333203,3.803169730632594,0.0,0.0,2.0,0.6,1.2,100.0,1.0,0.18,0.044905537604844836,0.2,1.0,-160.0,0,0,calibrating,0,0,0,0,0,0.0
3.483136964999858,350,825.51,90.4,5.4,-73.2,0.84,-3.76,0.13,0.15,0.95,-0.19,-78.3,-66.6,-48.0,-2.38,1.88,-0.03,0.0,0.9803570778037969,3.854880024073382,0.0,0.0,2.0,0.6,1.2,100.0,1.0,0.18,0.0047180920416809435,0.2,1.0,-160.0,0,0,calibrating,0,0,0,0,0,0.0
3.492003954999973,351,825.52,90.5,5.4,-72.8,0.89,-3.49,-0.25,0.13,0.99,-0.21,-79.0,-73.1,-79.0,-2.36,2.18,0.35,0.0,1.0203430795570674,3.610360092843926,0.0,0.0,2.0,0.6,1.2,100.0,1.0,0.18,0.034562551517357765,0.2,1.0,-160.0,0,0,calibrating,0,0,0,0,0,0.0
3.5027733629999602,352,825.53,90.6,5.4,-72.5,0.36,-3.16,-0.48,0.08,1.0,-0.21,-79.8,-88.5,-141.0,-2.33,2.67,0.0,0.0,1.0249390225764652,3.21645767887594,0.0,0.0,2.0,0.6,1.2,100.0,1.0,0.18,0.03837532464602045,0.2,1.0,-160.0,0,0,calibrating,0,0,0,0,0,0.0
3.5120269699998516,353,825.54,90.7,5.3,-72.2,0.11,-2.94,-0.52,0.07,0.96,-0.17,-80.8,-106.9,-170.0,-2.3,3.16,-0.06,0.0,0.9774456506629922,2.987657945615595,0.0,0.0,2.0,0.6,1.2,100.0,1.0,0.18,0.008935686322103509,0.2,1.0,-160.0,0,0,calibrating,0,0,0,0,0,0.0
3.5228836789999605,354,825.55,90.7,5.3,-71.9,0.48,-2.94,-0.48,0.1,0.93,-0.15,-82.0,-123.5,-156.0,-2.27,3.57,0.06,0.0,0.9473119866232033,3.0173498305632376,0.0,0.0,2.0,0.6,1.2,100.0,1.0,0.18,0.038287963354654564,0.2,1.0,-160.0,0,0,calibrating,0,0,0,0,0,0.0
3.5320416199999727,355,825.56,90.8,5.2,-71.6,0.76,-2.98,-0.47,0.11,0.93,-0.14,-83.3,-136.2,-133.0,-2.23,3.88,0.08,0.0,0.9468896451012653,3.111093055503162,0.0,0.0,2.0,0.6,1.2,100.0,1.0,0.18,0.03793609877906068,0.2,1.0,-160.0,0,0,calibrating,0,0,0,0,0,0.0
3.543006414999809,356,825.57,90.9,5.1,-71.3,0.77,-2.87,-0.58,0.12,0.97,-0.13,-84.8,-148.5,-126.0,-2.19,4.2,0.0,0.0,0.9860020283954795,3.027573285653049,0.0,0.0,2.0,0.6,1.2,100.0,1.0,0.18,0.0011527588248504417,0.2,1.0,-160.0,0,0,calibrating,0,0,0,0,0,0.0
3.551919433999956,357,825.58,91.1,5.1,-71.0,0.71,-2.6,-0.81,0.14,1.01,-0.08,-86.3,-158.2,-84.0,-2.15,4.32,-0.08,0.0,1.0227903010881556,2.8142849891224593,0.0,0.0,2.0,0.6,1.2,100.0,1.0,0.18,0.037182210887176104,0.2,1.0,-160.0,0,0,calibrating,0,0,0,0,0,0.0
3.562990834999937,358,825.59,91.2,5.0,-70.8,0.93,-2.33,-1.16,0.19,1.03,0.0,-87.9,-155.2,31.0,-2.1,3.99,0.0,0.0,1.047377677822093,2.763946453895227,0.0,0.0,2.0,0.6,1.2,100.0,1.0,0.18,0.06053419586869113,0.2,1.0,-160.0,0,0,calibrating,0,0,0,0,0,0.0
3.571908216999873,359,825.6,91.3,4.9,-70.6,1.45,-2.07,-1.67,0.22,1.07,0.03,-89.4,-138.2,141.0,-2.07,3.45,0.05,0.0,1.0927945827098522,3.029240828986695,0.0,0.0,2.0,0.6,1.2,100.0,1.0,0.18,0.10383207874132139,0.2,1.0,-160.0,0,0,calibrating,0,0,0,0,0,0.0
3.582858602999977,360,825.61,91.5,4.7,-70.4,1.95,-1.68,-2.25,0.27,1.12,0.0,-90.6,-117.6,183.0,-2.04,2.9,-0.03,0.0,1.1520850663036997,3.4186839573145686,0.0,0.0,2.0,0.6,1.2,100.0,1.0,0.18,0.15986011108846554,0.2,1.0,-160.0,0,0,calibrating,0,0,0,0,0,0.0
3.5919096029999764,361,825.62,91.7,4.4,-70.3,1.96,-1.05,-2.74,0.29,1.17,0.0,-91.6,-97.0,198.0,-2.01,2.32,0.09,0.0,1.2054044964243331,3.5286966432381237,0.0,0.0,2.0,0.6,1.2,100.0,1.0,0.18,0.20891595038491706,0.2,1.0,-160.0,0,0,calibrating,0,0,0,0,0,0.0
3.602689794999833,362,825.63,91.9,4.1,-70.2,1.34,-0.46,-2.96,0.23,1.23,0.0,-92.5,-79.1,165.0,-1.99,1.96,-0.1,0.0,1.2513193037750197,3.2815849829007933,0.0,0.0,2.0,0.6,1.2,100.0,1.0,0.18,0.24973414258089144,0.2,1.0,-160.0,0,0,calibrating,0,0,0,0,0,0.0
3.6118962419998297,363,825.64,91.9,3.9,-70.2,0.34,-0.13,-2.73,0.09,1.16,0.02,-93.2,-66.5,134.0,-1.97,1.65,-0.14,0.0,1.1636580253665592,2.7541604891509137,0.0,0.0,2.0,0.6,1.2,100.0,1.0,0.18,0.15883140688898223,0.2,1.0,-160.0,0,0,calibrating,0,0,0,0,0,0.0
3.6231104199998754,364,825.65,91.9,3.6,-70.2,-0.04,-0.15,-2.3,-0.04,1.11,0.07,-93.8,-57.4,91.0,-1.96,1.49,-0.07,0.0,1.112924076476019,2.305233176925926,0.0,0.0,2.0,0.6,1.2,100.0,1.0,0.18,0.10593550883847325,0.2,1.0,-160.0,0,0,calibrating,0,0,0,0,0,0.0
3.6319385169999805,365,825.66,91.9,3.4,-70.2,0.14,-0.46,-1.8,-0.14,1.07,0.11,-94.3,-52.7,61.0,-1.95,1.37,-0.06,0.0,1.0847119433287347,1.8631156700537945,0.0,0.0,2.0,0.6,1.2,100.0,1.0,0.18,0.0761689081773651,0.2,1.0,-160.0,0,0,calibrating,0,0,0,0,0,0.0
3.6427979989998676,366,825.67,92.0,3.3,-70.1,0.57,-0.93,-1.33,-0.2,1.06,0.14,-94.8,-49.5,27.0,-1.93,1.35,0.0,0.0,1.087749971270972,1.7200872070915476,0.0,0.0,2.0,0.6,1.2,100.0,1.0,0.18,0.07762279739721034,0.2,1.0,-160.0,0,0,calibrating,0,0,0,0,0,0.0
3.651993697999842,367,825.68,92.0,3.2,-70.0,0.76,-1.47,-0.93,-0.22,1.09,0.14,-95.3,-50.1,0.0,-1.92,1.37,0.09,0.0,1.1207586716149023,1.8982623633207292,0.0,0.0,2.0,0.6,1.2,100.0,1.0,0.18,0.10841886778631782,0.2,1.0,-160.0,0,0,calibrating,0,0,0,0,0,0.0
3.662884280999833,368,825.69,92.1,3.1,-69.8,0.61,-1.98,-0.58,-0.21,1.11,0.13,-95.8,-50.1,9.0,-1.9,1.33,0.17,0.0,1.1371455491712572,2.1514878572745886,0.0,0.0,2.0,0.6,1.2,100.0,1.0,0.18,0.12230963043581933,0.2,1.0,-160.0,0,0,calibrating,0,0,0,0,0,0.0
3.6719030609999663,369,825.7,92.2,3.0,-69.6,0.34,-2.4,-0.32,-0.17,1.12,0.11,-96.3,-48.7,11.0,-1.89,1.3,-0.12,0.0,1.1381564040148437,2.444994887520217,0.0,0.0,2.0,0.6,1.2,100.0,1.0,0.18,0.12085407557381767,0.2,1.0,-160.0,0,0,calibrating,0,0,0,0,0,0.0
3.6828304759999355,370,825.71,92.2,3.0,-69.3,0.07,-2.69,-0.06,-0.1,1.12,0.08,-96.8,-47.6,9.0,-1.88,1.31,0.13,0.0,1.1272976536833563,2.691579461951662,0.0,0.0,2.0,0.6,1.2,100.0,1.0,0.18,0.10779541873748366,0.2,1.0,-160.0,0,0,calibrating,0,0,0,0,0,0.0
3.691901259999895,371,825.72,92.2,3.0,-69.0,-0.15,-2.79,0.15,-0.01,1.1,0.07,-97.3,-47.8,7.0,-1.87,1.27,-0.11,0.0,1.1022703842524302,2.7980528944249787,0.0,0.0,2.0,0.6,1.2,100.0,1.0,0.18,0.0811127863204264,0.2,1.0,-160.0,0,0,calibrating,0,0,0,0,0,0.0
3.702863238999953,372,825.73,92.2,3.0,-68.8,-0.38,-2.77,0.34,0.05,1.07,0.07,-97.7,-47.0,6.0,-1.85,1.25,-0.01,0.0,1.0734523743510933,2.8165404310962767,0.0,0.0,2.0,0.6,1.2,100.0,1.0,0.18,0.05124888089070789,0.2,1.0,-160.0,0,0,calibrating,0,0,0,0,0,0.0
3.7120083279999108,373,825.74,92.1,3.0,-68.5,-0.46,-2.69,0.5,0.11,1.04,0.07,-98.2,-44.3,35.0,-1.84,1.1,-0.06,0.0,1.0481412118603104,2.774472922917072,0.0,0.0,2.0,0.6,1.2,100.0,1.0,0.18,0.025418964031926228,0.2,1.0,-160.0,0,0,calibrating,0,0,0,0,0,0.0
3.7231607009998697,374,825.75,92.1,3.1,-68.2,-0.38,-2.55,0.64,0.16,1.01,0.08,-98.6,-39.1,43.0,-1.83,0.98,-0.01,0.0,1.0257192598367255,2.6564073482807564,0.0,0.0,2.0,0.6,1.2,100.0,1.0,0.18,0.002937071768174482,0.2,1.0,-160.0,0,0,calibrating,0,0,0,0,0,0.0
3.7321584659998734,375,825.76,92.1,3.1,-68.0,-0.31,-2.4,0.76,0.18,0.99,0.09,-99.0,-33.6,52.0,-1.82,0.81,-0.14,0.0,1.010247494428964,2.5364739304790813,0.0,0.0,2.0,0.6,1.2,100.0,1.0,0.18,0.012283999766795173,0.2,1.0,-160.0,0,0,calibrating,0,0,0,0,0,0.0
3.7430765829999473,376,825.77,92.0,3.2,-67.7,-0.28,-2.26,0.84,0.19,0.96,0.09,-99.2,-28.2,48.0,-1.81,0.7,0.01,0.0,0.9827512401416749,2.4272618317767036,0.0,0.0,2.0,0.6,1.2,100.0,1.0,0.18,0.03898464897300258,0.2,1.0,-160.0,0,0,calibrating,0,0,0,0,0,0.0
3.752296089999845,377,825.78,92.0,3.3,-67.5,-0.26,-2.11,0.83,0.19,0.92,0.08,-99.5,-24.1,46.0,-1.81,0.59,-0.06,0.0,0.9428149341201592,2.2822357459298543,0.0,0.0,2.0,0.6,1.2,100.0,1.0,0.18,0.07734253589462792,0.2,1.0,-160.0,0,0,calibrating,0,0,0,0,0,0.0
3.7630569639998157,378,825.79,92.0,3.4,-67.3,-0.29,-1.96,0.77,0.19,0.9,0.07,-99.7,-20.4,41.0,-1.8,0.48,-0.05,0.0,0.922496612459905,2.1256998847438457,0.0,0.0,2.0,0.6,1.2,100.0,1.0,0.18,0.09570764040378443,0.2,1.0,-160.0,0,0,calibrating,0,0,0,0,0,0.0
3.7722365539998464,379,825.8,92.0,3.4,-67.1,-0.36,-1.8,0.71,0.19,0.89,0.07,-99.9,-15.8,44.0,-1.8,0.36,-0.06,0.0,0.9127431182978045,1.9681717404738845,0.0,0.0,2.0,0.6,1.2,100.0,1.0,0.18,0.10335191187456716,0.2,1.0,-160.0,0,0,calibrating,0,0,0,0,0,0.0
3.783001153999976,380,825.81,92.0,3.5,-66.9,-0.46,-1.66,0.68,0.19,0.88,0.07,-100.0,-13.5,14.0,-1.8,0.39,0.01,0.0,0.9029950165975447,1.8519179247472066,0.0,0.0,2.0,0.6,1.2,100.0,1.0,0.18,0.11083801330333043,0.2,1.0,-160.0,0,0,calibrating,0,0,0,0,0,0.0
3.792013243999918,381,825.82,91.9,3.6,-66.8,-0.48,-1.58,0.66,0.18,0.87,0.07,-100.2,-13.4,19.0,-1.79,0.29,0.0,0.0,0.8911789943664516,1.7783138080777532,0.0,0.0,2.0,0.6,1.2,100.0,1.0,0.18,0.12020095482373505,0.2,1.0,-160.0,0,0,calibrating,0,0,0,0,0,0.0
3.8028468139998495,382,825.83,91.9,3.6,-66.6,-0.37,-1.55,0.68,0.14,0.87,0.07,-100.3,-9.2,29.0,-1.79,0.22,0.0,0.0,0.8839683252243826,1.7325703448922356,0.0,0.0,2.0,0.6,1.2,100.0,1.0,0.18,0.12486339148648806,0.2,1.0,-160.0,0,0,calibrating,0,0,0,0,0,0.0
3.8121293619999506,383,825.84,91.9,3.7,-66.5,-0.11,-1.59,0.73,0.11,0.88,0.06,-100.3,-6.5,32.0,-1.79,0.12,0.08,0.0,0.8888756943465155,1.7530259553126988,0.0,0.0,2.0,0.6,1.2,100.0,1.0,0.18,0.11755690191706814,0.2,1.0,-160.0,0,0,calibrating,0,0,0,0,0,0.0
3.8232302960000197,384,825.85,91.9,3.8,-66.3,0.13,-1.63,0.79,0.08,0.9,0.06,-100.4,-3.2,24.0,-1.79,0.08,0.08,0.0,0.9055385138137417,1.8160121144970371,0.0,0.0,2.0,0.6,1.2,100.0,1.0,0.18,0.09887620080084503,0.2,1.0,-160.0,0,0,calibrating,0,0,0,0,0,0.0
3.832108461999951,385,825.86,91.8,3.9,-66.1,0.4,-1.75,0.85,0.07,0.92,0.04,-100.4,-4.1,-1.0,-1.79,0.15,0.06,0.0,0.9235258523723091,1.9862024066041206,0.0,0.0,2.0,0.6,1.2,100.0,1.0,0.18,0.07927108499743207,0.2,1.0,-160.0,0,0,calibrating,0,0,0,0,0,0.0
3.8430485689998477,386,825.87,91.9,4.0,-65.9,0.58,-1.85,0.85,0.08,0.94,0.02,-100.5,-7.6,-32.0,-1.78,0.26,-0.01,0.0,0.9436100889668358,2.1169317419321767,0.0,0.0,2.0,0.6,1.2,100.0,1.0,0.18,0.058003111434847154,0.2,1.0,-160.0,0,0,calibrating,0,0,0,0,0,0.0
3.8522862339998483,387,825.88,91.9,4.0,-65.8,0.71,-1.95,0.82,0.1,0.96,0.01,-100.6,-11.2,-25.0,-1.78,0.31,-0.12,0.0,0.9652460826131334,2.231367293835777,0.0,0.0,2.0,0.6,1.2,100.0,1.0,0.18,0.03563977543277874,0.2,1.0,-160.0,0,0,calibrating,0,0,0,0,0,0.0
3.863229645999809,388,825.89,92.0,4.1,-65.6,0.74,-2.03,0.79,0.11,0.99,0.0,-100.7,-12.3,-16.0,-1.78,0.35,0.02,0.0,0.9960923651951158,2.300565147958214,0.0,0.0,2.0,0.6,1.2,100.0,1.0,0.18,0.004697622993780404,0.2,1.0,-160.0,0,0,calibrating,0,0,0,0,0,0.0
3.8721840829998655,389,825.9,92.0,4.2,-65.3,0.72,-2.1,0.77,0.12,1.01,0.0,-100.8,-12.2,-2.0,-1.77,0.33,-0.04,0.0,1.0171037311896953,2.3497446669797974,0.0,0.0,2.0,0.6,1.2,100.0,1.0,0.18,0.015987468140783223,0.2,1.0,-160.0,0,0,calibrating,0,0,0,0,0,0.0
3.8825815129998773,390,825.91,92.1,4.3,-65.1,0.69,-2.17,0.73,0.12,1.02,-0.01,-101.0,-15.4,-37.0,-1.77,0.51,0.15,0.0,1.0270832488167645,2.3912130812623116,0.0,0.0,2.0,0.6,1.2,100.0,1.0,0.18,0.025447646052495276,0.2,1.0,-160.0,0,0,calibrating,0,0,0,0,0,0.0
3.896190390999891,391,825.92,92.2,4.4,-64.9,0.61,-2.21,0.68,0.13,1.03,-0.04,-101.2,-21.2,-43.0,-1.76,0.62,-0.07,0.0,1.0389417693018217,2.391359446005556,0.0,0.0,2.0,0.6,1.2,100.0,1.0,0.18,0.036560043206801396,0.2,1.0,-160.0,0,0,calibrating,0,0,0,0,0,0.0
3.9041480589999082,392,825.93,92.3,4.5,-64.7,0.52,-2.16,0.67,0.13,1.06,-0.05,-101.4,-24.9,-54.0,-1.76,0.8,-0.08,0.0,1.0691117808723276,2.320538730553748,0.0,0.0,2.0,0.6,1.2,100.0,1.0,0.18,0.06539545368176136,0.2,1.0,-160.0,0,0,calibrating,0,0,0,0,0,0.0
3.9121888259999196,393,825.94,92.3,4.6,-64.5,0.46,-2.08,0.77,0.13,1.09,-0.04,-101.7,-33.4,-68.0,-1.75,1.01,-0.01,0.0,1.098453458276681,2.2651490017215203,0.0,0.0,2.0,0.6,1.2,100.0,1.0,0.18,0.09284238846439208,0.2,1.0,-160.0,0,0,calibrating,0,0,0,0,0,0.0
3.922932995999872,394,825.95,92.4,4.7,-64.3,0.41,-2.08,0.96,0.12,1.11,-0.03,-102.1,-39.6,-58.0,-1.74,1.13,0.11,0.0,1.1168706281391771,2.327251597915447,0.0,0.0,2.0,0.6,1.2,100.0,1.0,0.18,0.10903436716035042,0.2,1.0,-160.0,0,0,calibrating,0,0,0,0,0,0.0
3.9322133999999096,395,825.96,92.5,4.8,-64.0,0.27,-2.06,1.14,0.12,1.1,-0.03,-102.5,-44.0,-47.0,-1.72,1.25,-0.11,0.0,1.106932698947863,2.3698312176186724,0.0,0.0,2.0,0.6,1.2,100.0,1.0,0.18,0.09711450920965548,0.2,1.0,-160.0,0,0,calibrating,0,0,0,0,0,0.0
3.9429959679998774,396,825.97,92.5,4.9,-63.8,0.05,-2.05,1.25,0.11,1.07,-0.03,-103.0,-48.6,-50.0,-1.71,1.41,0.04,0.0,1.076057619275102,2.4015619917045656,0.0,0.0,2.0,0.6,1.2,100.0,1.0,0.18,0.06491464094615651,0.2,1.0,-160.0,0,0,calibrating,0,0,0,0,0,0.0
3.952198870999837,397,825.98,92.5,5.1,-63.6,-0.15,-2.02,1.32,0.11,1.03,-0.03,-103.5,-53.2,-36.0,-1.69,1.48,-0.1,0.0,1.0362914647916386,2.4177055238386664,0.0,0.0,2.0,0.6,1.2,100.0,1.0,0.18,0.0246455167334394,0.2,1.0,-160.0,0,0,calibrating,0,0,0,0,0,0.0
3.962922863999893,398,825.99,92.5,5.2,-63.4,-0.25,-2.01,1.35,0.12,1.0,-0.03,-104.1,-56.0,-41.0,-1.68,1.6,-0.08,0.0,1.0076209604806758,2.4341528300416964,0.0,0.0,2.0,0.6,1.2,100.0,1.0,0.18,0.003944487825972676,0.2,1.0,-160.0,0,0,calibrating,0,0,0,0,0,0.0
3.972186293999812,399,826.0,92.5,5.4,-63.2,-0.24,-2.0,1.38,0.12,0.97,-0.03,-104.6,-60.1,-56.0,-1.66,1.7,0.02,0.0,0.9778547949465708,2.4417207047490095,0.0,0.0,2.0,0.6,1.2,100.0,1.0,0.18,0.033036440292876446,0.2,1.0,-160.0,0,0,calibrating,0,0,0,0,0,0.0
3.9829107499999736,400,826.01,92.5,5.5,-63.0,-0.22,-1.99,1.39,0.13,0.96,-0.04,-105.4,-63.3,-29.0,-1.64,1.74,0.0,0.0,0.9695875411740809,2.4373346097735533,0.0,0.0,2.0,0.6,1.2,100.0,1.0,0.18,0.04047762018405909,0.2,1.0,-160.0,0,0,calibrating,0,0,0,0,0,0.0
3.9921972689999166,401,826.02,92.5,5.7,-62.8,-0.23,-1.95,1.4,0.14,0.95,-0.04,-106.0,-64.3,-8.0,-1.63,1.73,0.09,0.0,0.9610931276416453,2.411514047232568,0.0,0.0,2.0,0.6,1.2,100.0,1.0,0.18,0.04799259304216463,0.2,1.0,-160.0,0,0,calibrating,0,0,0,0,0,0.0
4.002852257999848,402,826.03,92.5,5.8,-62.6,-0.25,-1.91,1.39,0.15,0.95,-0.04,-106.6,-62.6,12.0,-1.61,1.67,0.14,0.0,0.9626006440887104,2.375436801937698,0.0,0.0,2.0,0.6,1.2,100.0,1.0,0.18,0.04555537506319751,0.2,1.0,-160.0,0,0,calibrating,0,0,0,0,0,0.0
4.012139238999907,403,826.04,92.5,6.0,-62.4,-0.26,-1.88,1.35,0.15,0.94,-0.05,-107.2,-59.9,20.0,-1.59,1.59,-0.05,0.0,0.9532051195833979,2.329055602599474,0.0,0.0,2.0,0.6,1.2,100.0,1.0,0.18,0.053851881577139826,0.2,1.0,-160.0,0,0,calibrating,0,0,0,0,0,0.0
4.023119473999941,404,826.05,92.5,6.1,-62.2,-0.32,-1.87,1.29,0.15,0.94,-0.05,-107.8,-57.6,22.0,-1.58,1.53,0.03,0.0,0.9532051195833979,2.2942101037176172,0.0,0.0,2.0,0.6,1.2,100.0,1.0,0.18,0.05277484394559706,0.2,1.0,-160.0,0,0,calibrating,0,0,0,0,0,0.0
4.032278393999832,405,826.06,92.5,6.3,-62.0,-0.4,-1.85,1.22,0.15,0.94,-0.06,-108.4,-53.9,35.0,-1.56,1.41,-0.01,0.0,0.9537819457297354,2.2518658929874134,0.0,0.0,2.0,0.6,1.2,100.0,1.0,0.18,0.0511540574432745,0.2,1.0,-160.0,0,0,calibrating,0,0,0,0,0,0.0
4.043067650000012,406,826.07,92.5,6.4,-61.8,-0.5,-1.84,1.16,0.15,0.94,-0.06,-108.9,-49.2,51.0,-1.55,1.25,-0.19,0.0,0.9537819457297354,2.231860210676287,0.0,0.0,2.0,0.6,1.2,100.0,1.0,0.18,0.0501309762944091,0.2,1.0,-160.0,0,0,calibrating,0,0,0,0,0,0.0
4.052214043999811,407,826.08,92.4,6.6,-61.6,-0.54,-1.82,1.1,0.15,0.93,-0.06,-109.3,-42.2,63.0,-1.54,1.06,-0.24,0.0,0.9439279633531364,2.1940829519414256,0.0,0.0,2.0,0.6,1.2,100.0,1.0,0.18,0.05878525949758784,0.2,1.0,-160.0,0,0,calibrating,0,0,0,0,0,0.0
4.062805405999825,408,826.09,92.4,6.7,-61.4,-0.54,-1.83,1.0,0.15,0.92,-0.06,-109.7,-35.1,63.0,-1.53,0.88,-0.09,0.0,0.9340770846134703,2.1541819793137256,0.0,0.0,2.0,0.6,1.2,100.0,1.0,0.18,0.06726341547250891,0.2,1.0,-160.0,0,0,calibrating,0,0,0,0,0,0.0
4.072200523999982,409,826.1,92.4,6.8,-61.2,-0.54,-1.83,0.87,0.16,0.91,-0.06,-110.0,-29.0,67.0,-1.52,0.7,-0.1,0.0,0.9259049627256569,2.096997854076155,0.0,0.0,2.0,0.6,1.2,100.0,1.0,0.18,0.07392682661311578,0.2,1.0,-160.0,0,0,calibrating,0,0,0,0,0,0.0
4.082938803999923,410,826.11,92.4,6.9,-61.0,-0.54,-1.8,0.71,0.16,0.91,-0.07,-110.3,-23.9,49.0,-1.52,0.6,-0.04,0.0,0.92660671268883,2.0089051744669284,0.0,0.0,2.0,0.6,1.2,100.0,1.0,0.18,0.07176057511694389,0.2,1.0,-160.0,0,0,calibrating,0,0,0,0,0,0.0
4.092214005999949,411,826.12,92.4,7.0,-60.9,-0.55,-1.72,0.55,0.18,0.91,-0.08,-110.5,-18.5,65.0,-1.51,0.39,-0.06,0.0,0.931074647920348,1.8876970095860193,0.0,0.0,2.0,0.6,1.2,100.0,1.0,0.18,0.0659467870877174,0.2,1.0,-160.0,0,0,calibrating,0,0,0,0,0,0.0
4.102704453999877,412,826.13,92.4,7.1,-60.7,-0.55,-1.61,0.4,0.18,0.91,-0.09,-110.6,-14.0,31.0,-1.51,0.38,0.2,0.0,0.9319871243745806,1.7477413996355413,0.0,0.0,2.0,0.6,1.2,100.0,1.0,0.18,0.0637336244208151,0.2,1.0,-160.0,0,0,calibrating,0,0,0,0,0,0.0
4.112215835999905,413,826.14,92.4,7.1,-60.5,-0.51,-1.5,0.26,0.19,0.91,-0.1,-110.8,-13.5,10.0,-1.5,0.38,0.25,0.0,0.9349866309204641,1.6055217220579734,0.0,0.0,2.0,0.6,1.2,100.0,1.0,0.18,0.059519435517432995,0.2,1.0,-160.0,0,0,calibrating,0,0,0,0,0,0.0
4.122871336999879,414,826.15,92.3,7.1,-60.4,-0.44,-1.37,0.15,0.2,0.92,-0.1,-110.9,-12.4,24.0,-1.5,0.28,0.13,0.0,0.94678403028357,1.4467204291085407,0.0,0.0,2.0,0.6,1.2,100.0,1.0,0.18,0.04676759543124043,0.2,1.0,-160.0,0,0,calibrating,0,0,0,0,0,0.0
4.132164756999828,415,826.16,92.3,7.2,-60.3,-0.43,-1.23,0.06,0.2,0.94,-0.11,-111.0,-9.9,5.0,-1.5,0.3,-0.09,0.0,0.9673158739522473,1.3043772460450236,0.0,0.0,2.0,0.6,1.2,100.0,1.0,0.18,0.025711036727311898,0.2,1.0,-160.0,0,0,calibrating,0,0,0,0,0,0.0
4.143078337999896,416,826.17,92.3,7.1,-60.1,-0.42,-1.09,-0.01,0.2,0.95,-0.11,-111.1,-11.9,-7.0,-1.49,0.33,0.09,0.0,0.9770363350459388,1.1681609478149833,0.0,0.0,2.0,0.6,1.2,100.0,1.0,0.18,0.015670764120947922,0.2,1.0,-160.0,0,0,calibrating,0,0,0,0,0,0.0
4.152261939000027,417,826.18,92.2,7.1,-60.0,-0.51,-0.95,-0.05,0.19,0.96,-0.12,-111.2,-12.8,-7.0,-1.49,0.35,0.04,0.0,0.9859513172565875,1.0793979803575695,0.0,0.0,2.0,0.6,1.2,100.0,1.0,0.18,0.006620666272093234,0.2,1.0,-160.0,0,0,calibrating,0,0,0,0,0,0.0
4.162987213999941,418,826.19,92.2,7.1,-59.9,-0.61,-0.8,-0.1,0.18,0.96,-0.11,-111.3,-12.0,3.0,-1.49,0.32,0.12,0.0,0.9829038610159184,1.010989614189978,0.0,0.0,2.0,0.6,1.2,100.0,1.0,0.18,0.009474760062507026,0.2,1.0,-160.0,0,0,calibrating,0,0,0,0,0,0.0
4.172236328999816,419,826.2,92.2,7.1,-59.9,-0.67,-0.68,-0.15,0.18,0.96,-0.11,-111.5,-13.2,-17.0,-1.48,0.4,0.06,0.0,0.9829038610159184,0.9663332758422428,0.0,0.0,2.0,0.6,1.2,100.0,1.0,0.18,0.009285264861256914,0.2,1.0,-160.0,0,0,calibrating,0,0,0,0,0,0.0
4.183014506999825,420,826.21,92.1,7.1,-59.8,-0.71,-0.58,-0.23,0.17,0.95,-0.1,-111.6,-16.1,-26.0,-1.48,0.48,0.12,0.0,0.9702576977277738,0.9451983918733675,0.0,0.0,2.0,0.6,1.2,100.0,1.0,0.18,0.02149279958641348,0.2,1.0,-160.0,0,0,calibrating,0,0,0,0,0,0.0
4.19215544299982,421,826.22,92.1,7.1,-59.7,-0.75,-0.48,-0.32,0.18,0.95,-0.1,-111.8,-20.4,-39.0,-1.47,0.61,-0.26,0.0,0.97205966895042,0.9462029380635002,0.0,0.0,2.0,0.6,1.2,100.0,1.0,0.18,0.019297011796492014,0.2,1.0,-160.0,0,0,calibrating,0,0,0,0,0,0.0
4.202991068999836,422,826.23,92.1,7.1,-59.7,-0.78,-0.37,-0.41,0.18,0.94,-0.1,-112.1,-25.6,-48.0,-1.47,0.76,-0.08,0.0,0.9622889378975527,0.9557196241576292,0.0,0.0,2.0,0.6,1.2,100.0,1.0,0.18,0.02848638799237213,0.2,1.0,-160.0,0,0,calibrating,0,0,0,0,0,0.0
4.212153768000007,423,826.24,92.0,7.1,-59.7,-0.78,-0.24,-0.52,0.19,0.94,-0.11,-112.4,-32.4,-71.0,-1.46,0.98,0.01,0.0,0.9652978814852957,0.9676776322722357,0.0,0.0,2.0,0.6,1.2,100.0,1.0,0.18,0.024967895516536442,0.2,1.0,-160.0,0,0,calibrating,0,0,0,0,0,0.0
4.223139518999915,424,826.25,91.9,7.0,-59.7,-0.75,-0.08,-0.6,0.19,0.93,-0.11,-112.7,-37.7,-45.0,-1.45,1.06,-0.1,0.0,0.9555626614722867,0.9637945839233586,0.0,0.0,2.0,0.6,1.2,100.0,1.0,0.18,0.03400905321895453,0.2,1.0,-160.0,0,0,calibrating,0,0,0,0,0,0.0
4.232249162000016,425,826.26,91.9,7.0,-59.7,-0.69,0.07,-0.68,0.19,0.92,-0.11,-113.1,-40.4,-35.0,-1.44,1.14,-0.03,0.0,0.9458329662260668,0.9712878049270464,0.0,0.0,2.0,0.6,1.2,100.0,1.0,0.18,0.04286397349587101,0.2,1.0,-160.0,0,0,calibrating,0,0,0,0,0,0.0
4.242930271999967,426,826.27,91.8,6.9,-59.7,-0.57,0.23,-0.75,0.19,0.92,-0.11,-113.6,-44.4,-31.0,-1.42,1.22,0.19,0.0,0.9458329662260668,0.9696906723280367,0.0,0.0,2.0,0.6,1.2,100.0,1.0,0.18,0.042006694025953584,0.2,1.0,-160.0,0,0,calibrating,0,0,0,0,0,0.0
4.2522373049998805,427,826.28,91.7,6.8,-59.7,-0.48,0.38,-0.82,0.19,0.93,-0.11,-114.0,-47.0,-22.0,-1.41,1.28,0.04,0.0,0.9555626614722867,1.0233279044372825,0.0,0.0,2.0,0.6,1.2,100.0,1.0,0.18,0.03163145880413898,0.2,1.0,-160.0,0,0,calibrating,0,0,0,0,0,0.0
4.262896781999871,428,826.29,91.7,6.7,-59.8,-0.42,0.52,-0.89,0.18,0.93,-0.11,-114.5,-46.8,-5.0,-1.4,1.28,0.06,0.0,0.9536246641105713,1.113058848399311,0.0,0.0,2.0,0.6,1.2,100.0,1.0,0.18,0.03289806704253728,0.2,1.0,-160.0,0,0,calibrating,0,0,0,0,0,0.0
4.2721929049998835,429,826.3,91.6,6.6,-59.8,-0.37,0.64,-0.92,0.18,0.94,-0.11,-115.0,-47.4,-6.0,-1.39,1.28,0.01,0.0,0.9633794683301071,1.180211845390479,0.0,0.0,2.0,0.6,1.2,100.0,1.0,0.18,0.0226803975665415,0.2,1.0,-160.0,0,0,calibrating,0,0,0,0,0,0.0
4.282738035999955,430,826.31,91.6,6.6,-59.9,-0.36,0.76,-0.93,0.17,0.94,-0.11,-115.4,-48.8,-15.0,-1.37,1.34,0.2,0.0,0.9615612304996495,1.2538341198101128,0.0,0.0,2.0,0.6,1.2,100.0,1.0,0.18,0.024008662689059213,0.2,1.0,-160.0,0,0,calibrating,0,0,0,0,0,0.0
4.292110526999977,431,826.32,91.6,6.5,-60.0,-0.32,0.86,-0.94,0.17,0.94,-0.11,-115.9,-50.4,-21.0,-1.36,1.41,-0.12,0.0,0.9615612304996495,1.313620949893842,0.0,0.0,2.0,0.6,1.2,100.0,1.0,0.18,0.023528489435278077,0.2,1.0,-160.0,0,0,calibrating,0,0,0,0,0,0.0
4.3029471190000095,432,826.33,91.5,6.4,-60.1,-0.23,0.94,-0.92,0.16,0.94,-0.1,-116.5,-53.3,-18.0,-1.34,1.45,0.02,0.0,0.9587491851365507,1.3352527850560731,0.0,0.0,2.0,0.6,1.2,100.0,1.0,0.18,0.02581372410240934,0.2,1.0,-160.0,0,0,calibrating,0,0,0,0,0,0.0
4.3121367449998615,433,826.34,91.5,6.3,-60.2,-0.15,0.97,-0.91,0.16,0.94,-0.09,-117.0,-53.4,-2.0,-1.33,1.44,-0.17,0.0,0.9577577981932592,1.3384692749555367,0.0,0.0,2.0,0.6,1.2,100.0,1.0,0.18,0.026269008824786777,0.2,1.0,-160.0,0,0,calibrating,0,0,0,0,0,0.0
4.323108899999852,434,826.35,91.5,6.3,-60.3,-0.07,0.98,-0.93,0.16,0.94,-0.1,-117.5,-53.1,-2.0,-1.31,1.44,0.1,0.0,0.9587491851365507,1.352848845954344,0.0,0.0,2.0,0.6,1.2,100.0,1.0,0.18,0.02477206944386534,0.2,1.0,-160.0,0,0,calibrating,0,0,0,0,0,0.0
4.332214446999842,435,826.36,91.5,6.2,-60.4,-0.06,1.01,-0.99,0.16,0.94,-0.11,-118.1,-53.4,-1.0,-1.3,1.44,0.23,0.0,0.9598437372822723,1.4155564276990162,0.0,0.0,2.0,0.6,1.2,100.0,1.0,0.18,0.023203966952180854,0.2,1.0,-160.0,0,0,calibrating,0,0,0,0,0,0.0
4.342919122000012,436,826.37,91.5,6.1,-60.5,-0.09,1.1,-1.07,0.16,0.93,-0.13,-118.6,-55.1,-21.0,-1.29,1.54,0.1,0.0,0.9525754563287887,1.5372052563011878,0.0,0.0,2.0,0.6,1.2,100.0,1.0,0.18,0.02986280294755117,0.2,1.0,-160.0,0,0,calibrating,0,0,0,0,0,0.0
4.352218161999872,437,826.38,91.5,6.0,-60.6,-0.08,1.24,-1.16,0.18,0.93,-0.14,-119.2,-57.5,-14.0,-1.27,1.57,0.08,0.0,0.9575489543621256,1.699882348870062,0.0,0.0,2.0,0.6,1.2,100.0,1.0,0.18,0.024391518815929936,0.2,1.0,-160.0,0,0,calibrating,0,0,0,0,0,0.0
4.362975663999805,438,826.39,91.5,5.8,-60.7,-0.04,1.44,-1.23,0.19,0.92,-0.17,-119.8,-56.9,-1.0,-1.25,1.54,-0.09,0.0,0.9546727187890099,1.8942280749687985,0.0,0.0,2.0,0.6,1.2,100.0,1.0,0.18,0.026722399301264743,0.2,1.0,-160.0,0,0,calibrating,0,0,0,0,0,0.0
4.372267455999918,439,826.4,91.4,5.7,-60.9,0.07,1.71,-1.27,0.2,0.92,-0.19,-120.3,-58.3,-16.0,-1.24,1.62,0.06,0.0,0.9604686356149273,2.1311733857197073,0.0,0.0,2.0,0.6,1.2,100.0,1.0,0.18,0.020507952825840392,0.2,1.0,-160.0,0,0,calibrating,0,0,0,0,0,0.0
4.382961369999975,440,826.41,91.4,5.6,-61.1,0.23,2.02,-1.26,0.22,0.93,-0.2,-120.9,-61.6,-36.0,-1.22,1.75,0.0,0.0,0.9763708311906907,2.391840295671933,0.0,0.0,2.0,0.6,1.2,100.0,1.0,0.18,0.004513642105075544,0.2,1.0,-160.0,0,0,calibrating,0,0,0,0,0,0.0
4.3922106069999245,441,826.42,91.5,5.5,-61.3,0.42,2.35,-1.2,0.24,0.94,-0.22,-121.6,-66.8,-42.0,-1.2,1.86,0.03,0.0,0.994786409235671,2.6718720029222958,0.0,0.0,2.0,0.6,1.2,100.0,1.0,0.18,0.013623897221106684,0.2,1.0,-160.0,0,0,calibrating,0,0,0,0,0,0.0
4.402820080999845,442,826.43,91.5,5.4,-61.6,0.64,2.73,-1.01,0.25,0.99,-0.22,-122.3,-70.7,-46.0,-1.18,2.0,0.23,0.0,1.0445094542415592,2.980369104658012,0.0,0.0,2.0,0.6,1.2,100.0,1.0,0.18,0.06208000338245501,0.2,1.0,-160.0,0,0,calibrating,0,0,0,0,0,0.0
4.412230884999872,443,826.44,91.5,5.3,-61.9,0.8,3.1,-0.68,0.25,1.04,-0.2,-123.0,-76.3,-52.0,-1.16,2.14,0.09,0.0,1.08816359064251,3.272980293249564,0.0,0.0,2.0,0.6,1.2,100.0,1.0,0.18,0.10361945698773778,0.2,1.0,-160.0,0,0,calibrating,0,0,0,0,0,0.0
4.423002180999902,444,826.45,91.6,5.3,-62.2,0.98,3.43,-0.39,0.22,1.04,-0.19,-123.8,-84.0,-77.0,-1.14,2.4,0.07,0.0,1.0798611021793498,3.58850943986497,0.0,0.0,2.0,0.6,1.2,100.0,1.0,0.18,0.09341062915408604,0.2,1.0,-160.0,0,0,calibrating,0,0,0,0,0,0.0
4.432220099999995,445,826.46,91.7,5.2,-62.6,1.04,3.65,-0.17,0.2,1.06,-0.16,-124.7,-92.5,-78.0,-1.11,2.6,0.23,0.0,1.090504470417247,3.7990788357179426,0.0,0.0,2.0,0.6,1.2,100.0,1.0,0.18,0.10197291744414361,0.2,1.0,-160.0,0,0,calibrating,0,0,0,0,0,0.0
4.4429007849998925,446,826.47,91.7,5.2,-62.9,1.03,3.73,-0.01,0.17,1.05,-0.14,-125.7,-101.1,-86.0,-1.09,2.86,0.03,0.0,1.072846680565308,3.869612383689095,0.0,0.0,2.0,0.6,1.2,100.0,1.0,0.18,0.08262882504036051,0.2,1.0,-160.0,0,0,calibrating,0,0,0,0,0,0.0
4.452247204999821,447,826.48,91.8,5.3,-63.3,1.04,3.74,0.06,0.14,1.02,-0.13,-126.8,-111.6,-96.0,-1.06,3.14,-0.13,0.0,1.0377379245262264,3.882370409942874,0.0,0.0,2.0,0.6,1.2,100.0,1.0,0.18,0.04656966762125325,0.2,1.0,-160.0,0,0,calibrating,0,0,0,0,0,0.0
4.463066726999841,448,826.49,91.9,5.3,-63.7,1.09,3.7,0.1,0.11,1.01,-0.11,-128.0,-120.5,-91.0,-1.02,3.37,0.07,0.0,1.0219099764656376,3.8585100751455865,0.0,0.0,2.0,0.6,1.2,100.0,1.0,0.18,0.03012688516945128,0.2,1.0,-160.0,0,0,calibrating,0,0,0,0,0,0.0
4.472148665999839,449,826.5,92.0,5.3,-64.0,1.16,3.67,0.17,0.09,1.04,-0.08,-129.3,-129.8,-94.0,-0.99,3.64,0.07,0.0,1.0469479452198185,3.85271332958994,0.0,0.0,2.0,0.6,1.2,100.0,1.0,0.18,0.05406155684515945,0.2,1.0,-160.0,0,0,calibrating,0,0,0,0,0,0.0
4.48295557199981,450,826.51,92.1,5.4,-64.4,1.23,3.62,0.29,0.07,1.08,-0.05,-130.6,-139.6,-99.0,-0.95,3.92,-0.06,0.0,1.0834205093129814,3.8342404723752,0.0,0.0,2.0,0.6,1.2,100.0,1.0,0.18,0.08872343851955589,0.2,1.0,-160.0,0,0,calibrating,0,0,0,0,0,0.0
4.492120622999892,451,826.52,92.2,5.4,-64.8,1.24,3.51,0.46,0.04,1.13,-0.02,-132.1,-149.4,-94.0,-0.91,4.16,-0.1,0.0,1.1308846094982457,3.750906557087233,0.0,0.0,2.0,0.6,1.2,100.0,1.0,0.18,0.13346378793072378,0.2,1.0,-160.0,0,0,calibrating,0,0,0,0,0,0.0
4.502930984999921,452,826.53,92.3,5.4,-65.1,1.08,3.33,0.64,0.02,1.17,0.0,-133.6,-156.4,-73.0,-0.86,4.32,0.03,0.0,1.1701709276853531,3.558777880115588,0.0,0.0,2.0,0.6,1.2,100.0,1.0,0.18,0.16929510399547465,0.2,1.0,-160.0,0,0,calibrating,0,0,0,0,0,0.0
4.5121562899998935,453,826.54,92.3,5.5,-65.4,0.82,3.07,0.86,0.02,1.22,0.03,-135.2,-162.3,-56.0,-0.82,4.45,0.0,0.0,1.2205326705991937,3.2919447139950573,0.0,0.0,2.0,0.6,1.2,100.0,1.0,0.18,0.21526370997112898,0.2,1.0,-160.0,0,0,calibrating,0,0,0,0,0,0.0
4.523213352999846,454,826.55,92.4,5.6,-65.7,0.4,2.77,1.17,0.01,1.26,0.06,-136.9,-165.4,-34.0,-0.77,4.51,0.0,0.0,1.2614673994994878,3.0334468843215303,0.0,0.0,2.0,0.6,1.2,100.0,1.0,0.18,0.25107447009399464,0.2,1.0,-160.0,0,0,calibrating,0,0,0,0,0,0.0
4.532271176999984,455,826.56,92.4,5.7,-66.0,0.09,2.45,1.48,-0.01,1.24,0.06,-138.5,-165.0,-3.0,-0.73,4.47,-0.14,0.0,1.241491039033307,2.863738814906136,0.0,0.0,2.0,0.6,1.2,100.0,1.0,0.18,0.22647614743525746,0.2,1.0,-160.0,0,0,calibrating,0,0,0,0,0,0.0
4.542946182999913,456,826.57,92.3,5.9,-66.2,-0.04,2.07,1.67,-0.02,1.22,0.06,-140.2,-163.0,7.0,-0.69,4.43,0.12,0.0,1.221638244326036,2.6599624057493743,0.0,0.0,2.0,0.6,1.2,100.0,1.0,0.18,0.20249088567342688,0.2,1.0,-160.0,0,0,calibrating,0,0,0,0,0,0.0
4.552238826999883,457,826.58,92.3,6.1,-66.4,-0.39,1.67,1.77,0.0,1.19,0.07,-141.8,-163.8,-6.0,-0.64,4.47,0.12,0.0,1.192057045614848,2.4645283524439314,0.0,0.0,2.0,0.6,1.2,100.0,1.0,0.18,0.16945149322299402,0.2,1.0,-160.0,0,0,calibrating,0,0,0,0,0,0.0
4.562924371999998,458,826.59,92.2,6.3,-66.5,-0.75,1.37,1.71,0.02,1.1,0.05,-143.5,-164.5,1.0,-0.6,4.45,-0.03,0.0,1.1013173929435602,2.3159231420753152,0.0,0.0,2.0,0.6,1.2,100.0,1.0,0.18,0.07713760374067213,0.2,1.0,-160.0,0,0,calibrating,0,0,0,0,0,0.0
4.572233042999869,459,826.6,92.1,6.4,-66.6,-0.89,1.13,1.55,0.08,1.03,0.05,-145.1,-163.1,10.0,-0.55,4.41,0.06,0.0,1.034311365112073,2.1145921592590855,0.0,0.0,2.0,0.6,1.2,100.0,1.0,0.18,0.009928944391001115,0.2,1.0,-160.0,0,0,calibrating,0,0,0,0,0,0.0
4.582934949999981,460,826.61,92.0,6.6,-66.7,-0.82,1.05,1.37,0.14,0.97,0.04,-146.7,-159.7,32.0,-0.51,4.28,0.01,0.0,0.9808669634563089,1.9109683409203828,0.0,0.0,2.0,0.6,1.2,100.0,1.0,0.18,0.042645148119467735,0.2,1.0,-160.0,0,0,calibrating,0,0,0,0,0,0.0
4.592193195999926,461,826.62,91.9,6.7,-66.9,-0.5,1.12,1.2,0.2,0.91,0.02,-148.3,-156.6,31.0,-0.47,4.21,-0.31,0.0,0.931933474020544,1.7159254063041318,0.0,0.0,2.0,0.6,1.2,100.0,1.0,0.18,0.08974706480412786,0.2,1.0,-160.0,0,0,calibrating,0,0,0,0,0,0.0
4.60298131799982,462,826.63,91.8,6.8,-67.0,-0.09,1.36,1.03,0.24,0.88,0.01,-149.8,-154.5,25.0,-0.42,4.16,0.13,0.0,0.9121951545584969,1.7083910559353794,0.0,0.0,2.0,0.6,1.2,100.0,1.0,0.18,0.1072956765808516,0.2,1.0,-160.0,0,0,calibrating,0,0,0,0,0,0.0
4.612134304999927,463,826.64,91.8,6.9,-67.1,0.36,1.73,0.8,0.27,0.87,0.0,-151.4,-151.6,30.0,-0.38,4.08,-0.01,0.0,0.9109335870413385,1.9397164741270823,0.0,0.0,2.0,0.6,1.2,100.0,1.0,0.18,0.1063860992160498,0.2,1.0,-160.0,0,0,calibrating,0,0,0,0,0,0.0
4.623128417999851,464,826.65,91.8,7.0,-67.3,0.63,2.08,0.56,0.26,0.88,0.0,-152.9,-150.1,14.0,-0.34,4.06,-0.07,0.0,0.9176055797563569,2.244303900990238,0.0,0.0,2.0,0.6,1.2,100.0,1.0,0.18,0.09771982437101068,0.2,1.0,-160.0,0,0,calibrating,0,0,0,0,0,0.0
4.6321142449999115,465,826.66,91.9,7.1,-67.5,0.66,2.4,0.3,0.24,0.89,-0.01,-154.3,-147.9,25.0,-0.3,3.98,-0.06,0.0,0.9218459741193211,2.507109889893141,0.0,0.0,2.0,0.6,1.2,100.0,1.0,0.18,0.09160984140788553,0.2,1.0,-160.0,0,0,calibrating,0,0,0,0,0,0.0
4.643045065000024,466,826.67,91.9,7.1,-67.8,0.49,2.68,0.05,0.2,0.9,-0.01,-155.8,-145.7,19.0,-0.26,3.93,0.02,0.0,0.9220086767487604,2.724885318687743,0.0,0.0,2.0,0.6,1.2,100.0,1.0,0.18,0.08961819600287735,0.2,1.0,-160.0,0,0,calibrating,0,0,0,0,0,0.0
4.652254621999873,467,826.68,91.9,7.2,-68.1,0.3,2.93,-0.16,0.15,0.92,0.0,-157.3,-143.7,20.0,-0.22,3.88,-0.08,0.0,0.932148056909416,2.9496609974707266,0.0,0.0,2.0,0.6,1.2,100.0,1.0,0.18,0.07788923952537719,0.2,1.0,-160.0,0,0,calibrating,0,0,0,0,0,0.0
4.662883284999907,468,826.69,91.9,7.2,-68.4,0.13,3.11,-0.28,0.1,0.93,0.0,-158.7,-142.6,15.0,-0.19,3.86,0.0,0.0,0.9353608929178086,3.1252839870962124,0.0,0.0,2.0,0.6,1.2,100.0,1.0,0.18,0.07318287544664503,0.2,1.0,-160.0,0,0,calibrating,0,0,0,0,0,0.0
4.672221862000015,469,826.7,91.8,7.1,-68.7,0.01,3.23,-0.32,0.05,0.94,0.02,-160.1,-141.3,10.0,-0.15,3.84,-0.08,0.0,0.9415412895885129,3.245828091566157,0.0,0.0,2.0,0.6,1.2,100.0,1.0,0.18,0.06566242920042176,0.2,1.0,-160.0,0,0,calibrating,0,0,0,0,0,0.0
4.682929004000016,470,826.71,91.7,7.1,-69.1,-0.03,3.28,-0.33,0.02,0.93,0.03,-161.5,-140.6,16.0,-0.11,3.78,0.07,0.0,0.9306986622962343,3.2966953150086526,0.0,0.0,2.0,0.6,1.2,100.0,1.0,0.18,0.07497495536284626,0.2,1.0,-160.0,0,0,calibrating,0,0,0,0,0,0.0
4.69221380099998,471,826.72,91.7,7.0,-69.4,-0.09,3.27,-0.32,0.0,0.94,0.04,-162.9,-137.1,28.0,-0.07,3.68,-0.21,0.0,0.940850678907126,3.2868525978510204,0.0,0.0,2.0,0.6,1.2,100.0,1.0,0.18,0.06352647997691552,0.2,1.0,-160.0,0,0,calibrating,0,0,0,0,0,0.0
4.702651579999838,472,826.73,91.6,7.0,-69.7,-0.05,3.21,-0.29,-0.01,0.94,0.05,-164.3,-134.9,26.0,-0.03,3.62,-0.03,0.0,0.9413819628609844,3.2234608730369287,0.0,0.0,2.0,0.6,1.2,100.0,1.0,0.18,0.061735292102595984,0.2,1.0,-160.0,0,0,calibrating,0,0,0,0,0,0.0
